timestamp,accl_x,accl_y,accl_z,gyro_x,gyro_y,gyro_z,mag_x,mag_y,mag_z,temp,emg,
 182855,-0.079345703125,-0.945068359375,-0.27001953125,-1.097561001777649,0.396341472864151,0.4268292784690857,17.850000381469727,5.400000095367432,-6.75,40.16913604736328,0,
 182865,-0.07763671875,-0.9443359375,-0.26611328125,-0.9146341681480408,-0.060975611209869385,0.5792682766914368,17.850000381469727,4.349999904632568,-5.25,39.977447509765625,0,
 182875,-0.0810546875,-0.945068359375,-0.265625,-0.6707317233085632,0.27439025044441223,0.4573170840740204,15.899999618530273,4.650000095367432,-6.300000190734863,40.025367736816406,0,
 182885,-0.077880859375,-0.9423828125,-0.262939453125,-0.9756097793579102,0.3353658616542816,0.6097561120986938,15.899999618530273,4.650000095367432,-6.300000190734863,39.977447509765625,0,
 182895,-0.0810546875,-0.941162109375,-0.264892578125,-0.5487805008888245,0.3658536672592163,0.15243902802467346,17.25,4.050000190734863,-6.900000095367432,40.07329177856445,0,
 182905,-0.077880859375,-0.947021484375,-0.264892578125,-0.9146341681480408,0.4878048896789551,0.3353658616542816,17.100000381469727,3.9000000953674316,-4.050000190734863,40.264984130859375,0,
 182915,-0.0810546875,-0.94140625,-0.2646484375,-0.8841463327407837,0.6402438879013062,0.27439025044441223,17.700000762939453,4.5,-4.949999809265137,39.88159942626953,0,
 182925,-0.078125,-0.94384765625,-0.2646484375,-0.7621951103210449,0.6097561120986938,-0.09146341681480408,17.700000762939453,4.5,-4.949999809265137,40.16913604736328,0,
 182935,-0.079345703125,-0.947509765625,-0.265380859375,-0.792682945728302,0.6402438879013062,0.3048780560493469,17.100000381469727,3.1500000953674316,-5.550000190734863,40.264984130859375,0,
 182945,-0.078125,-0.946533203125,-0.269287109375,-0.21341463923454285,0.060975611209869385,-0.12195122241973877,16.350000381469727,4.650000095367432,-6.300000190734863,40.16913604736328,0,
 182955,-0.07861328125,-0.943115234375,-0.260009765625,0.15243902802467346,0.24390244483947754,0.3048780560493469,17.700000762939453,4.050000190734863,-5.400000095367432,39.977447509765625,0,
 182965,-0.0791015625,-0.944091796875,-0.263671875,0.12195122241973877,0.24390244483947754,0.060975611209869385,17.700000762939453,4.050000190734863,-5.400000095367432,39.977447509765625,0,
 182975,-0.082275390625,-0.94482421875,-0.259765625,0.09146341681480408,0.3048780560493469,0.3048780560493469,18.0,2.8499999046325684,-4.650000095367432,40.21706008911133,0,
 182985,-0.0771484375,-0.9453125,-0.264892578125,-0.030487805604934692,0.27439025044441223,0.5487805008888245,17.100000381469727,4.349999904632568,-7.050000190734863,40.07329177856445,0,
 182995,-0.0849609375,-0.947021484375,-0.267578125,-0.12195122241973877,0.4878048896789551,0.3353658616542816,18.600000381469727,3.9000000953674316,-4.800000190734863,40.40875244140625,0,
 183005,-0.080322265625,-0.947021484375,-0.26513671875,-0.396341472864151,0.24390244483947754,0.4268292784690857,16.950000762939453,3.299999952316284,-7.199999809265137,40.16913604736328,0,
 183015,-0.0810546875,-0.9462890625,-0.261474609375,-0.3658536672592163,0.27439025044441223,0.3048780560493469,16.950000762939453,5.25,-6.150000095367432,39.977447509765625,0,
 183025,-0.078857421875,-0.94091796875,-0.260498046875,-0.4573170840740204,0.4878048896789551,0.0,17.25,4.5,-6.449999809265137,40.21706008911133,0,
 183035,-0.0810546875,-0.94482421875,-0.267822265625,-0.4573170840740204,0.5487805008888245,0.27439025044441223,19.049999237060547,3.9000000953674316,-4.800000190734863,40.025367736816406,0,
 183045,-0.07470703125,-0.948486328125,-0.26318359375,-0.6097561120986938,0.3658536672592163,0.21341463923454285,17.850000381469727,4.349999904632568,-4.800000190734863,40.16913604736328,0,
 183055,-0.078857421875,-0.94677734375,-0.26611328125,-1.0060975551605225,0.4268292784690857,0.3353658616542816,17.850000381469727,4.349999904632568,-4.800000190734863,40.16913604736328,0,
 183065,-0.076904296875,-0.9423828125,-0.272705078125,-0.9451219439506531,0.396341472864151,0.3048780560493469,17.850000381469727,3.1500000953674316,-8.25,39.737831115722656,0,
 183075,-0.07958984375,-0.94140625,-0.264404296875,-1.1890244483947754,0.4878048896789551,0.27439025044441223,18.299999237060547,3.9000000953674316,-6.300000190734863,40.025367736816406,0,
 183085,-0.075439453125,-0.94677734375,-0.26123046875,-1.1280487775802612,0.21341463923454285,0.3353658616542816,18.600000381469727,4.349999904632568,-4.050000190734863,40.264984130859375,0,
 183095,-0.0732421875,-0.939208984375,-0.263671875,-0.27439025044441223,0.5182926654815674,0.030487805604934692,18.600000381469727,4.349999904632568,-4.050000190734863,40.07329177856445,0,
 183105,-0.078857421875,-0.94873046875,-0.265625,-0.18292683362960815,0.24390244483947754,0.3048780560493469,16.950000762939453,4.5,-5.699999809265137,40.16913604736328,0,
 183115,-0.076904296875,-0.94970703125,-0.2607421875,-0.6707317233085632,0.3658536672592163,0.3658536672592163,16.950000762939453,3.75,-5.400000095367432,40.07329177856445,0,
 183125,-0.078369140625,-0.942626953125,-0.263916015625,-0.4878048896789551,0.21341463923454285,0.4878048896789551,18.0,3.299999952316284,-7.199999809265137,40.16913604736328,0,
 183135,-0.075439453125,-0.94775390625,-0.26611328125,-0.7621951103210449,0.12195122241973877,0.12195122241973877,18.0,3.299999952316284,-7.199999809265137,40.025367736816406,0,
 183145,-0.080078125,-0.9462890625,-0.264404296875,-0.4268292784690857,0.4573170840740204,0.27439025044441223,18.899999618530273,2.549999952316284,-6.449999809265137,40.264984130859375,0,
 183155,-0.0810546875,-0.94580078125,-0.2626953125,-0.4878048896789551,0.5792682766914368,0.18292683362960815,17.700000762939453,3.299999952316284,-4.949999809265137,39.88159942626953,0,
 183165,-0.078857421875,-0.94482421875,-0.2666015625,-0.4573170840740204,0.4268292784690857,0.030487805604934692,20.700000762939453,2.549999952316284,-6.900000095367432,39.83367919921875,0,
 183175,-0.078857421875,-0.94482421875,-0.267578125,-0.6402438879013062,0.3658536672592163,0.09146341681480408,17.850000381469727,3.1500000953674316,-6.75,40.3608283996582,0,
 183185,-0.07763671875,-0.9521484375,-0.2685546875,-0.792682945728302,0.5487805008888245,0.3658536672592163,17.850000381469727,5.400000095367432,-6.0,40.16913604736328,0,
 183195,-0.0771484375,-0.9404296875,-0.26806640625,-0.3658536672592163,0.27439025044441223,0.4573170840740204,18.899999618530273,3.75,-6.150000095367432,40.16913604736328,0,
 183205,-0.077392578125,-0.9453125,-0.262939453125,-0.8231707215309143,0.4268292784690857,0.3048780560493469,16.5,2.549999952316284,-6.449999809265137,40.025367736816406,0,
 183215,-0.080810546875,-0.942138671875,-0.265625,-0.3048780560493469,0.27439025044441223,0.4573170840740204,18.0,2.8499999046325684,-5.400000095367432,39.977447509765625,0,
 183225,-0.077880859375,-0.93896484375,-0.26171875,-0.4573170840740204,0.396341472864151,0.5792682766914368,18.0,2.8499999046325684,-5.400000095367432,40.16913604736328,0,
 183235,-0.08056640625,-0.94482421875,-0.268310546875,-0.21341463923454285,0.4573170840740204,0.3658536672592163,16.350000381469727,4.349999904632568,-6.300000190734863,40.16913604736328,0,
 183245,-0.076416015625,-0.9482421875,-0.265380859375,-0.24390244483947754,0.3353658616542816,0.396341472864151,16.5,5.25,-5.699999809265137,40.025367736816406,0,
 183255,-0.08056640625,-0.9443359375,-0.26220703125,-0.3658536672592163,-0.12195122241973877,0.6097561120986938,18.600000381469727,3.1500000953674316,-7.5,40.16913604736328,0,
 183265,-0.0791015625,-0.94873046875,-0.261962890625,-0.4573170840740204,0.4268292784690857,0.09146341681480408,18.600000381469727,3.1500000953674316,-7.5,39.88159942626953,0,
 183275,-0.078369140625,-0.9443359375,-0.26220703125,-0.5182926654815674,0.5487805008888245,0.3048780560493469,19.200000762939453,4.050000190734863,-4.949999809265137,40.025367736816406,0,
 183285,-0.082275390625,-0.94677734375,-0.267333984375,-0.7317073345184326,0.396341472864151,0.24390244483947754,18.299999237060547,3.9000000953674316,-5.550000190734863,40.21706008911133,0,
 183295,-0.079345703125,-0.941650390625,-0.26318359375,-0.5792682766914368,0.5792682766914368,0.4573170840740204,19.049999237060547,4.650000095367432,-6.300000190734863,39.737831115722656,0,
 183305,-0.076904296875,-0.94189453125,-0.266845703125,-0.4878048896789551,0.27439025044441223,0.3658536672592163,19.049999237060547,4.650000095367432,-6.300000190734863,40.07329177856445,0,
 183315,-0.08251953125,-0.94775390625,-0.2626953125,-0.5792682766914368,0.24390244483947754,-0.12195122241973877,18.0,4.5,-5.400000095367432,40.16913604736328,0,
 183326,-0.0830078125,-0.942626953125,-0.261962890625,-0.9146341681480408,0.4573170840740204,0.4268292784690857,17.100000381469727,3.9000000953674316,-5.25,40.21706008911133,0,
 183336,-0.0810546875,-0.9462890625,-0.265380859375,-0.6402438879013062,0.5792682766914368,0.4878048896789551,17.549999237060547,3.1500000953674316,-6.75,39.977447509765625,0,
 183346,-0.072265625,-0.942626953125,-0.26123046875,-0.7012194991111755,0.5487805008888245,-0.21341463923454285,16.950000762939453,3.299999952316284,-8.399999618530273,40.264984130859375,0,
 183356,-0.0810546875,-0.944580078125,-0.262939453125,-0.5487805008888245,0.6097561120986938,0.030487805604934692,18.450000762939453,3.75,-6.150000095367432,39.977447509765625,0,
 183366,-0.078369140625,-0.944580078125,-0.26611328125,-0.12195122241973877,0.6707317233085632,0.3658536672592163,16.5,3.75,-7.650000095367432,39.977447509765625,0,
 183376,-0.07275390625,-0.94873046875,-0.265380859375,-0.4573170840740204,0.6707317233085632,0.3048780560493469,17.850000381469727,1.9500000476837158,-7.5,40.16913604736328,0,
 183386,-0.07763671875,-0.9482421875,-0.26171875,-0.6707317233085632,0.15243902802467346,0.3048780560493469,18.299999237060547,4.349999904632568,-6.0,40.21706008911133,0,
 183396,-0.077392578125,-0.94921875,-0.263916015625,-0.060975611209869385,0.3048780560493469,0.5487805008888245,18.299999237060547,4.349999904632568,-6.0,40.264984130859375,0,
 183406,-0.07958984375,-0.944580078125,-0.266357421875,-0.09146341681480408,0.27439025044441223,0.396341472864151,18.450000762939453,3.75,-6.150000095367432,39.88159942626953,0,
 183416,-0.079345703125,-0.940185546875,-0.2685546875,-0.21341463923454285,0.4878048896789551,0.7621951103210449,18.299999237060547,3.450000047683716,-5.550000190734863,39.977447509765625,0,
 183426,-0.0849609375,-0.947998046875,-0.264404296875,-0.7621951103210449,0.27439025044441223,0.5487805008888245,17.850000381469727,3.450000047683716,-5.550000190734863,39.977447509765625,0,
 183436,-0.0849609375,-0.949462890625,-0.26416015625,-0.9146341681480408,0.396341472864151,0.7317073345184326,17.850000381469727,3.450000047683716,-5.550000190734863,40.16913604736328,0,
 183446,-0.079833984375,-0.944580078125,-0.266357421875,-0.8536585569381714,0.4878048896789551,0.5182926654815674,19.049999237060547,3.1500000953674316,-5.25,39.977447509765625,0,
 183456,-0.078857421875,-0.938720703125,-0.265869140625,-1.0365853309631348,0.4573170840740204,0.8231707215309143,17.100000381469727,4.650000095367432,-4.800000190734863,39.83367919921875,0,
 183466,-0.076171875,-0.94677734375,-0.261474609375,-1.0060975551605225,0.5487805008888245,0.12195122241973877,18.0,4.5,-5.699999809265137,39.977447509765625,0,
 183476,-0.079345703125,-0.93603515625,-0.2666015625,-1.0670732259750366,0.3658536672592163,0.21341463923454285,18.0,4.5,-5.699999809265137,40.07329177856445,0,
 183486,-0.078125,-0.944091796875,-0.269287109375,-0.9146341681480408,0.4878048896789551,0.3048780560493469,18.450000762939453,3.75,-6.150000095367432,40.07329177856445,0,
 183496,-0.079345703125,-0.940673828125,-0.265380859375,-1.1280487775802612,0.7012194991111755,0.3353658616542816,16.799999237060547,6.599999904632568,-6.300000190734863,40.16913604736328,0,
 183506,-0.07666015625,-0.9404296875,-0.26220703125,-0.7317073345184326,0.5487805008888245,0.27439025044441223,18.299999237060547,3.1500000953674316,-6.300000190734863,40.07329177856445,0,
 183516,-0.08056640625,-0.943115234375,-0.27001953125,-0.4573170840740204,0.4573170840740204,0.3353658616542816,17.850000381469727,5.400000095367432,-7.050000190734863,39.88159942626953,0,
 183526,-0.07421875,-0.940673828125,-0.261962890625,-0.060975611209869385,0.4573170840740204,-0.09146341681480408,18.450000762939453,3.75,-5.699999809265137,40.40875244140625,0,
 183536,-0.080078125,-0.9462890625,-0.26806640625,0.09146341681480408,0.3353658616542816,0.6402438879013062,19.350000381469727,4.650000095367432,-6.300000190734863,40.07329177856445,0,
 183546,-0.079833984375,-0.94189453125,-0.2666015625,-0.3658536672592163,0.030487805604934692,0.3353658616542816,17.549999237060547,4.349999904632568,-7.5,39.977447509765625,0,
 183556,-0.076416015625,-0.938232421875,-0.2626953125,-0.12195122241973877,0.09146341681480408,0.21341463923454285,18.600000381469727,3.9000000953674316,-6.75,39.977447509765625,0,
 183566,-0.07958984375,-0.948486328125,-0.26513671875,-0.24390244483947754,0.3048780560493469,0.3048780560493469,18.600000381469727,3.9000000953674316,-6.75,39.977447509765625,0,
 183576,-0.07958984375,-0.9443359375,-0.26171875,-0.27439025044441223,0.24390244483947754,0.21341463923454285,17.25,2.0999999046325684,-9.899999618530273,40.21706008911133,0,
 183586,-0.076904296875,-0.947265625,-0.266845703125,-0.5182926654815674,0.4268292784690857,0.3353658616542816,17.700000762939453,3.75,-6.150000095367432,40.07329177856445,0,
 183596,-0.08544921875,-0.939208984375,-0.26171875,-0.4878048896789551,0.6097561120986938,0.12195122241973877,17.850000381469727,4.349999904632568,-5.550000190734863,40.16913604736328,0,
 183606,-0.082763671875,-0.942138671875,-0.27099609375,-0.6402438879013062,0.27439025044441223,0.27439025044441223,17.850000381469727,4.349999904632568,-5.550000190734863,39.88159942626953,0,
 183616,-0.083740234375,-0.947021484375,-0.265380859375,-0.792682945728302,0.6097561120986938,0.18292683362960815,18.299999237060547,3.9000000953674316,-6.0,40.16913604736328,0,
 183626,-0.079833984375,-0.9443359375,-0.26123046875,-0.6402438879013062,0.396341472864151,0.18292683362960815,18.299999237060547,5.400000095367432,-5.550000190734863,40.07329177856445,0,
 183636,-0.077392578125,-0.944091796875,-0.2626953125,-0.7621951103210449,0.6402438879013062,0.396341472864151,19.350000381469727,2.700000047683716,-7.050000190734863,40.16913604736328,0,
 183646,-0.077392578125,-0.9375,-0.262451171875,-0.396341472864151,0.4878048896789551,0.24390244483947754,19.350000381469727,2.700000047683716,-7.050000190734863,40.16913604736328,0,
 183656,-0.08447265625,-0.946044921875,-0.264892578125,-0.7012194991111755,0.27439025044441223,0.4878048896789551,17.549999237060547,3.450000047683716,-5.25,39.977447509765625,0,
 183666,-0.0791015625,-0.94580078125,-0.26416015625,-0.5487805008888245,0.396341472864151,0.4878048896789551,18.0,4.5,-4.199999809265137,40.025367736816406,0,
 183676,-0.077880859375,-0.94140625,-0.259765625,-0.4573170840740204,0.24390244483947754,0.3658536672592163,17.549999237060547,5.849999904632568,-8.550000190734863,40.16913604736328,0,
 183686,-0.078857421875,-0.947998046875,-0.267333984375,-0.4573170840740204,0.4573170840740204,0.3658536672592163,17.850000381469727,3.1500000953674316,-6.75,40.21706008911133,0,
 183696,-0.083984375,-0.94287109375,-0.26513671875,-0.4268292784690857,0.396341472864151,0.4878048896789551,19.049999237060547,3.450000047683716,-6.300000190734863,40.16913604736328,0,
 183706,-0.078125,-0.94775390625,-0.2646484375,-0.3658536672592163,0.3353658616542816,-0.12195122241973877,18.299999237060547,2.25,-5.550000190734863,40.025367736816406,0,
 183716,-0.079345703125,-0.940673828125,-0.261474609375,-0.396341472864151,0.18292683362960815,0.4573170840740204,17.25,4.5,-4.949999809265137,39.977447509765625,0,
 183726,-0.083740234375,-0.949951171875,-0.26171875,-0.3658536672592163,0.5792682766914368,0.3048780560493469,17.100000381469727,5.400000095367432,-4.800000190734863,39.83367919921875,0,
 183736,-0.07861328125,-0.942626953125,-0.26416015625,-0.5487805008888245,0.4878048896789551,0.030487805604934692,17.100000381469727,5.400000095367432,-4.800000190734863,40.16913604736328,0,
 183746,-0.076904296875,-0.940673828125,-0.265625,-0.4878048896789551,0.7012194991111755,0.3048780560493469,17.700000762939453,2.8499999046325684,-4.949999809265137,40.21706008911133,0,
 183756,-0.08154296875,-0.9453125,-0.26708984375,-0.6402438879013062,0.5182926654815674,0.27439025044441223,18.0,4.949999809265137,-6.449999809265137,40.07329177856445,0,
 183766,-0.08056640625,-0.945556640625,-0.260498046875,-0.27439025044441223,0.4573170840740204,0.09146341681480408,18.299999237060547,5.099999904632568,-6.75,40.16913604736328,0,
 183776,-0.078857421875,-0.94970703125,-0.265625,-0.24390244483947754,0.15243902802467346,0.24390244483947754,18.299999237060547,5.099999904632568,-6.75,40.025367736816406,0,
 183786,-0.081298828125,-0.948486328125,-0.263427734375,-0.030487805604934692,0.3658536672592163,0.396341472864151,15.899999618530273,3.1500000953674316,-4.800000190734863,40.21706008911133,0,
 183796,-0.081298828125,-0.942138671875,-0.26904296875,-0.5792682766914368,0.4573170840740204,0.27439025044441223,18.450000762939453,4.5,-5.699999809265137,39.977447509765625,0,
 183806,-0.08154296875,-0.94580078125,-0.2626953125,-0.6097561120986938,0.18292683362960815,0.5792682766914368,18.450000762939453,4.949999809265137,-5.699999809265137,39.977447509765625,0,
 183816,-0.079345703125,-0.94677734375,-0.26171875,-0.5792682766914368,0.3658536672592163,0.3353658616542816,18.450000762939453,4.949999809265137,-5.699999809265137,40.16913604736328,0,
 183826,-0.079833984375,-0.948974609375,-0.259521484375,-0.6707317233085632,0.21341463923454285,0.5487805008888245,18.0,4.5,-5.699999809265137,39.88159942626953,0,
 183836,-0.075927734375,-0.94873046875,-0.263427734375,-0.4573170840740204,0.396341472864151,0.6402438879013062,17.549999237060547,3.9000000953674316,-6.300000190734863,39.977447509765625,0,
 183846,-0.084716796875,-0.943603515625,-0.265625,-0.3353658616542816,0.3353658616542816,0.5792682766914368,18.0,4.050000190734863,-7.199999809265137,39.977447509765625,0,
 183856,-0.079345703125,-0.940673828125,-0.262939453125,-0.5792682766914368,0.5487805008888245,0.4573170840740204,17.850000381469727,3.450000047683716,-6.300000190734863,40.07329177856445,0,
 183866,-0.08251953125,-0.9443359375,-0.265625,-0.6707317233085632,0.3658536672592163,0.0,17.700000762939453,2.549999952316284,-7.199999809265137,40.07329177856445,0,
 183876,-0.08056640625,-0.94140625,-0.26025390625,-0.6402438879013062,0.4268292784690857,0.3658536672592163,18.299999237060547,4.650000095367432,-6.300000190734863,40.16913604736328,0,
 183886,-0.078369140625,-0.943115234375,-0.26806640625,-0.6707317233085632,0.4573170840740204,0.0,18.0,0.8999999761581421,-6.449999809265137,40.3608283996582,0,
 183896,-0.0771484375,-0.9443359375,-0.263671875,-0.6707317233085632,0.5487805008888245,0.24390244483947754,19.200000762939453,4.050000190734863,-5.400000095367432,39.977447509765625,0,
 183906,-0.0791015625,-0.944580078125,-0.267333984375,-0.4268292784690857,0.21341463923454285,0.3353658616542816,19.200000762939453,4.050000190734863,-5.400000095367432,40.16913604736328,0,
 183916,-0.077880859375,-0.93896484375,-0.263427734375,-0.5182926654815674,0.12195122241973877,0.4878048896789551,17.100000381469727,5.400000095367432,-6.300000190734863,40.21706008911133,0,
 183926,-0.08203125,-0.9423828125,-0.267333984375,-0.396341472864151,0.5792682766914368,0.27439025044441223,17.25,4.050000190734863,-6.900000095367432,40.16913604736328,0,
 183936,-0.076416015625,-0.94384765625,-0.266357421875,-0.5487805008888245,0.5182926654815674,0.3048780560493469,17.25,3.75,-4.650000095367432,40.40875244140625,0,
 183946,-0.084716796875,-0.943603515625,-0.2646484375,-0.3658536672592163,0.396341472864151,0.27439025044441223,17.25,3.75,-4.650000095367432,39.737831115722656,0,
 183956,-0.08154296875,-0.94287109375,-0.26171875,-0.792682945728302,0.5487805008888245,0.4878048896789551,17.100000381469727,3.9000000953674316,-7.5,40.16913604736328,0,
 183966,-0.07470703125,-0.947998046875,-0.265380859375,-0.4878048896789551,-0.030487805604934692,0.7317073345184326,17.25,5.25,-5.400000095367432,40.16913604736328,0,
 183976,-0.07861328125,-0.943359375,-0.2646484375,-0.4878048896789551,0.24390244483947754,0.5487805008888245,18.0,4.050000190734863,-6.900000095367432,40.07329177856445,0,
 183986,-0.08056640625,-0.951904296875,-0.266357421875,-0.21341463923454285,0.3048780560493469,0.7012194991111755,18.0,4.050000190734863,-6.900000095367432,40.025367736816406,0,
 183996,-0.078857421875,-0.947998046875,-0.26611328125,-0.24390244483947754,0.396341472864151,0.4573170840740204,17.25,3.75,-5.699999809265137,39.977447509765625,0,
 184006,-0.081787109375,-0.943603515625,-0.269287109375,-0.4268292784690857,0.3048780560493469,0.5792682766914368,17.700000762939453,4.949999809265137,-7.199999809265137,40.07329177856445,0,
 184016,-0.0791015625,-0.947021484375,-0.264892578125,-0.7621951103210449,0.5487805008888245,0.4268292784690857,18.299999237060547,3.9000000953674316,-5.550000190734863,40.16913604736328,0,
 184026,-0.08251953125,-0.951904296875,-0.26611328125,-0.3658536672592163,0.4573170840740204,0.6707317233085632,18.299999237060547,5.099999904632568,-6.0,40.16913604736328,0,
 184036,-0.0830078125,-0.946044921875,-0.265380859375,-1.1890244483947754,0.3353658616542816,0.3658536672592163,17.700000762939453,3.299999952316284,-5.699999809265137,39.977447509765625,0,
 184046,-0.08203125,-0.94921875,-0.261474609375,-0.9756097793579102,0.3658536672592163,0.3658536672592163,19.350000381469727,3.1500000953674316,-5.25,40.16913604736328,0,
 184056,-0.078125,-0.940673828125,-0.263916015625,-0.8841463327407837,0.6097561120986938,0.7012194991111755,18.0,5.699999809265137,-5.400000095367432,40.3608283996582,0,
 184066,-0.07470703125,-0.9501953125,-0.26513671875,-0.6402438879013062,0.27439025044441223,0.5487805008888245,17.25,4.5,-4.199999809265137,40.07329177856445,0,
 184076,-0.07958984375,-0.94091796875,-0.258544921875,-0.9146341681480408,0.4268292784690857,0.21341463923454285,17.25,4.5,-4.199999809265137,40.16913604736328,0,
 184086,-0.078369140625,-0.941650390625,-0.260986328125,-0.3048780560493469,0.27439025044441223,0.3353658616542816,18.299999237060547,5.400000095367432,-9.75,40.16913604736328,0,
 184096,-0.075927734375,-0.944580078125,-0.260498046875,-0.6097561120986938,0.18292683362960815,0.4268292784690857,17.25,5.699999809265137,-10.199999809265137,40.07329177856445,0,
 184106,-0.0712890625,-0.94384765625,-0.26416015625,-0.4573170840740204,0.5182926654815674,0.15243902802467346,17.700000762939453,4.949999809265137,-4.949999809265137,40.21706008911133,0,
 184116,-0.082275390625,-0.945556640625,-0.270751953125,-0.3353658616542816,0.18292683362960815,0.3658536672592163,17.700000762939453,4.949999809265137,-4.949999809265137,40.16913604736328,0,
 184126,-0.080322265625,-0.943359375,-0.262451171875,-0.27439025044441223,0.12195122241973877,0.12195122241973877,19.350000381469727,5.849999904632568,-5.25,40.21706008911133,0,
 184137,-0.080810546875,-0.94580078125,-0.2626953125,-0.21341463923454285,0.3658536672592163,0.3048780560493469,18.299999237060547,3.1500000953674316,-8.25,40.025367736816406,0,
 184147,-0.076904296875,-0.942626953125,-0.259521484375,-0.4573170840740204,0.27439025044441223,0.4268292784690857,17.100000381469727,2.700000047683716,-6.75,39.83367919921875,0,
 184157,-0.076416015625,-0.944091796875,-0.2685546875,-0.3353658616542816,0.24390244483947754,0.060975611209869385,17.100000381469727,2.700000047683716,-6.75,40.16913604736328,0,
 184167,-0.07666015625,-0.946533203125,-0.259521484375,-0.21341463923454285,0.5792682766914368,0.3353658616542816,17.100000381469727,3.450000047683716,-5.550000190734863,40.16913604736328,0,
 184177,-0.077392578125,-0.94482421875,-0.263916015625,-0.4268292784690857,0.24390244483947754,0.21341463923454285,16.350000381469727,3.450000047683716,-6.0,40.16913604736328,0,
 184187,-0.07861328125,-0.946044921875,-0.26953125,-0.18292683362960815,0.396341472864151,0.3353658616542816,16.799999237060547,2.700000047683716,-7.5,40.16913604736328,0,
 184197,-0.0791015625,-0.943115234375,-0.261474609375,0.060975611209869385,0.3353658616542816,0.3658536672592163,16.799999237060547,2.700000047683716,-7.5,40.21706008911133,0,
 184207,-0.074951171875,-0.944580078125,-0.265625,-0.24390244483947754,0.24390244483947754,0.18292683362960815,17.100000381469727,5.099999904632568,-4.800000190734863,39.977447509765625,0,
 184217,-0.0810546875,-0.947021484375,-0.261962890625,-0.18292683362960815,0.3658536672592163,0.12195122241973877,17.700000762939453,5.699999809265137,-6.150000095367432,40.21706008911133,0,
 184227,-0.08154296875,-0.947265625,-0.262451171875,-0.4878048896789551,0.21341463923454285,0.060975611209869385,17.850000381469727,4.650000095367432,-6.900000095367432,40.21706008911133,0,
 184237,-0.0810546875,-0.949951171875,-0.26318359375,-0.3353658616542816,0.3048780560493469,0.4268292784690857,17.850000381469727,4.650000095367432,-6.0,39.88159942626953,0,
 184247,-0.08154296875,-0.9462890625,-0.257568359375,-0.6402438879013062,0.5487805008888245,0.396341472864151,17.850000381469727,4.650000095367432,-6.0,39.83367919921875,0,
 184257,-0.07861328125,-0.948974609375,-0.268798828125,-0.6707317233085632,0.5182926654815674,-0.030487805604934692,17.100000381469727,4.349999904632568,-5.550000190734863,40.16913604736328,0,
 184267,-0.080322265625,-0.94775390625,-0.264892578125,-0.7621951103210449,0.4878048896789551,0.396341472864151,17.549999237060547,3.9000000953674316,-3.75,40.16913604736328,0,
 184277,-0.079345703125,-0.946533203125,-0.26318359375,-0.8231707215309143,0.3353658616542816,0.3048780560493469,17.549999237060547,3.9000000953674316,-4.800000190734863,39.977447509765625,0,
 184287,-0.079833984375,-0.943115234375,-0.270263671875,-0.792682945728302,0.792682945728302,0.396341472864151,17.549999237060547,3.9000000953674316,-4.800000190734863,39.977447509765625,0,
 184297,-0.074951171875,-0.9404296875,-0.27099609375,-0.6707317233085632,0.3048780560493469,0.3658536672592163,17.25,3.75,-5.699999809265137,40.21706008911133,0,
 184307,-0.06982421875,-0.9462890625,-0.264892578125,-0.4268292784690857,0.18292683362960815,0.12195122241973877,18.0,3.1500000953674316,-6.0,40.21706008911133,0,
 184317,-0.081298828125,-0.9443359375,-0.261474609375,-0.21341463923454285,0.12195122241973877,0.12195122241973877,18.0,4.5,-5.400000095367432,40.025367736816406,0,
 184327,-0.07666015625,-0.940185546875,-0.264404296875,-0.24390244483947754,0.060975611209869385,0.18292683362960815,18.0,4.5,-5.400000095367432,40.16913604736328,0,
 184337,-0.077880859375,-0.9443359375,-0.26611328125,-0.3353658616542816,0.7012194991111755,0.18292683362960815,16.5,4.5,-5.699999809265137,39.977447509765625,0,
 184347,-0.08349609375,-0.94775390625,-0.26708984375,-0.4878048896789551,0.4878048896789551,0.3353658616542816,16.350000381469727,4.349999904632568,-6.300000190734863,40.16913604736328,0,
 184357,-0.080322265625,-0.944580078125,-0.265380859375,-0.3353658616542816,0.396341472864151,0.060975611209869385,17.549999237060547,3.450000047683716,-6.300000190734863,40.16913604736328,0,
 184367,-0.0771484375,-0.9462890625,-0.267822265625,-0.6707317233085632,0.4878048896789551,0.396341472864151,17.549999237060547,3.450000047683716,-6.300000190734863,40.16913604736328,0,
 184377,-0.078369140625,-0.94873046875,-0.26123046875,-0.7012194991111755,0.4268292784690857,0.21341463923454285,17.549999237060547,3.450000047683716,-6.300000190734863,40.16913604736328,0,
 184387,-0.084228515625,-0.947021484375,-0.259765625,-0.9146341681480408,0.6097561120986938,0.3048780560493469,17.25,5.25,-5.699999809265137,40.025367736816406,0,
 184397,-0.0791015625,-0.945556640625,-0.2685546875,-0.396341472864151,0.6097561120986938,0.15243902802467346,17.700000762939453,4.5,-6.150000095367432,40.16913604736328,0,
 184407,-0.0830078125,-0.94091796875,-0.261962890625,-0.4878048896789551,0.5487805008888245,0.4268292784690857,17.700000762939453,4.5,-6.150000095367432,40.07329177856445,0,
 184417,-0.076171875,-0.951171875,-0.264892578125,-0.12195122241973877,0.24390244483947754,0.3353658616542816,17.700000762939453,4.5,-6.150000095367432,40.025367736816406,0,
 184427,-0.078857421875,-0.9482421875,-0.26416015625,-0.3353658616542816,0.27439025044441223,0.4268292784690857,18.899999618530273,3.75,-5.400000095367432,40.07329177856445,0,
 184437,-0.072998046875,-0.9462890625,-0.263671875,-0.21341463923454285,0.6097561120986938,0.4573170840740204,18.450000762939453,3.75,-4.949999809265137,39.977447509765625,0,
 184447,-0.0771484375,-0.95166015625,-0.26513671875,-0.5792682766914368,0.4573170840740204,0.4268292784690857,18.450000762939453,3.75,-4.949999809265137,40.264984130859375,0,
 184457,-0.076416015625,-0.947509765625,-0.26220703125,-0.9146341681480408,0.4878048896789551,0.3353658616542816,18.450000762939453,3.75,-4.949999809265137,40.025367736816406,0,
 184467,-0.082763671875,-0.947509765625,-0.26708984375,-0.6402438879013062,0.6402438879013062,0.3658536672592163,17.549999237060547,3.9000000953674316,-6.75,40.16913604736328,0,
 184477,-0.079345703125,-0.94580078125,-0.26220703125,-1.0060975551605225,0.4573170840740204,0.3048780560493469,18.0,4.050000190734863,-6.0,40.16913604736328,0,
 184497,-0.07666015625,-0.945068359375,-0.262451171875,-0.9146341681480408,0.5487805008888245,-0.030487805604934692,18.0,4.050000190734863,-6.150000095367432,40.16913604736328,0,
 184507,-0.075439453125,-0.9404296875,-0.264404296875,-0.8536585569381714,0.5182926654815674,0.0,16.350000381469727,2.25,-6.0,40.07329177856445,0,
 184517,-0.081298828125,-0.94091796875,-0.26708984375,-0.7621951103210449,0.5792682766914368,-0.060975611209869385,17.100000381469727,4.349999904632568,-5.699999809265137,40.025367736816406,0,
 184527,-0.075927734375,-0.947265625,-0.268310546875,-0.3658536672592163,0.396341472864151,-0.24390244483947754,17.700000762939453,4.5,-6.150000095367432,40.264984130859375,0,
 184537,-0.0791015625,-0.943115234375,-0.26904296875,-0.3048780560493469,0.5792682766914368,0.3658536672592163,17.700000762939453,4.5,-6.150000095367432,39.977447509765625,0,
 184547,-0.0791015625,-0.95068359375,-0.26953125,-0.4268292784690857,0.21341463923454285,0.7317073345184326,17.700000762939453,4.5,-6.150000095367432,40.16913604736328,0,
 184557,-0.081787109375,-0.9462890625,-0.26611328125,0.0,0.3658536672592163,0.396341472864151,17.850000381469727,4.349999904632568,-5.550000190734863,40.21706008911133,0,
 184567,-0.0771484375,-0.9482421875,-0.26220703125,-0.18292683362960815,0.09146341681480408,0.3658536672592163,17.549999237060547,4.349999904632568,-6.0,40.264984130859375,0,
 184577,-0.07470703125,-0.947509765625,-0.264892578125,-0.09146341681480408,0.24390244483947754,0.6707317233085632,17.549999237060547,4.349999904632568,-6.0,40.16913604736328,0,
 184587,-0.077880859375,-0.943359375,-0.258056640625,-0.3048780560493469,0.4573170840740204,0.27439025044441223,17.549999237060547,4.349999904632568,-6.0,39.977447509765625,0,
 184597,-0.076171875,-0.94873046875,-0.259521484375,-0.6097561120986938,0.396341472864151,0.5792682766914368,17.25,6.0,-7.949999809265137,40.07329177856445,0,
 184607,-0.07568359375,-0.944580078125,-0.266357421875,-0.7317073345184326,0.3658536672592163,0.6097561120986938,18.899999618530273,4.5,-6.150000095367432,40.16913604736328,0,
 184617,-0.079345703125,-0.943603515625,-0.26611328125,-0.7317073345184326,0.3048780560493469,0.8231707215309143,18.899999618530273,4.5,-6.150000095367432,40.16913604736328,0,
 184627,-0.079345703125,-0.943115234375,-0.259765625,-0.8841463327407837,0.4573170840740204,0.21341463923454285,18.899999618530273,4.5,-6.150000095367432,40.07329177856445,0,
 184637,-0.07470703125,-0.947021484375,-0.264404296875,-0.8536585569381714,0.5487805008888245,0.09146341681480408,17.25,4.050000190734863,-6.449999809265137,39.977447509765625,0,
 184647,-0.081298828125,-0.9423828125,-0.267578125,-0.792682945728302,0.4878048896789551,0.15243902802467346,17.549999237060547,3.9000000953674316,-5.25,40.025367736816406,0,
 184657,-0.076416015625,-0.9453125,-0.26806640625,-0.7012194991111755,0.4268292784690857,0.6097561120986938,17.549999237060547,3.9000000953674316,-5.25,40.07329177856445,0,
 184667,-0.0751953125,-0.939697265625,-0.265869140625,-0.7621951103210449,0.5182926654815674,0.4268292784690857,17.549999237060547,3.9000000953674316,-5.25,40.16913604736328,0,
 184677,-0.08251953125,-0.9453125,-0.265380859375,-0.5792682766914368,0.396341472864151,0.5487805008888245,16.950000762939453,4.5,-5.400000095367432,40.16913604736328,0,
 184687,-0.081298828125,-0.94287109375,-0.267578125,-0.4268292784690857,0.396341472864151,0.5182926654815674,17.700000762939453,5.25,-7.650000095367432,40.21706008911133,0,
 184697,-0.08447265625,-0.9462890625,-0.26708984375,-0.12195122241973877,0.18292683362960815,0.3658536672592163,17.549999237060547,2.25,-7.050000190734863,40.07329177856445,0,
 184707,-0.0791015625,-0.94287109375,-0.265380859375,-0.15243902802467346,0.3353658616542816,0.12195122241973877,17.549999237060547,2.25,-7.050000190734863,40.025367736816406,0,
 184717,-0.07861328125,-0.943359375,-0.2646484375,-0.3658536672592163,0.21341463923454285,0.09146341681480408,17.549999237060547,2.25,-7.050000190734863,40.3608283996582,0,
 184727,-0.08349609375,-0.94287109375,-0.267578125,-0.15243902802467346,0.18292683362960815,0.27439025044441223,16.950000762939453,4.5,-7.199999809265137,40.07329177856445,0,
 184737,-0.0849609375,-0.94580078125,-0.276123046875,-0.6707317233085632,0.3048780560493469,0.030487805604934692,17.25,4.5,-6.449999809265137,40.07329177856445,0,
 184747,-0.08154296875,-0.940185546875,-0.26171875,-0.6707317233085632,0.4573170840740204,0.18292683362960815,17.25,4.5,-6.449999809265137,40.07329177856445,0,
 184757,-0.07861328125,-0.9443359375,-0.26318359375,-0.6402438879013062,0.21341463923454285,0.3658536672592163,17.25,4.5,-6.449999809265137,40.16913604736328,0,
 184767,-0.081787109375,-0.944091796875,-0.2646484375,-0.6402438879013062,0.4878048896789551,0.24390244483947754,17.549999237060547,3.9000000953674316,-7.050000190734863,40.21706008911133,0,
 184777,-0.0791015625,-0.93896484375,-0.271240234375,-0.6707317233085632,0.4573170840740204,0.21341463923454285,17.25,3.299999952316284,-3.9000000953674316,39.977447509765625,0,
 184787,-0.078369140625,-0.940185546875,-0.2666015625,-0.4268292784690857,0.5487805008888245,0.030487805604934692,17.25,3.299999952316284,-3.9000000953674316,40.07329177856445,0,
 184797,-0.08203125,-0.947021484375,-0.267333984375,-0.18292683362960815,0.5182926654815674,0.09146341681480408,17.25,3.299999952316284,-3.9000000953674316,39.88159942626953,0,
 184807,-0.0791015625,-0.9462890625,-0.267578125,-0.24390244483947754,0.3658536672592163,0.15243902802467346,17.850000381469727,3.299999952316284,-8.699999809265137,40.16913604736328,0,
 184817,-0.076904296875,-0.94677734375,-0.267578125,-0.24390244483947754,0.27439025044441223,0.12195122241973877,16.799999237060547,2.700000047683716,-7.5,40.025367736816406,0,
 184827,-0.077880859375,-0.94091796875,-0.265625,-0.21341463923454285,0.5792682766914368,0.3353658616542816,16.799999237060547,2.700000047683716,-7.5,39.977447509765625,0,
 184837,-0.08251953125,-0.943115234375,-0.26171875,-0.5182926654815674,0.4878048896789551,0.4268292784690857,16.799999237060547,2.700000047683716,-7.5,39.977447509765625,0,
 184847,-0.079345703125,-0.943603515625,-0.26513671875,-0.6707317233085632,0.3353658616542816,0.21341463923454285,17.700000762939453,3.9000000953674316,-5.550000190734863,40.16913604736328,0,
 184857,-0.073974609375,-0.943603515625,-0.265625,-0.7317073345184326,0.6097561120986938,0.27439025044441223,17.850000381469727,4.650000095367432,-6.0,40.07329177856445,0,
 184867,-0.080078125,-0.945556640625,-0.2646484375,-0.8841463327407837,0.4268292784690857,0.27439025044441223,17.850000381469727,3.450000047683716,-5.550000190734863,40.07329177856445,0,
 184877,-0.076171875,-0.949462890625,-0.269287109375,-0.6707317233085632,0.5182926654815674,0.15243902802467346,17.850000381469727,3.450000047683716,-5.550000190734863,39.977447509765625,0,
 184887,-0.078125,-0.943115234375,-0.2685546875,-0.7317073345184326,0.5487805008888245,0.060975611209869385,17.850000381469727,3.450000047683716,-5.550000190734863,40.21706008911133,0,
 184897,-0.078369140625,-0.945556640625,-0.260986328125,-0.6097561120986938,0.27439025044441223,0.27439025044441223,19.649999618530273,2.8499999046325684,-10.649999618530273,40.21706008911133,0,
 184907,-0.075927734375,-0.953125,-0.264892578125,-0.18292683362960815,0.27439025044441223,-0.060975611209869385,18.450000762939453,4.050000190734863,-5.400000095367432,40.025367736816406,0,
 184917,-0.076171875,-0.943359375,-0.2626953125,-0.09146341681480408,0.27439025044441223,0.4878048896789551,18.450000762939453,4.050000190734863,-5.400000095367432,40.07329177856445,0,
 184927,-0.08056640625,-0.943603515625,-0.269775390625,-0.396341472864151,0.15243902802467346,0.4878048896789551,18.450000762939453,4.050000190734863,-5.400000095367432,39.88159942626953,0,
 184937,-0.07666015625,-0.943115234375,-0.263671875,-0.12195122241973877,0.18292683362960815,0.396341472864151,17.850000381469727,5.400000095367432,-5.25,40.07329177856445,0,
 184948,-0.081787109375,-0.94873046875,-0.266845703125,-0.21341463923454285,0.3353658616542816,0.6097561120986938,17.100000381469727,3.450000047683716,-5.25,39.977447509765625,0,
 184958,-0.08349609375,-0.94189453125,-0.260986328125,-0.5487805008888245,0.3048780560493469,0.3048780560493469,17.100000381469727,3.450000047683716,-5.25,40.07329177856445,0,
 184968,-0.074462890625,-0.94873046875,-0.26171875,-1.0060975551605225,0.7317073345184326,0.4878048896789551,17.100000381469727,3.450000047683716,-5.25,40.3608283996582,0,
 184978,-0.078125,-0.9404296875,-0.267822265625,-0.4268292784690857,0.7317073345184326,0.3048780560493469,18.0,4.5,-6.900000095367432,40.07329177856445,0,
 184988,-0.07421875,-0.948486328125,-0.264404296875,-0.9146341681480408,0.7317073345184326,0.18292683362960815,16.799999237060547,3.9000000953674316,-6.0,40.21706008911133,0,
 184998,-0.078125,-0.9462890625,-0.26123046875,-0.9756097793579102,0.4573170840740204,0.4573170840740204,18.450000762939453,5.25,-9.449999809265137,40.025367736816406,0,
 185008,-0.075927734375,-0.9453125,-0.259521484375,-0.8231707215309143,0.12195122241973877,0.396341472864151,18.450000762939453,5.25,-9.449999809265137,40.264984130859375,0,
 185018,-0.073974609375,-0.944091796875,-0.2666015625,-0.6097561120986938,0.4573170840740204,0.21341463923454285,17.25,5.699999809265137,-7.650000095367432,40.025367736816406,0,
 185028,-0.075927734375,-0.941650390625,-0.263671875,-0.6402438879013062,0.4573170840740204,0.15243902802467346,17.700000762939453,4.949999809265137,-6.449999809265137,39.88159942626953,0,
 185038,-0.076416015625,-0.945068359375,-0.265869140625,-0.5182926654815674,0.27439025044441223,0.18292683362960815,16.5,5.25,-6.150000095367432,40.21706008911133,0,
 185048,-0.0771484375,-0.939208984375,-0.26416015625,-0.4878048896789551,-0.060975611209869385,0.396341472864151,16.5,5.25,-6.150000095367432,40.07329177856445,0,
 185058,-0.07373046875,-0.93896484375,-0.261474609375,-0.15243902802467346,0.15243902802467346,0.18292683362960815,17.100000381469727,3.9000000953674316,-6.150000095367432,40.07329177856445,0,
 185068,-0.078857421875,-0.94580078125,-0.26611328125,-0.27439025044441223,0.3048780560493469,0.18292683362960815,18.299999237060547,4.349999904632568,-6.300000190734863,40.16913604736328,0,
 185078,-0.08154296875,-0.945556640625,-0.26513671875,-0.24390244483947754,0.15243902802467346,0.4268292784690857,16.350000381469727,5.099999904632568,-4.050000190734863,39.977447509765625,0,
 185088,-0.08203125,-0.9521484375,-0.268798828125,-0.5487805008888245,0.4268292784690857,0.4268292784690857,16.350000381469727,5.099999904632568,-4.050000190734863,39.88159942626953,0,
 185098,-0.0771484375,-0.94873046875,-0.260986328125,-0.7317073345184326,0.3353658616542816,0.4573170840740204,15.899999618530273,5.099999904632568,-4.050000190734863,40.16913604736328,0,
 185108,-0.078125,-0.943359375,-0.264404296875,-0.3353658616542816,0.3353658616542816,0.396341472864151,16.5,1.350000023841858,-6.900000095367432,40.16913604736328,0,
 185118,-0.07958984375,-0.943359375,-0.270751953125,-0.060975611209869385,0.4573170840740204,0.15243902802467346,17.25,4.050000190734863,-5.400000095367432,40.21706008911133,0,
 185128,-0.07861328125,-0.945556640625,-0.26318359375,-0.4268292784690857,0.4268292784690857,0.21341463923454285,17.25,4.050000190734863,-5.400000095367432,40.07329177856445,0,
 185138,-0.082275390625,-0.941650390625,-0.265625,-0.3048780560493469,0.21341463923454285,0.24390244483947754,17.25,4.050000190734863,-5.400000095367432,40.21706008911133,0,
 185148,-0.076904296875,-0.947021484375,-0.260009765625,-0.24390244483947754,0.7317073345184326,0.396341472864151,18.299999237060547,2.700000047683716,-7.050000190734863,40.025367736816406,0,
 185158,-0.078125,-0.950439453125,-0.264892578125,-0.060975611209869385,0.3353658616542816,0.060975611209869385,18.299999237060547,3.9000000953674316,-6.0,40.16913604736328,0,
 185168,-0.082763671875,-0.9462890625,-0.266845703125,-0.396341472864151,0.5182926654815674,0.27439025044441223,17.100000381469727,3.9000000953674316,-7.050000190734863,40.07329177856445,0,
 185178,-0.077392578125,-0.945556640625,-0.26416015625,-0.3658536672592163,0.27439025044441223,0.5487805008888245,17.100000381469727,3.9000000953674316,-7.050000190734863,40.16913604736328,0,
 185188,-0.077392578125,-0.949462890625,-0.259521484375,-0.4268292784690857,0.18292683362960815,0.21341463923454285,17.850000381469727,4.349999904632568,-7.050000190734863,40.07329177856445,0,
 185198,-0.078857421875,-0.942626953125,-0.2646484375,-0.6707317233085632,0.3658536672592163,0.5792682766914368,17.700000762939453,3.75,-4.949999809265137,40.07329177856445,0,
 185208,-0.08056640625,-0.94140625,-0.26123046875,-0.8231707215309143,0.3658536672592163,0.6707317233085632,18.299999237060547,3.1500000953674316,-7.050000190734863,40.3608283996582,0,
 185218,-0.078857421875,-0.94091796875,-0.259765625,-0.9451219439506531,0.5182926654815674,0.396341472864151,18.299999237060547,3.1500000953674316,-7.050000190734863,39.83367919921875,0,
 185228,-0.076171875,-0.941650390625,-0.262451171875,-1.2804877758026123,0.15243902802467346,0.5182926654815674,18.0,3.299999952316284,-5.400000095367432,40.025367736816406,0,
 185238,-0.077880859375,-0.94677734375,-0.26171875,-0.9146341681480408,0.4268292784690857,0.4878048896789551,16.950000762939453,4.050000190734863,-6.449999809265137,40.07329177856445,0,
 185248,-0.079833984375,-0.94384765625,-0.26953125,-1.4634146690368652,0.5487805008888245,0.060975611209869385,17.100000381469727,3.450000047683716,-7.050000190734863,40.21706008911133,0,
 185258,-0.08203125,-0.943603515625,-0.26708984375,-0.9451219439506531,0.18292683362960815,0.3353658616542816,17.100000381469727,3.450000047683716,-7.050000190734863,40.264984130859375,0,
 185268,-0.07763671875,-0.94482421875,-0.2705078125,-0.8841463327407837,0.27439025044441223,0.3353658616542816,17.100000381469727,3.450000047683716,-6.0,39.83367919921875,0,
 185278,-0.074462890625,-0.949462890625,-0.268310546875,-0.3658536672592163,0.18292683362960815,0.27439025044441223,17.850000381469727,3.1500000953674316,-5.550000190734863,40.40875244140625,0,
 185288,-0.076416015625,-0.9453125,-0.2666015625,-0.6707317233085632,0.3658536672592163,0.5792682766914368,17.549999237060547,2.700000047683716,-6.300000190734863,40.16913604736328,0,
 185298,-0.083740234375,-0.947509765625,-0.261474609375,-0.396341472864151,0.060975611209869385,0.3658536672592163,17.549999237060547,2.700000047683716,-6.300000190734863,40.16913604736328,0,
 185308,-0.07568359375,-0.948974609375,-0.265380859375,0.060975611209869385,0.15243902802467346,0.792682945728302,18.0,4.050000190734863,-6.300000190734863,39.88159942626953,0,
 185318,-0.08544921875,-0.941162109375,-0.260986328125,-0.3048780560493469,0.4268292784690857,0.3353658616542816,17.549999237060547,5.099999904632568,-4.800000190734863,39.88159942626953,0,
 185328,-0.0810546875,-0.939697265625,-0.26220703125,-0.3658536672592163,0.6097561120986938,0.3658536672592163,18.299999237060547,3.450000047683716,-6.0,40.16913604736328,0,
 185338,-0.0771484375,-0.94921875,-0.263427734375,-0.6707317233085632,0.4268292784690857,0.060975611209869385,18.299999237060547,4.650000095367432,-4.800000190734863,40.16913604736328,0,
 185348,-0.08251953125,-0.9462890625,-0.265380859375,-0.6707317233085632,0.396341472864151,0.15243902802467346,18.299999237060547,4.650000095367432,-4.800000190734863,40.16913604736328,0,
 185358,-0.084716796875,-0.9453125,-0.265380859375,-0.4573170840740204,0.7621951103210449,0.18292683362960815,18.600000381469727,3.1500000953674316,-4.800000190734863,40.07329177856445,0,
 185368,-0.079833984375,-0.94873046875,-0.26171875,-0.3353658616542816,0.18292683362960815,0.09146341681480408,17.25,4.5,-4.949999809265137,39.689910888671875,0,
 185378,-0.07861328125,-0.94580078125,-0.267822265625,-0.12195122241973877,0.4878048896789551,0.18292683362960815,16.950000762939453,3.299999952316284,-6.449999809265137,40.21706008911133,0,
 185388,-0.077880859375,-0.94677734375,-0.26904296875,-0.15243902802467346,0.4268292784690857,0.21341463923454285,16.950000762939453,3.299999952316284,-6.449999809265137,40.07329177856445,0,
 185398,-0.07958984375,-0.94580078125,-0.26806640625,-0.24390244483947754,0.396341472864151,0.3048780560493469,17.100000381469727,4.650000095367432,-5.25,40.3608283996582,0,
 185408,-0.0771484375,-0.943359375,-0.2646484375,-0.396341472864151,0.15243902802467346,0.4268292784690857,18.299999237060547,4.349999904632568,-8.25,40.21706008911133,0,
 185418,-0.0810546875,-0.945068359375,-0.26318359375,-0.12195122241973877,0.3353658616542816,0.24390244483947754,18.0,4.5,-6.150000095367432,39.977447509765625,0,
 185428,-0.0810546875,-0.943603515625,-0.261474609375,-0.3048780560493469,0.3353658616542816,0.18292683362960815,18.0,4.5,-6.150000095367432,40.16913604736328,0,
 185438,-0.08154296875,-0.943359375,-0.261962890625,-0.27439025044441223,0.3353658616542816,0.27439025044441223,19.799999237060547,4.650000095367432,-6.300000190734863,39.977447509765625,0,
 185448,-0.081787109375,-0.942626953125,-0.26220703125,-0.21341463923454285,0.7317073345184326,0.0,18.0,3.75,-6.150000095367432,40.21706008911133,0,
 185458,-0.083740234375,-0.946533203125,-0.265869140625,-1.097561001777649,0.6402438879013062,0.27439025044441223,16.200000762939453,1.350000023841858,-6.900000095367432,40.07329177856445,0,
 185468,-0.07421875,-0.947021484375,-0.260009765625,-0.9756097793579102,0.8841463327407837,0.060975611209869385,16.200000762939453,1.350000023841858,-6.900000095367432,39.977447509765625,0,
 185478,-0.07666015625,-0.940673828125,-0.2626953125,-1.0060975551605225,0.6707317233085632,0.060975611209869385,19.950000762939453,4.949999809265137,-6.150000095367432,40.025367736816406,0,
 185488,-0.083984375,-0.947265625,-0.265625,-0.9146341681480408,0.4573170840740204,0.24390244483947754,17.25,3.75,-5.400000095367432,40.07329177856445,0,
 185498,-0.078369140625,-0.94140625,-0.26611328125,-0.7012194991111755,0.4878048896789551,0.27439025044441223,17.549999237060547,3.450000047683716,-6.75,39.977447509765625,0,
 185508,-0.076171875,-0.943359375,-0.269287109375,-0.7317073345184326,0.396341472864151,0.12195122241973877,18.899999618530273,6.900000095367432,-5.400000095367432,40.21706008911133,0,
 185518,-0.07470703125,-0.94580078125,-0.26123046875,-0.4268292784690857,0.3658536672592163,-0.15243902802467346,18.899999618530273,6.900000095367432,-5.400000095367432,39.689910888671875,0,
 185528,-0.07470703125,-0.943359375,-0.263916015625,-0.3658536672592163,0.3658536672592163,0.18292683362960815,17.25,3.299999952316284,-4.199999809265137,39.88159942626953,0,
 185538,-0.082275390625,-0.94384765625,-0.264892578125,-0.4573170840740204,0.12195122241973877,0.27439025044441223,17.850000381469727,3.1500000953674316,-4.5,40.07329177856445,0,
 185548,-0.076416015625,-0.94140625,-0.26220703125,-0.6097561120986938,0.030487805604934692,0.3658536672592163,17.100000381469727,3.1500000953674316,-6.0,40.07329177856445,0,
 185558,-0.078857421875,-0.943359375,-0.262451171875,-0.5792682766914368,0.5182926654815674,0.3048780560493469,17.100000381469727,3.1500000953674316,-6.0,40.16913604736328,0,
 185568,-0.08056640625,-0.942138671875,-0.260986328125,-0.4573170840740204,0.09146341681480408,0.3353658616542816,17.850000381469727,5.099999904632568,-7.050000190734863,40.07329177856445,0,
 185578,-0.081787109375,-0.950439453125,-0.264404296875,-0.6707317233085632,0.3048780560493469,0.3048780560493469,16.350000381469727,4.650000095367432,-5.550000190734863,40.16913604736328,0,
 185598,-0.0791015625,-0.950439453125,-0.26318359375,-0.8536585569381714,0.3658536672592163,0.3658536672592163,18.450000762939453,3.75,-6.449999809265137,40.025367736816406,0,
 185608,-0.078369140625,-0.941650390625,-0.267822265625,-0.3048780560493469,0.060975611209869385,0.27439025044441223,16.950000762939453,2.8499999046325684,-5.699999809265137,39.737831115722656,0,
 185618,-0.080810546875,-0.948974609375,-0.269287109375,-0.4268292784690857,0.4268292784690857,0.5792682766914368,16.5,2.0999999046325684,-7.199999809265137,40.07329177856445,0,
 185628,-0.075927734375,-0.946044921875,-0.266357421875,-0.5182926654815674,0.6707317233085632,0.6707317233085632,17.549999237060547,4.650000095367432,-5.25,40.16913604736328,0,
 185638,-0.076904296875,-0.951416015625,-0.264892578125,-0.5792682766914368,0.3353658616542816,0.7317073345184326,17.700000762939453,4.949999809265137,-4.650000095367432,40.16913604736328,0,
 185648,-0.082763671875,-0.9423828125,-0.26611328125,-0.6707317233085632,0.4878048896789551,0.6707317233085632,18.0,3.299999952316284,-6.150000095367432,40.07329177856445,0,
 185658,-0.081298828125,-0.949462890625,-0.2626953125,-0.396341472864151,0.4268292784690857,0.4268292784690857,19.049999237060547,3.450000047683716,-3.75,39.977447509765625,0,
 185668,-0.0791015625,-0.947998046875,-0.264892578125,-0.3658536672592163,0.396341472864151,0.12195122241973877,16.950000762939453,2.549999952316284,-6.900000095367432,40.025367736816406,0,
 185678,-0.07763671875,-0.937744140625,-0.260498046875,-0.7317073345184326,0.27439025044441223,-0.060975611209869385,18.299999237060547,5.099999904632568,-4.800000190734863,39.977447509765625,0,
 185688,-0.08251953125,-0.94384765625,-0.2666015625,-0.9146341681480408,0.3353658616542816,0.0,18.299999237060547,5.099999904632568,-4.800000190734863,40.07329177856445,0,
 185698,-0.073974609375,-0.943359375,-0.267578125,-0.4268292784690857,0.4268292784690857,0.09146341681480408,17.25,3.299999952316284,-6.150000095367432,40.264984130859375,0,
 185708,-0.08154296875,-0.94775390625,-0.263671875,-0.6707317233085632,0.5182926654815674,0.18292683362960815,19.049999237060547,4.650000095367432,-6.300000190734863,39.83367919921875,0,
 185718,-0.08056640625,-0.94482421875,-0.263916015625,-0.27439025044441223,0.5487805008888245,0.24390244483947754,20.399999618530273,1.649999976158142,-9.149999618530273,40.07329177856445,0,
 185728,-0.081787109375,-0.94775390625,-0.26708984375,-0.396341472864151,0.24390244483947754,0.5487805008888245,20.399999618530273,1.649999976158142,-9.149999618530273,40.264984130859375,0,
 185738,-0.076904296875,-0.939208984375,-0.263916015625,-0.3658536672592163,0.4268292784690857,0.3658536672592163,17.850000381469727,4.349999904632568,-5.550000190734863,39.88159942626953,0,
 185748,-0.075439453125,-0.947509765625,-0.268310546875,-0.3048780560493469,0.27439025044441223,0.3048780560493469,17.25,3.299999952316284,-6.150000095367432,40.21706008911133,0,
 185759,-0.080810546875,-0.941650390625,-0.2646484375,-0.5487805008888245,0.3048780560493469,0.21341463923454285,17.100000381469727,5.099999904632568,-7.5,39.977447509765625,0,
 185769,-0.08349609375,-0.94677734375,-0.265380859375,-0.5487805008888245,0.21341463923454285,0.27439025044441223,17.100000381469727,5.099999904632568,-7.5,40.21706008911133,0,
 185779,-0.08056640625,-0.945556640625,-0.265869140625,-0.6097561120986938,0.4573170840740204,0.6707317233085632,18.450000762939453,3.299999952316284,-5.400000095367432,40.07329177856445,0,
 185789,-0.08740234375,-0.944091796875,-0.261474609375,-0.5487805008888245,0.24390244483947754,0.24390244483947754,18.450000762939453,4.5,-6.449999809265137,40.07329177856445,0,
 185799,-0.0771484375,-0.944580078125,-0.26513671875,-0.792682945728302,0.030487805604934692,0.0,18.0,4.050000190734863,-5.400000095367432,40.264984130859375,0,
 185809,-0.07568359375,-0.94580078125,-0.268798828125,-0.6402438879013062,0.21341463923454285,0.27439025044441223,17.100000381469727,3.9000000953674316,-6.0,39.977447509765625,0,
 185819,-0.08056640625,-0.94580078125,-0.263427734375,-0.8841463327407837,0.4878048896789551,0.18292683362960815,19.350000381469727,4.349999904632568,-7.800000190734863,40.3608283996582,0,
 185829,-0.07763671875,-0.94287109375,-0.262451171875,-0.7012194991111755,0.5487805008888245,0.21341463923454285,16.799999237060547,3.9000000953674316,-6.75,40.21706008911133,0,
 185839,-0.08251953125,-0.944091796875,-0.2685546875,-0.6402438879013062,0.5792682766914368,0.3048780560493469,18.0,4.050000190734863,-5.699999809265137,40.025367736816406,0,
 185849,-0.07421875,-0.94580078125,-0.265380859375,-1.1280487775802612,0.7621951103210449,-0.060975611209869385,17.850000381469727,2.700000047683716,-6.75,40.21706008911133,0,
 185859,-0.08154296875,-0.947998046875,-0.264404296875,-0.9146341681480408,0.6402438879013062,0.5182926654815674,17.850000381469727,2.700000047683716,-6.75,39.88159942626953,0,
 185869,-0.0751953125,-0.943603515625,-0.263916015625,-0.6402438879013062,0.5487805008888245,0.4573170840740204,18.299999237060547,2.700000047683716,-4.800000190734863,40.025367736816406,0,
 185879,-0.075439453125,-0.943115234375,-0.268310546875,-0.18292683362960815,0.27439025044441223,0.5792682766914368,18.0,3.75,-6.900000095367432,40.16913604736328,0,
 185889,-0.082763671875,-0.9443359375,-0.26953125,0.09146341681480408,0.12195122241973877,0.6402438879013062,17.25,3.299999952316284,-6.900000095367432,39.977447509765625,0,
 185899,-0.07958984375,-0.94482421875,-0.2607421875,0.060975611209869385,0.060975611209869385,0.5792682766914368,17.25,3.299999952316284,-6.900000095367432,40.025367736816406,0,
 185909,-0.07861328125,-0.949951171875,-0.26171875,-0.12195122241973877,0.27439025044441223,0.5792682766914368,17.100000381469727,4.650000095367432,-6.75,40.025367736816406,0,
 185919,-0.08251953125,-0.9443359375,-0.267578125,-0.3658536672592163,0.396341472864151,0.8231707215309143,16.799999237060547,4.650000095367432,-7.5,40.025367736816406,0,
 185929,-0.079833984375,-0.943115234375,-0.260498046875,-1.0365853309631348,0.396341472864151,0.3048780560493469,16.5,3.299999952316284,-4.949999809265137,40.07329177856445,0,
 185939,-0.07861328125,-0.94580078125,-0.2646484375,-0.792682945728302,0.5182926654815674,0.7012194991111755,16.5,3.299999952316284,-4.949999809265137,40.07329177856445,0,
 185949,-0.079833984375,-0.947265625,-0.266845703125,-0.8841463327407837,0.4573170840740204,0.5487805008888245,17.100000381469727,3.450000047683716,-5.550000190734863,40.21706008911133,0,
 185959,-0.08349609375,-0.9443359375,-0.266357421875,-0.7621951103210449,0.12195122241973877,0.3658536672592163,17.700000762939453,3.299999952316284,-6.449999809265137,39.88159942626953,0,
 185969,-0.08251953125,-0.948486328125,-0.259521484375,-0.8841463327407837,0.27439025044441223,0.21341463923454285,16.799999237060547,6.300000190734863,-5.25,40.21706008911133,0,
 185979,-0.07861328125,-0.939208984375,-0.267578125,-0.8231707215309143,0.27439025044441223,0.7621951103210449,17.850000381469727,4.650000095367432,-6.300000190734863,40.16913604736328,0,
 185989,-0.078369140625,-0.939208984375,-0.265625,-0.6402438879013062,-0.09146341681480408,0.396341472864151,17.850000381469727,3.450000047683716,-5.25,39.977447509765625,0,
 185999,-0.079345703125,-0.9462890625,-0.263671875,-0.8536585569381714,0.5182926654815674,0.21341463923454285,16.5,3.299999952316284,-5.400000095367432,40.16913604736328,0,
 186009,-0.0830078125,-0.9384765625,-0.263671875,-0.9146341681480408,0.27439025044441223,0.5487805008888245,16.350000381469727,4.349999904632568,-5.550000190734863,39.977447509765625,0,
 186019,-0.0751953125,-0.945556640625,-0.265869140625,-0.6402438879013062,0.4268292784690857,0.060975611209869385,17.25,4.050000190734863,-5.699999809265137,40.07329177856445,0,
 187180,-0.0771484375,-0.942626953125,-0.263427734375,-0.7012194991111755,0.030487805604934692,0.3048780560493469,16.799999237060547,3.9000000953674316,-7.5,39.64198684692383,0,
 187190,-0.079833984375,-0.9423828125,-0.259521484375,-0.8231707215309143,0.15243902802467346,0.7621951103210449,17.850000381469727,3.450000047683716,-6.0,40.025367736816406,0,
 187200,-0.077392578125,-0.946533203125,-0.264404296875,-1.1585365533828735,0.060975611209869385,0.5487805008888245,17.100000381469727,3.9000000953674316,-6.300000190734863,40.16913604736328,0,
 187210,-0.082763671875,-0.949951171875,-0.26025390625,-1.3414634466171265,-0.27439025044441223,0.24390244483947754,17.850000381469727,3.450000047683716,-7.050000190734863,39.83367919921875,0,
 187220,-0.082275390625,-0.945556640625,-0.265625,-1.2195122241973877,-0.15243902802467346,0.3353658616542816,17.850000381469727,3.450000047683716,-7.050000190734863,40.16913604736328,0,
 187230,-0.0771484375,-0.94775390625,-0.260498046875,-1.6158536672592163,0.15243902802467346,0.3353658616542816,18.450000762939453,3.299999952316284,-6.150000095367432,40.025367736816406,0,
 187240,-0.075439453125,-0.944580078125,-0.273193359375,-2.4390244483947754,0.12195122241973877,0.5182926654815674,18.299999237060547,3.9000000953674316,-6.300000190734863,40.07329177856445,0,
 187250,-0.0810546875,-0.939697265625,-0.268798828125,-1.8597561120986938,0.21341463923454285,0.7621951103210449,18.299999237060547,4.349999904632568,-8.550000190734863,40.07329177856445,0,
 187260,-0.078125,-0.941162109375,-0.2705078125,-1.4939024448394775,0.24390244483947754,0.4573170840740204,18.299999237060547,4.349999904632568,-8.550000190734863,40.07329177856445,0,
 187270,-0.075927734375,-0.9443359375,-0.27294921875,-0.8536585569381714,-0.15243902802467346,0.6707317233085632,18.0,3.75,-5.699999809265137,40.21706008911133,0,
 187280,-0.0732421875,-0.943115234375,-0.268310546875,-0.3048780560493469,-0.27439025044441223,0.6402438879013062,16.350000381469727,3.9000000953674316,-5.550000190734863,39.83367919921875,0,
 187290,-0.077392578125,-0.9423828125,-0.273681640625,0.4878048896789551,-0.4573170840740204,0.792682945728302,18.899999618530273,4.050000190734863,-6.449999809265137,40.16913604736328,0,
 187300,-0.076904296875,-0.9453125,-0.271728515625,1.0060975551605225,-0.5182926654815674,1.1890244483947754,18.899999618530273,4.050000190734863,-6.449999809265137,40.16913604736328,0,
 187310,-0.081787109375,-0.943359375,-0.267578125,0.9146341681480408,-0.5487805008888245,1.0670732259750366,19.049999237060547,3.9000000953674316,-6.300000190734863,40.07329177856445,0,
 187320,-0.08203125,-0.94287109375,-0.26220703125,1.3414634466171265,-0.7012194991111755,0.7012194991111755,16.5,3.75,-5.400000095367432,40.21706008911133,0,
 187330,-0.07470703125,-0.946533203125,-0.263427734375,1.3109756708145142,-0.5792682766914368,0.15243902802467346,16.799999237060547,3.9000000953674316,-6.300000190734863,40.025367736816406,0,
 187340,-0.0791015625,-0.95263671875,-0.26025390625,1.0365853309631348,-0.4573170840740204,0.060975611209869385,16.799999237060547,3.1500000953674316,-6.75,40.025367736816406,0,
 187350,-0.080078125,-0.955078125,-0.25634765625,0.3048780560493469,-0.4573170840740204,-0.030487805604934692,17.850000381469727,2.25,-6.300000190734863,40.21706008911133,0,
 187360,-0.084716796875,-0.95458984375,-0.258544921875,-0.4878048896789551,0.0,0.396341472864151,17.549999237060547,2.700000047683716,-6.0,40.21706008911133,0,
 187370,-0.08154296875,-0.94970703125,-0.257080078125,-1.3719512224197388,0.24390244483947754,0.4878048896789551,18.299999237060547,4.349999904632568,-7.5,40.16913604736328,0,
 187380,-0.080322265625,-0.953125,-0.259033203125,-1.920731782913208,0.4268292784690857,0.5487805008888245,18.450000762939453,3.75,-5.400000095367432,39.88159942626953,0,
 187391,-0.08544921875,-0.94287109375,-0.263671875,-2.591463565826416,0.4268292784690857,0.9756097793579102,18.450000762939453,3.75,-5.400000095367432,40.16913604736328,0,
 187401,-0.082275390625,-0.93603515625,-0.26806640625,-2.682926893234253,0.4878048896789551,0.3353658616542816,17.549999237060547,3.9000000953674316,-6.0,39.88159942626953,0,
 187411,-0.079345703125,-0.938720703125,-0.26806640625,-2.5,0.4268292784690857,0.396341472864151,17.549999237060547,3.9000000953674316,-6.0,39.977447509765625,0,
 187421,-0.080810546875,-0.938720703125,-0.269775390625,-2.103658676147461,0.3048780560493469,-0.09146341681480408,16.5,4.949999809265137,-6.150000095367432,40.07329177856445,0,
 187431,-0.082763671875,-0.940673828125,-0.271484375,-0.5487805008888245,0.27439025044441223,-0.18292683362960815,16.5,4.949999809265137,-6.150000095367432,40.07329177856445,0,
 187441,-0.083251953125,-0.9453125,-0.26904296875,-0.9756097793579102,0.030487805604934692,-0.15243902802467346,19.200000762939453,3.75,-6.449999809265137,40.025367736816406,0,
 187451,-0.07958984375,-0.94921875,-0.2666015625,-0.9756097793579102,-0.030487805604934692,0.09146341681480408,17.700000762939453,2.0999999046325684,-5.400000095367432,40.21706008911133,0,
 187461,-0.081787109375,-0.949462890625,-0.263916015625,-0.7317073345184326,0.27439025044441223,0.060975611209869385,19.200000762939453,3.299999952316284,-8.399999618530273,40.025367736816406,0,
 187471,-0.079345703125,-0.94677734375,-0.2666015625,-0.7317073345184326,0.5792682766914368,0.5792682766914368,19.200000762939453,3.299999952316284,-8.399999618530273,39.977447509765625,0,
 187481,-0.079833984375,-0.94384765625,-0.265625,-0.5182926654815674,0.5792682766914368,0.5182926654815674,17.25,4.5,-6.449999809265137,40.025367736816406,0,
 187491,-0.081787109375,-0.9384765625,-0.265625,-0.6402438879013062,0.8231707215309143,0.792682945728302,17.700000762939453,2.8499999046325684,-5.400000095367432,40.025367736816406,0,
 187501,-0.08349609375,-0.94384765625,-0.263916015625,-0.6402438879013062,0.5487805008888245,0.27439025044441223,18.450000762939453,3.299999952316284,-6.449999809265137,40.3608283996582,0,
 187511,-0.077392578125,-0.94287109375,-0.2666015625,-0.18292683362960815,0.15243902802467346,0.24390244483947754,18.0,4.5,-4.650000095367432,39.977447509765625,0,
 187521,-0.074951171875,-0.934814453125,-0.275634765625,0.27439025044441223,0.18292683362960815,0.15243902802467346,16.350000381469727,3.1500000953674316,-5.550000190734863,39.977447509765625,0,
 187531,-0.079345703125,-0.936279296875,-0.270263671875,1.0365853309631348,0.21341463923454285,0.27439025044441223,18.299999237060547,4.349999904632568,-5.25,40.07329177856445,0,
 187541,-0.080810546875,-0.94189453125,-0.26806640625,1.5243902206420898,0.15243902802467346,0.15243902802467346,18.0,4.949999809265137,-5.699999809265137,39.977447509765625,0,
 187551,-0.080322265625,-0.943359375,-0.267333984375,1.5243902206420898,-0.12195122241973877,0.24390244483947754,17.850000381469727,5.099999904632568,-6.300000190734863,40.21706008911133,0,
 187561,-0.083984375,-0.951171875,-0.26171875,1.4634146690368652,0.27439025044441223,0.09146341681480408,17.850000381469727,5.099999904632568,-6.300000190734863,39.977447509765625,0,
 187571,-0.079345703125,-0.949462890625,-0.26416015625,1.432926893234253,0.396341472864151,0.4573170840740204,18.450000762939453,5.25,-6.449999809265137,39.737831115722656,0,
 187581,-0.07763671875,-0.951171875,-0.26025390625,0.9451219439506531,0.3353658616542816,0.4268292784690857,18.450000762939453,3.299999952316284,-5.699999809265137,40.21706008911133,0,
 187591,-0.07421875,-0.951171875,-0.259765625,0.4573170840740204,0.0,0.9146341681480408,16.5,5.25,-6.449999809265137,39.977447509765625,0,
 187601,-0.08203125,-0.951171875,-0.26318359375,-0.060975611209869385,0.24390244483947754,0.7621951103210449,16.5,5.25,-6.449999809265137,39.977447509765625,0,
 187611,-0.080322265625,-0.948486328125,-0.262939453125,-0.24390244483947754,0.4573170840740204,1.097561001777649,17.25,4.050000190734863,-6.150000095367432,40.025367736816406,0,
 187621,-0.076171875,-0.942138671875,-0.257080078125,-0.792682945728302,0.4573170840740204,0.8231707215309143,17.700000762939453,4.5,-6.900000095367432,40.025367736816406,0,
 187631,-0.07763671875,-0.946044921875,-0.2607421875,-0.9146341681480408,0.4573170840740204,0.5487805008888245,18.0,4.050000190734863,-5.400000095367432,39.88159942626953,0,
 187641,-0.0859375,-0.950927734375,-0.260009765625,-1.4634146690368652,0.3353658616542816,0.3353658616542816,18.0,4.050000190734863,-5.400000095367432,40.21706008911133,0,
 187651,-0.08056640625,-0.94677734375,-0.260986328125,-1.737804889678955,0.5792682766914368,0.060975611209869385,17.549999237060547,3.9000000953674316,-6.75,40.07329177856445,0,
 187661,-0.078369140625,-0.949462890625,-0.261474609375,-1.9817073345184326,0.6402438879013062,0.09146341681480408,18.899999618530273,6.449999809265137,-7.650000095367432,40.16913604736328,0,
 187671,-0.078857421875,-0.9453125,-0.26220703125,-2.2865853309631348,0.4878048896789551,-0.060975611209869385,16.950000762939453,2.8499999046325684,-6.449999809265137,40.025367736816406,0,
 187681,-0.078369140625,-0.95263671875,-0.26513671875,-2.378048896789551,0.7621951103210449,0.3658536672592163,17.700000762939453,5.25,-4.650000095367432,40.07329177856445,0,
 187691,-0.078125,-0.943115234375,-0.26513671875,-2.408536672592163,0.792682945728302,0.5182926654815674,17.850000381469727,4.650000095367432,-6.0,40.07329177856445,0,
 187701,-0.087158203125,-0.945068359375,-0.271484375,-2.012195110321045,0.7621951103210449,0.6097561120986938,18.0,4.050000190734863,-6.449999809265137,40.40875244140625,0,
 187711,-0.081787109375,-0.9384765625,-0.27001953125,-1.7682926654815674,0.9451219439506531,0.24390244483947754,17.700000762939453,5.25,-6.449999809265137,40.07329177856445,0,
 187721,-0.074462890625,-0.93994140625,-0.264404296875,-1.1585365533828735,0.9146341681480408,0.7317073345184326,17.100000381469727,4.349999904632568,-5.25,39.737831115722656,0,
 187731,-0.073486328125,-0.9375,-0.2685546875,-0.7621951103210449,0.6402438879013062,0.5487805008888245,17.100000381469727,4.349999904632568,-5.25,40.3608283996582,0,
 187741,-0.082763671875,-0.94189453125,-0.270263671875,-0.3048780560493469,0.7012194991111755,0.6097561120986938,18.450000762939453,3.75,-4.949999809265137,40.264984130859375,0,
 187751,-0.08154296875,-0.933837890625,-0.275390625,-0.12195122241973877,0.5487805008888245,0.5487805008888245,17.25,3.299999952316284,-6.449999809265137,40.07329177856445,0,
 187761,-0.074951171875,-0.94140625,-0.27001953125,0.8231707215309143,0.7012194991111755,0.12195122241973877,16.799999237060547,5.849999904632568,-5.550000190734863,40.16913604736328,0,
 187771,-0.084716796875,-0.939453125,-0.2705078125,1.432926893234253,0.792682945728302,0.15243902802467346,16.799999237060547,5.849999904632568,-5.550000190734863,39.88159942626953,0,
 187781,-0.08203125,-0.942138671875,-0.267578125,1.7987805604934692,0.5792682766914368,-0.3353658616542816,18.450000762939453,4.050000190734863,-5.400000095367432,40.07329177856445,0,
 187791,-0.078857421875,-0.95166015625,-0.267333984375,1.6463414430618286,0.6097561120986938,-0.21341463923454285,17.549999237060547,4.349999904632568,-6.75,40.07329177856445,0,
 187801,-0.07421875,-0.947998046875,-0.2685546875,1.3414634466171265,0.5792682766914368,-0.3353658616542816,17.700000762939453,3.299999952316284,-5.400000095367432,40.07329177856445,0,
 187811,-0.084716796875,-0.952880859375,-0.258056640625,0.5792682766914368,0.5487805008888245,-0.18292683362960815,17.700000762939453,3.299999952316284,-5.400000095367432,40.21706008911133,0,
 187821,-0.078369140625,-0.955322265625,-0.260986328125,-0.030487805604934692,0.8231707215309143,0.09146341681480408,17.549999237060547,3.9000000953674316,-5.25,39.88159942626953,0,
 187831,-0.07275390625,-0.951416015625,-0.2646484375,-0.3353658616542816,0.9146341681480408,0.060975611209869385,17.700000762939453,5.25,-6.449999809265137,40.025367736816406,0,
 187841,-0.08056640625,-0.950439453125,-0.2646484375,-1.0365853309631348,1.097561001777649,0.27439025044441223,18.299999237060547,5.400000095367432,-5.550000190734863,40.07329177856445,0,
 187851,-0.086181640625,-0.9501953125,-0.260986328125,-2.012195110321045,1.1585365533828735,0.5487805008888245,18.299999237060547,2.700000047683716,-6.75,40.21706008911133,0,
 187861,-0.081298828125,-0.94287109375,-0.265869140625,-2.2865853309631348,0.9146341681480408,0.3353658616542816,18.299999237060547,2.700000047683716,-6.75,39.977447509765625,0,
 187871,-0.076904296875,-0.94677734375,-0.263671875,-2.2865853309631348,0.9451219439506531,0.3353658616542816,18.0,3.299999952316284,-8.699999809265137,39.977447509765625,0,
 187881,-0.0751953125,-0.93994140625,-0.26220703125,-2.3475611209869385,0.8536585569381714,-0.09146341681480408,16.950000762939453,3.75,-5.699999809265137,40.3608283996582,0,
 187891,-0.07763671875,-0.941162109375,-0.269287109375,-1.6768293380737305,0.7012194991111755,-0.4573170840740204,17.549999237060547,4.349999904632568,-6.300000190734863,40.025367736816406,0,
 187901,-0.079345703125,-0.939453125,-0.2724609375,-1.7073171138763428,0.5182926654815674,-0.5487805008888245,17.549999237060547,4.349999904632568,-6.300000190734863,39.977447509765625,0,
 187911,-0.079345703125,-0.9453125,-0.267333984375,-1.4634146690368652,0.24390244483947754,-0.3048780560493469,18.600000381469727,2.25,-6.0,40.07329177856445,0,
 187921,-0.08544921875,-0.93896484375,-0.26708984375,-1.097561001777649,0.5182926654815674,-0.4268292784690857,16.350000381469727,3.450000047683716,-5.25,40.16913604736328,0,
 187931,-0.0751953125,-0.943359375,-0.26171875,-1.1585365533828735,0.21341463923454285,-0.792682945728302,18.450000762939453,3.299999952316284,-6.900000095367432,40.264984130859375,0,
 187941,-0.08544921875,-0.949951171875,-0.265625,-1.6768293380737305,0.792682945728302,-0.18292683362960815,18.450000762939453,3.299999952316284,-6.900000095367432,40.07329177856445,0,
 187951,-0.074462890625,-0.9453125,-0.2646484375,-1.25,0.8841463327407837,0.0,17.549999237060547,5.099999904632568,-5.25,40.07329177856445,0,
 187961,-0.078857421875,-0.951171875,-0.26025390625,-1.737804889678955,0.5792682766914368,-0.27439025044441223,17.700000762939453,4.050000190734863,-7.949999809265137,40.07329177856445,0,
 187971,-0.079345703125,-0.94140625,-0.26708984375,-1.6463414430618286,0.7317073345184326,0.15243902802467346,17.850000381469727,3.1500000953674316,-7.5,39.977447509765625,0,
 187981,-0.075927734375,-0.947021484375,-0.270263671875,-1.5548781156539917,0.4268292784690857,0.396341472864151,17.850000381469727,3.1500000953674316,-7.5,39.977447509765625,0,
 187991,-0.080810546875,-0.942138671875,-0.27001953125,-1.5243902206420898,0.7317073345184326,0.5182926654815674,18.0,4.949999809265137,-5.699999809265137,40.025367736816406,0,
 188001,-0.078369140625,-0.93994140625,-0.272705078125,-1.0365853309631348,0.4878048896789551,0.3658536672592163,18.0,5.699999809265137,-4.650000095367432,40.21706008911133,0,
 188011,-0.072998046875,-0.94384765625,-0.272705078125,-0.8231707215309143,0.5487805008888245,0.6402438879013062,17.850000381469727,4.349999904632568,-5.25,39.88159942626953,0,
 188021,-0.077392578125,-0.946044921875,-0.267822265625,-0.8231707215309143,0.3353658616542816,0.6097561120986938,17.549999237060547,3.9000000953674316,-6.0,40.07329177856445,0,
 188031,-0.080078125,-0.947998046875,-0.265869140625,-1.3414634466171265,0.3658536672592163,0.3048780560493469,17.549999237060547,3.9000000953674316,-6.0,40.16913604736328,0,
 188041,-0.081787109375,-0.947998046875,-0.265380859375,-1.737804889678955,0.4573170840740204,0.3048780560493469,17.700000762939453,4.949999809265137,-5.400000095367432,40.025367736816406,0,
 188051,-0.080322265625,-0.9482421875,-0.2666015625,-2.378048896789551,0.3048780560493469,0.3353658616542816,17.700000762939453,3.75,-7.199999809265137,40.21706008911133,0,
 188061,-0.080810546875,-0.9462890625,-0.26513671875,-2.896341562271118,0.6097561120986938,0.24390244483947754,17.25,3.299999952316284,-5.400000095367432,39.977447509765625,0,
 188071,-0.077880859375,-0.947998046875,-0.26611328125,-3.3841464519500732,0.6097561120986938,0.3658536672592163,17.25,3.299999952316284,-5.400000095367432,40.07329177856445,0,
 188081,-0.074951171875,-0.939453125,-0.271240234375,-3.2317073345184326,0.9451219439506531,0.396341472864151,17.549999237060547,3.450000047683716,-7.5,40.16913604736328,0,
 188091,-0.078125,-0.939453125,-0.27587890625,-2.7134146690368652,0.7621951103210449,0.15243902802467346,17.549999237060547,3.450000047683716,-6.0,39.88159942626953,0,
 188101,-0.078369140625,-0.93896484375,-0.278564453125,-2.4390244483947754,0.8231707215309143,0.15243902802467346,17.25,3.75,-4.949999809265137,39.88159942626953,0,
 188111,-0.073486328125,-0.939453125,-0.2763671875,-1.4939024448394775,0.27439025044441223,0.12195122241973877,17.25,3.75,-4.949999809265137,39.83367919921875,0,
 188121,-0.076904296875,-0.937744140625,-0.277099609375,-0.9146341681480408,0.5792682766914368,0.396341472864151,17.25,2.549999952316284,-5.699999809265137,40.16913604736328,0,
 188131,-0.075927734375,-0.937255859375,-0.27734375,0.396341472864151,0.396341472864151,0.27439025044441223,17.549999237060547,4.349999904632568,-4.5,40.16913604736328,0,
 188141,-0.0771484375,-0.93603515625,-0.27392578125,1.6768293380737305,-0.060975611209869385,0.6707317233085632,18.0,2.549999952316284,-5.699999809265137,40.264984130859375,0,
 188151,-0.07861328125,-0.933349609375,-0.272705078125,2.103658676147461,-0.15243902802467346,0.6097561120986938,18.0,2.549999952316284,-5.699999809265137,40.21706008911133,0,
 188161,-0.07470703125,-0.943359375,-0.273193359375,3.170731782913208,-0.4268292784690857,0.7317073345184326,17.100000381469727,4.650000095367432,-6.300000190734863,40.025367736816406,0,
 188171,-0.080322265625,-0.9443359375,-0.268310546875,3.5365853309631348,-0.09146341681480408,1.0060975551605225,17.25,4.050000190734863,-5.699999809265137,40.16913604736328,0,
 188181,-0.08203125,-0.94482421875,-0.2626953125,3.3841464519500732,0.09146341681480408,1.2195122241973877,18.899999618530273,1.649999976158142,-6.449999809265137,40.07329177856445,0,
 188192,-0.082763671875,-0.948974609375,-0.259033203125,2.804877996444702,0.24390244483947754,0.8231707215309143,18.899999618530273,4.949999809265137,-6.150000095367432,40.07329177856445,0,
 188202,-0.077880859375,-0.94970703125,-0.25634765625,1.8292683362960815,0.792682945728302,0.792682945728302,18.899999618530273,4.949999809265137,-6.150000095367432,40.16913604736328,0,
 188212,-0.07958984375,-0.94921875,-0.264404296875,1.432926893234253,0.9146341681480408,0.5792682766914368,17.700000762939453,4.050000190734863,-4.650000095367432,39.977447509765625,0,
 188222,-0.07958984375,-0.9453125,-0.26806640625,1.0060975551605225,0.7012194991111755,0.7621951103210449,17.850000381469727,5.099999904632568,-6.75,40.21706008911133,0,
 188232,-0.081787109375,-0.9453125,-0.26416015625,0.9451219439506531,0.7621951103210449,0.27439025044441223,18.299999237060547,3.450000047683716,-5.550000190734863,40.07329177856445,0,
 188242,-0.0771484375,-0.94873046875,-0.265625,0.6097561120986938,0.27439025044441223,0.27439025044441223,18.299999237060547,3.450000047683716,-5.550000190734863,40.16913604736328,0,
 188252,-0.078125,-0.952392578125,-0.259033203125,0.18292683362960815,0.4268292784690857,-0.09146341681480408,18.299999237060547,4.349999904632568,-6.75,40.16913604736328,0,
 188262,-0.080810546875,-0.943359375,-0.25927734375,-0.27439025044441223,0.4878048896789551,-0.15243902802467346,17.850000381469727,4.349999904632568,-6.300000190734863,40.025367736816406,0,
 188272,-0.0830078125,-0.9541015625,-0.260009765625,-1.1585365533828735,0.4878048896789551,-0.21341463923454285,16.799999237060547,3.1500000953674316,-5.550000190734863,39.977447509765625,0,
 188282,-0.07763671875,-0.9541015625,-0.261474609375,-1.920731782913208,0.27439025044441223,0.09146341681480408,16.799999237060547,3.1500000953674316,-5.550000190734863,40.07329177856445,0,
 188292,-0.080078125,-0.95166015625,-0.258544921875,-2.5304877758026123,0.5792682766914368,0.3353658616542816,19.200000762939453,3.299999952316284,-5.699999809265137,39.977447509765625,0,
 188302,-0.08349609375,-0.9462890625,-0.263671875,-3.1402440071105957,0.8841463327407837,-0.030487805604934692,17.850000381469727,4.650000095367432,-4.5,40.16913604736328,0,
 188312,-0.074462890625,-0.946044921875,-0.26806640625,-3.5975611209869385,1.0670732259750366,0.18292683362960815,17.25,3.299999952316284,-6.449999809265137,39.83367919921875,0,
 188322,-0.078125,-0.94091796875,-0.26806640625,-3.4146342277526855,0.8536585569381714,-0.060975611209869385,17.25,3.299999952316284,-6.449999809265137,40.025367736816406,0,
 188332,-0.080810546875,-0.93994140625,-0.27001953125,-3.47560977935791,0.9146341681480408,-0.12195122241973877,17.100000381469727,5.099999904632568,-5.550000190734863,40.264984130859375,0,
 188342,-0.081298828125,-0.943359375,-0.273681640625,-2.6524391174316406,0.9756097793579102,0.24390244483947754,17.549999237060547,3.1500000953674316,-6.300000190734863,39.977447509765625,0,
 188352,-0.080078125,-0.9345703125,-0.277099609375,-1.4939024448394775,0.3658536672592163,0.396341472864151,18.600000381469727,4.349999904632568,-6.75,39.88159942626953,0,
 188362,-0.076416015625,-0.935546875,-0.275390625,-0.9146341681480408,-0.030487805604934692,0.5182926654815674,17.25,2.0999999046325684,-4.949999809265137,40.025367736816406,0,
 188372,-0.0771484375,-0.94287109375,-0.272216796875,-0.6707317233085632,0.09146341681480408,0.3353658616542816,17.25,2.0999999046325684,-4.949999809265137,40.16913604736328,0,
 188382,-0.0859375,-0.9375,-0.27001953125,-0.12195122241973877,0.24390244483947754,0.21341463923454285,19.350000381469727,2.700000047683716,-11.25,40.16913604736328,0,
 188392,-0.07958984375,-0.939697265625,-0.2734375,0.3048780560493469,0.3353658616542816,0.15243902802467346,18.299999237060547,3.450000047683716,-7.050000190734863,40.025367736816406,0,
 188402,-0.08251953125,-0.946533203125,-0.26513671875,0.18292683362960815,0.27439025044441223,0.5487805008888245,18.299999237060547,3.9000000953674316,-5.25,39.977447509765625,0,
 188412,-0.077392578125,-0.942138671875,-0.2685546875,0.6402438879013062,0.3658536672592163,0.396341472864151,18.299999237060547,3.9000000953674316,-5.25,40.025367736816406,0,
 188422,-0.07958984375,-0.946044921875,-0.26513671875,0.8841463327407837,0.12195122241973877,0.5182926654815674,18.600000381469727,3.450000047683716,-6.75,39.977447509765625,0,
 188432,-0.0771484375,-0.94140625,-0.273681640625,0.9451219439506531,0.15243902802467346,0.3048780560493469,18.0,3.75,-4.949999809265137,39.977447509765625,0,
 188442,-0.08447265625,-0.940185546875,-0.267578125,1.0670732259750366,0.3353658616542816,0.3048780560493469,18.450000762939453,3.75,-5.699999809265137,40.16913604736328,0,
 188452,-0.082275390625,-0.93994140625,-0.269287109375,0.8841463327407837,0.09146341681480408,0.09146341681480408,18.450000762939453,3.75,-5.699999809265137,40.025367736816406,0,
 188462,-0.080810546875,-0.9453125,-0.26513671875,0.8536585569381714,0.396341472864151,0.3658536672592163,16.950000762939453,4.949999809265137,-5.400000095367432,40.3608283996582,0,
 188472,-0.075439453125,-0.947509765625,-0.26806640625,0.6097561120986938,0.27439025044441223,0.4878048896789551,17.850000381469727,2.700000047683716,-6.300000190734863,40.16913604736328,0,
 188482,-0.081787109375,-0.9453125,-0.266845703125,0.3353658616542816,0.21341463923454285,0.792682945728302,18.0,6.0,-8.699999809265137,40.07329177856445,0,
 188492,-0.076416015625,-0.9453125,-0.2646484375,0.15243902802467346,0.3658536672592163,0.7621951103210449,18.0,6.0,-8.699999809265137,40.21706008911133,0,
 188502,-0.08154296875,-0.947509765625,-0.260009765625,-0.09146341681480408,0.396341472864151,0.7621951103210449,17.100000381469727,5.099999904632568,-5.25,39.88159942626953,0,
 188512,-0.0810546875,-0.941650390625,-0.2705078125,-0.396341472864151,0.060975611209869385,0.3658536672592163,18.0,3.75,-4.949999809265137,40.16913604736328,0,
 188522,-0.07861328125,-0.943603515625,-0.2646484375,-0.396341472864151,0.21341463923454285,0.5182926654815674,17.700000762939453,3.75,-4.949999809265137,40.025367736816406,0,
 188532,-0.077392578125,-0.9482421875,-0.2666015625,-0.7012194991111755,0.3658536672592163,0.3048780560493469,18.450000762939453,3.75,-7.199999809265137,40.50459671020508,0,
 188542,-0.078125,-0.950927734375,-0.261474609375,-0.7317073345184326,0.21341463923454285,0.15243902802467346,18.450000762939453,3.75,-7.199999809265137,40.07329177856445,0,
 188552,-0.072021484375,-0.946044921875,-0.2646484375,-1.3719512224197388,0.396341472864151,0.27439025044441223,17.25,2.8499999046325684,-5.699999809265137,40.264984130859375,0,
 188562,-0.07958984375,-0.947265625,-0.265869140625,-1.7073171138763428,0.7012194991111755,-0.12195122241973877,18.450000762939453,4.050000190734863,-4.949999809265137,40.16913604736328,0,
 188572,-0.08154296875,-0.94921875,-0.26904296875,-1.737804889678955,0.7621951103210449,0.21341463923454285,18.450000762939453,2.8499999046325684,-4.650000095367432,40.07329177856445,0,
 188582,-0.07177734375,-0.93896484375,-0.27099609375,-1.6768293380737305,0.4268292784690857,0.396341472864151,18.450000762939453,2.8499999046325684,-4.650000095367432,40.3608283996582,0,
 188592,-0.07666015625,-0.941162109375,-0.271728515625,-1.4634146690368652,0.8231707215309143,0.5487805008888245,17.549999237060547,3.1500000953674316,-6.0,40.025367736816406,0,
 188602,-0.072509765625,-0.947998046875,-0.268310546875,-1.5243902206420898,0.6402438879013062,0.5182926654815674,16.5,4.050000190734863,-6.150000095367432,39.977447509765625,0,
 188612,-0.07958984375,-0.93896484375,-0.269775390625,-1.097561001777649,0.5792682766914368,0.060975611209869385,17.25,4.050000190734863,-4.650000095367432,40.07329177856445,0,
 188622,-0.078369140625,-0.9423828125,-0.274169921875,-1.0060975551605225,0.3353658616542816,0.24390244483947754,17.25,4.050000190734863,-4.650000095367432,40.21706008911133,0,
 188632,-0.081787109375,-0.94287109375,-0.270263671875,-0.8231707215309143,0.4878048896789551,0.12195122241973877,16.5,3.299999952316284,-6.150000095367432,39.977447509765625,0,
 188642,-0.075439453125,-0.942626953125,-0.270751953125,-0.7317073345184326,0.6097561120986938,0.4878048896789551,18.0,5.25,-6.150000095367432,40.21706008911133,0,
 188652,-0.0703125,-0.94677734375,-0.264404296875,-0.3658536672592163,0.4878048896789551,0.5792682766914368,18.299999237060547,3.9000000953674316,-7.050000190734863,39.88159942626953,0,
 188662,-0.07421875,-0.943359375,-0.271484375,-0.5182926654815674,0.24390244483947754,0.4878048896789551,18.299999237060547,3.9000000953674316,-7.050000190734863,39.88159942626953,0,
 188672,-0.08056640625,-0.942626953125,-0.27001953125,0.18292683362960815,0.3658536672592163,0.6707317233085632,17.25,2.549999952316284,-6.900000095367432,40.16913604736328,0,
 188682,-0.076416015625,-0.942626953125,-0.263671875,-0.3353658616542816,0.3048780560493469,0.24390244483947754,17.700000762939453,3.75,-7.199999809265137,40.07329177856445,0,
 188692,-0.072998046875,-0.947998046875,-0.272216796875,-0.09146341681480408,0.21341463923454285,0.6707317233085632,19.049999237060547,2.700000047683716,-7.050000190734863,40.07329177856445,0,
 188702,-0.078369140625,-0.948486328125,-0.266845703125,-0.27439025044441223,0.3658536672592163,0.5487805008888245,17.700000762939453,4.5,-6.150000095367432,39.977447509765625,0,
 188712,-0.07958984375,-0.94384765625,-0.264404296875,-0.3353658616542816,0.27439025044441223,0.4573170840740204,17.700000762939453,4.5,-6.150000095367432,40.16913604736328,0,
 188722,-0.082275390625,-0.94482421875,-0.26904296875,-0.7012194991111755,0.4878048896789551,0.4878048896789551,16.799999237060547,3.450000047683716,-6.300000190734863,40.07329177856445,0,
 188732,-0.07666015625,-0.941650390625,-0.269287109375,-0.3048780560493469,0.3658536672592163,0.396341472864151,17.100000381469727,3.450000047683716,-5.550000190734863,40.21706008911133,0,
 188742,-0.081298828125,-0.943603515625,-0.2646484375,-0.7317073345184326,0.21341463923454285,0.24390244483947754,17.850000381469727,2.25,-5.550000190734863,40.264984130859375,0,
 188752,-0.081298828125,-0.94384765625,-0.268798828125,-0.7621951103210449,0.24390244483947754,0.24390244483947754,17.850000381469727,2.25,-5.550000190734863,39.977447509765625,0,
 188762,-0.0791015625,-0.941162109375,-0.271240234375,-0.7317073345184326,0.27439025044441223,0.4573170840740204,16.950000762939453,2.8499999046325684,-5.400000095367432,40.21706008911133,0,
 188772,-0.07958984375,-0.93994140625,-0.271240234375,-0.15243902802467346,0.27439025044441223,0.4878048896789551,18.0,3.299999952316284,-4.949999809265137,40.21706008911133,0,
 188782,-0.079345703125,-0.9443359375,-0.261962890625,-0.21341463923454285,0.15243902802467346,0.09146341681480408,17.700000762939453,4.5,-6.449999809265137,40.07329177856445,0,
 188792,-0.079345703125,-0.947998046875,-0.267333984375,0.0,0.15243902802467346,-0.15243902802467346,17.700000762939453,4.5,-6.449999809265137,39.83367919921875,0,
 188802,-0.080322265625,-0.943115234375,-0.264892578125,-0.12195122241973877,0.27439025044441223,0.4268292784690857,18.899999618530273,4.050000190734863,-6.150000095367432,40.16913604736328,0,
 188812,-0.076171875,-0.94091796875,-0.270751953125,-0.4878048896789551,0.5792682766914368,0.24390244483947754,18.0,4.5,-5.699999809265137,40.07329177856445,0,
 188822,-0.081298828125,-0.94970703125,-0.267822265625,-0.27439025044441223,0.396341472864151,0.030487805604934692,17.100000381469727,4.349999904632568,-6.75,40.264984130859375,0,
 188832,-0.080078125,-0.945068359375,-0.2685546875,-0.27439025044441223,0.27439025044441223,0.21341463923454285,17.100000381469727,4.349999904632568,-6.75,39.83367919921875,0,
 188842,-0.0791015625,-0.943115234375,-0.2646484375,-0.7621951103210449,0.3658536672592163,0.15243902802467346,16.950000762939453,3.75,-4.949999809265137,40.025367736816406,0,
 188852,-0.0751953125,-0.947265625,-0.26171875,-0.6707317233085632,0.4268292784690857,0.060975611209869385,17.100000381469727,3.450000047683716,-5.25,40.16913604736328,0,
 188862,-0.085205078125,-0.943603515625,-0.26318359375,-0.8841463327407837,0.6707317233085632,0.18292683362960815,17.700000762939453,4.5,-5.400000095367432,40.3608283996582,0,
 188872,-0.07470703125,-0.944580078125,-0.26904296875,-1.0365853309631348,0.4573170840740204,0.12195122241973877,17.700000762939453,3.75,-6.150000095367432,40.16913604736328,0,
 188882,-0.076171875,-0.9423828125,-0.264404296875,-0.7317073345184326,0.5487805008888245,0.030487805604934692,17.700000762939453,3.75,-6.150000095367432,40.025367736816406,0,
 188892,-0.080810546875,-0.943115234375,-0.26416015625,-1.0670732259750366,0.396341472864151,0.18292683362960815,18.899999618530273,4.5,-8.699999809265137,39.977447509765625,0,
 188902,-0.084716796875,-0.95263671875,-0.2666015625,-0.7621951103210449,0.3658536672592163,0.3658536672592163,17.25,3.75,-5.699999809265137,40.16913604736328,0,
 188912,-0.079833984375,-0.945556640625,-0.2705078125,-0.7317073345184326,0.21341463923454285,0.27439025044441223,17.25,2.8499999046325684,-5.400000095367432,40.07329177856445,0,
 188922,-0.076904296875,-0.9453125,-0.2666015625,-0.5792682766914368,0.18292683362960815,0.3353658616542816,17.25,2.8499999046325684,-5.400000095367432,39.977447509765625,0,
 188932,-0.080078125,-0.94287109375,-0.267333984375,-0.7621951103210449,0.030487805604934692,0.6707317233085632,17.700000762939453,2.8499999046325684,-6.900000095367432,40.3608283996582,0,
 188942,-0.079345703125,-0.940673828125,-0.2705078125,-0.396341472864151,0.21341463923454285,0.4268292784690857,18.299999237060547,2.25,-4.800000190734863,40.025367736816406,0,
 188952,-0.072998046875,-0.941650390625,-0.2685546875,-0.12195122241973877,0.4268292784690857,0.21341463923454285,17.549999237060547,3.1500000953674316,-6.300000190734863,40.025367736816406,0,
 188962,-0.08203125,-0.94580078125,-0.271240234375,-0.3048780560493469,0.24390244483947754,0.3048780560493469,17.549999237060547,3.1500000953674316,-6.300000190734863,40.264984130859375,0,
 188972,-0.076416015625,-0.947265625,-0.271484375,-0.7317073345184326,0.3048780560493469,0.3048780560493469,17.700000762939453,3.75,-6.150000095367432,39.88159942626953,0,
 188982,-0.080078125,-0.942138671875,-0.268310546875,-0.9451219439506531,0.3048780560493469,0.21341463923454285,17.549999237060547,4.650000095367432,-6.75,40.07329177856445,0,
 188992,-0.07666015625,-0.945556640625,-0.2705078125,-0.6707317233085632,0.5487805008888245,0.3658536672592163,18.899999618530273,5.699999809265137,-8.699999809265137,39.977447509765625,0,
 189002,-0.078369140625,-0.9404296875,-0.274169921875,-0.3353658616542816,0.3658536672592163,0.27439025044441223,18.899999618530273,5.699999809265137,-8.699999809265137,40.025367736816406,0,
 189013,-0.07861328125,-0.94091796875,-0.273193359375,-0.5487805008888245,0.3353658616542816,0.27439025044441223,17.549999237060547,5.099999904632568,-6.300000190734863,40.07329177856445,0,
 189023,-0.081787109375,-0.943359375,-0.275634765625,-0.15243902802467346,0.396341472864151,0.12195122241973877,17.700000762939453,4.050000190734863,-5.699999809265137,40.264984130859375,0,
 189033,-0.072998046875,-0.947265625,-0.267333984375,-0.27439025044441223,0.3353658616542816,0.3658536672592163,19.200000762939453,4.050000190734863,-7.650000095367432,40.07329177856445,0,
 189043,-0.07958984375,-0.944580078125,-0.27197265625,0.3048780560493469,0.3048780560493469,0.3048780560493469,17.850000381469727,3.450000047683716,-6.300000190734863,39.83367919921875,0,
 189053,-0.08203125,-0.944580078125,-0.26953125,-0.3658536672592163,0.21341463923454285,0.21341463923454285,17.850000381469727,3.450000047683716,-6.300000190734863,40.16913604736328,0,
 189063,-0.084228515625,-0.94482421875,-0.272216796875,-0.6097561120986938,0.6402438879013062,0.3048780560493469,18.0,2.549999952316284,-6.900000095367432,40.21706008911133,0,
 189073,-0.077392578125,-0.941650390625,-0.27197265625,-0.8536585569381714,0.396341472864151,0.5182926654815674,18.600000381469727,2.700000047683716,-6.0,39.977447509765625,0,
 189083,-0.08203125,-0.951416015625,-0.272216796875,-0.6097561120986938,0.3353658616542816,0.396341472864151,17.549999237060547,3.9000000953674316,-5.550000190734863,40.07329177856445,0,
 189093,-0.077880859375,-0.947021484375,-0.27001953125,-0.9756097793579102,0.3048780560493469,0.5792682766914368,17.549999237060547,3.9000000953674316,-5.550000190734863,39.88159942626953,0,
 189103,-0.07958984375,-0.9423828125,-0.271240234375,-0.3658536672592163,0.396341472864151,0.4573170840740204,18.450000762939453,3.75,-6.150000095367432,39.88159942626953,0,
 189113,-0.077392578125,-0.945556640625,-0.269287109375,-0.3048780560493469,0.21341463923454285,0.3658536672592163,17.549999237060547,5.099999904632568,-5.550000190734863,40.07329177856445,0,
 189123,-0.07958984375,-0.94140625,-0.2685546875,-0.3353658616542816,0.24390244483947754,0.09146341681480408,17.549999237060547,2.700000047683716,-8.25,39.88159942626953,0,
 189133,-0.073486328125,-0.940673828125,-0.2705078125,-0.7317073345184326,0.4573170840740204,0.6402438879013062,17.549999237060547,2.700000047683716,-8.25,39.88159942626953,0,
 189143,-0.07373046875,-0.94287109375,-0.266845703125,-0.4573170840740204,0.3658536672592163,0.060975611209869385,16.200000762939453,4.5,-6.449999809265137,40.07329177856445,0,
 189153,-0.07421875,-0.936279296875,-0.269775390625,-0.3353658616542816,0.5487805008888245,0.396341472864151,16.350000381469727,3.450000047683716,-6.75,40.07329177856445,0,
 189163,-0.0791015625,-0.94140625,-0.264892578125,-0.8841463327407837,0.5182926654815674,0.5182926654815674,19.049999237060547,3.450000047683716,-5.25,40.07329177856445,0,
 189173,-0.078857421875,-0.945068359375,-0.27001953125,-0.7317073345184326,0.5792682766914368,0.4268292784690857,19.049999237060547,3.450000047683716,-5.25,39.977447509765625,0,
 189183,-0.07861328125,-0.945556640625,-0.271728515625,-0.7621951103210449,0.7621951103210449,0.18292683362960815,17.700000762939453,4.050000190734863,-6.900000095367432,40.264984130859375,0,
 189193,-0.079345703125,-0.946533203125,-0.269775390625,-0.3353658616542816,0.6402438879013062,0.060975611209869385,17.25,3.75,-6.150000095367432,40.025367736816406,0,
 189203,-0.077392578125,-0.9404296875,-0.268798828125,-0.060975611209869385,0.4268292784690857,0.21341463923454285,18.450000762939453,6.0,-7.199999809265137,40.16913604736328,0,
 189213,-0.079833984375,-0.9384765625,-0.27099609375,0.0,0.4268292784690857,0.5182926654815674,16.350000381469727,5.099999904632568,-7.5,40.16913604736328,0,
 189223,-0.077392578125,-0.94287109375,-0.269775390625,0.030487805604934692,0.21341463923454285,0.6097561120986938,16.350000381469727,5.099999904632568,-7.5,39.977447509765625,0,
 189233,-0.07421875,-0.941650390625,-0.264892578125,0.09146341681480408,0.24390244483947754,0.4573170840740204,17.549999237060547,3.1500000953674316,-6.0,40.07329177856445,0,
 189243,-0.082275390625,-0.9384765625,-0.271240234375,0.030487805604934692,-0.09146341681480408,0.3353658616542816,17.549999237060547,3.1500000953674316,-6.0,40.16913604736328,0,
 189253,-0.080322265625,-0.943603515625,-0.26953125,0.030487805604934692,-0.060975611209869385,0.27439025044441223,17.549999237060547,3.1500000953674316,-5.25,40.16913604736328,0,
 189263,-0.080078125,-0.941650390625,-0.27392578125,0.4268292784690857,0.12195122241973877,0.09146341681480408,17.549999237060547,3.1500000953674316,-5.25,40.07329177856445,0,
 189273,-0.076171875,-0.9482421875,-0.261962890625,-0.18292683362960815,0.27439025044441223,0.15243902802467346,17.850000381469727,4.349999904632568,-6.0,40.264984130859375,0,
 189283,-0.0771484375,-0.947021484375,-0.264892578125,-0.27439025044441223,0.4573170840740204,0.4268292784690857,18.0,3.299999952316284,-4.949999809265137,40.07329177856445,0,
 189293,-0.08544921875,-0.9423828125,-0.265625,-0.5487805008888245,0.6707317233085632,0.24390244483947754,19.649999618530273,2.8499999046325684,-5.699999809265137,40.16913604736328,0,
 189303,-0.07861328125,-0.94873046875,-0.269775390625,-0.9451219439506531,0.7012194991111755,0.27439025044441223,19.649999618530273,2.8499999046325684,-5.699999809265137,39.977447509765625,0,
 189313,-0.079833984375,-0.94384765625,-0.26904296875,-0.8841463327407837,0.5792682766914368,0.7621951103210449,18.0,4.5,-7.650000095367432,40.40875244140625,0,
 189323,-0.07470703125,-0.940673828125,-0.265625,-0.9146341681480408,0.6402438879013062,0.4878048896789551,17.25,3.299999952316284,-6.449999809265137,40.16913604736328,0,
 189333,-0.07763671875,-0.945556640625,-0.265869140625,-1.0670732259750366,0.3048780560493469,0.09146341681480408,17.25,2.549999952316284,-6.150000095367432,39.689910888671875,0,
 189343,-0.0830078125,-0.950927734375,-0.26513671875,-1.0365853309631348,0.4268292784690857,0.4268292784690857,17.25,2.549999952316284,-6.150000095367432,40.025367736816406,0,
 189353,-0.079345703125,-0.949462890625,-0.266357421875,-1.0365853309631348,0.21341463923454285,0.3658536672592163,16.200000762939453,4.5,-6.449999809265137,40.16913604736328,0,
 189363,-0.080322265625,-0.942138671875,-0.2685546875,-1.2195122241973877,0.3658536672592163,0.27439025044441223,18.450000762939453,5.699999809265137,-5.699999809265137,40.07329177856445,0,
 189373,-0.086181640625,-0.94677734375,-0.271728515625,-1.25,0.24390244483947754,0.5182926654815674,17.700000762939453,4.050000190734863,-6.449999809265137,40.16913604736328,0,
 189383,-0.078857421875,-0.9462890625,-0.26611328125,-1.0670732259750366,0.4878048896789551,0.3048780560493469,17.700000762939453,4.050000190734863,-6.900000095367432,40.07329177856445,0,
 189393,-0.07666015625,-0.940673828125,-0.264892578125,-1.5548781156539917,0.24390244483947754,0.6097561120986938,17.700000762939453,4.050000190734863,-6.900000095367432,40.3608283996582,0,
 189403,-0.075439453125,-0.94482421875,-0.268798828125,-1.5548781156539917,0.6097561120986938,0.6097561120986938,18.600000381469727,4.650000095367432,-7.800000190734863,40.07329177856445,0,
 189413,-0.0703125,-0.94580078125,-0.265380859375,-1.4634146690368652,0.27439025044441223,0.6707317233085632,16.350000381469727,3.9000000953674316,-5.550000190734863,40.16913604736328,0,
 189423,-0.083251953125,-0.93994140625,-0.27294921875,-1.432926893234253,0.4268292784690857,0.7317073345184326,17.850000381469727,4.349999904632568,-6.0,40.07329177856445,0,
 189433,-0.085205078125,-0.93359375,-0.272216796875,-1.1890244483947754,0.396341472864151,0.24390244483947754,17.850000381469727,4.349999904632568,-6.0,40.07329177856445,0,
 189443,-0.079345703125,-0.943359375,-0.273193359375,-0.8231707215309143,0.5487805008888245,0.4573170840740204,17.700000762939453,2.8499999046325684,-4.650000095367432,40.07329177856445,0,
 189453,-0.082763671875,-0.942626953125,-0.271484375,-0.3353658616542816,0.5487805008888245,0.3353658616542816,18.600000381469727,2.700000047683716,-6.300000190734863,40.07329177856445,0,
 189463,-0.079345703125,-0.935302734375,-0.2744140625,-0.27439025044441223,0.27439025044441223,0.5792682766914368,17.100000381469727,4.650000095367432,-7.050000190734863,40.21706008911133,0,
 189473,-0.0771484375,-0.9404296875,-0.271484375,0.030487805604934692,0.09146341681480408,0.4268292784690857,17.100000381469727,4.650000095367432,-7.050000190734863,39.977447509765625,0,
 189483,-0.080078125,-0.94677734375,-0.26708984375,0.6097561120986938,0.12195122241973877,0.396341472864151,17.100000381469727,4.650000095367432,-6.75,39.88159942626953,0,
 189493,-0.0830078125,-0.94091796875,-0.271484375,1.2195122241973877,0.27439025044441223,0.3353658616542816,17.700000762939453,4.050000190734863,-6.150000095367432,40.07329177856445,0,
 189503,-0.080322265625,-0.948486328125,-0.269775390625,0.7012194991111755,-0.15243902802467346,0.4268292784690857,18.899999618530273,5.25,-7.199999809265137,39.88159942626953,0,
 189513,-0.085693359375,-0.94921875,-0.264892578125,0.7621951103210449,-0.18292683362960815,0.21341463923454285,18.899999618530273,5.25,-7.199999809265137,40.025367736816406,0,
 189523,-0.076171875,-0.94384765625,-0.269775390625,0.8841463327407837,0.3658536672592163,0.0,17.100000381469727,3.9000000953674316,-6.75,40.025367736816406,0,
 189533,-0.081298828125,-0.942626953125,-0.26611328125,0.7012194991111755,0.09146341681480408,0.5792682766914368,17.549999237060547,2.700000047683716,-6.300000190734863,39.88159942626953,0,
 189543,-0.076904296875,-0.943115234375,-0.26318359375,0.18292683362960815,0.3353658616542816,0.4268292784690857,17.549999237060547,4.650000095367432,-5.550000190734863,40.07329177856445,0,
 189553,-0.083740234375,-0.9541015625,-0.26416015625,-0.18292683362960815,0.4573170840740204,0.4268292784690857,18.0,3.75,-6.900000095367432,40.07329177856445,0,
 189563,-0.0830078125,-0.945068359375,-0.2607421875,-0.5182926654815674,0.5792682766914368,-0.030487805604934692,18.0,3.75,-6.900000095367432,40.16913604736328,0,
 189573,-0.079833984375,-0.953857421875,-0.264404296875,-1.2195122241973877,0.4573170840740204,-0.030487805604934692,18.0,4.050000190734863,-4.949999809265137,40.16913604736328,0,
 189583,-0.075439453125,-0.94580078125,-0.266845703125,-1.4634146690368652,0.6402438879013062,0.0,18.450000762939453,2.0999999046325684,-6.150000095367432,39.88159942626953,0,
 189593,-0.07666015625,-0.940673828125,-0.26318359375,-2.3475611209869385,0.8841463327407837,0.3048780560493469,18.450000762939453,3.299999952316284,-4.199999809265137,40.21706008911133,0,
 189603,-0.080078125,-0.94140625,-0.275634765625,-1.6768293380737305,0.6402438879013062,0.4878048896789551,18.450000762939453,3.299999952316284,-4.199999809265137,39.977447509765625,0,
 189613,-0.078369140625,-0.939453125,-0.272216796875,-1.4634146690368652,0.6707317233085632,0.396341472864151,18.600000381469727,3.9000000953674316,-6.75,40.552520751953125,0,
 189623,-0.078857421875,-0.94189453125,-0.271240234375,-1.402438998222351,0.4268292784690857,0.6402438879013062,18.299999237060547,3.450000047683716,-5.550000190734863,39.977447509765625,0,
 189633,-0.084228515625,-0.943359375,-0.275146484375,-1.432926893234253,0.6707317233085632,0.8231707215309143,17.100000381469727,3.450000047683716,-6.0,39.83367919921875,0,
 189643,-0.077880859375,-0.943115234375,-0.268310546875,-0.8536585569381714,0.3658536672592163,0.21341463923454285,17.100000381469727,3.450000047683716,-6.0,40.16913604736328,0,
 189653,-0.079833984375,-0.9375,-0.26953125,-0.4878048896789551,0.12195122241973877,0.18292683362960815,18.450000762939453,3.75,-5.699999809265137,40.025367736816406,0,
 189663,-0.07861328125,-0.942138671875,-0.27001953125,-0.21341463923454285,0.3353658616542816,0.24390244483947754,18.0,2.549999952316284,-4.650000095367432,40.21706008911133,0,
 189674,-0.076171875,-0.945068359375,-0.26953125,-0.12195122241973877,0.24390244483947754,0.030487805604934692,17.549999237060547,3.9000000953674316,-6.0,40.21706008911133,0,
 189684,-0.078125,-0.94189453125,-0.26513671875,-0.27439025044441223,0.18292683362960815,-0.030487805604934692,17.549999237060547,3.9000000953674316,-6.0,39.83367919921875,0,
 189694,-0.079345703125,-0.94384765625,-0.27099609375,-0.15243902802467346,0.5792682766914368,-0.15243902802467346,17.100000381469727,3.450000047683716,-6.75,40.07329177856445,0,
 189704,-0.07470703125,-0.94384765625,-0.266845703125,-0.4573170840740204,0.5182926654815674,0.09146341681480408,16.799999237060547,3.1500000953674316,-4.800000190734863,40.264984130859375,0,
 189714,-0.080078125,-0.9453125,-0.267578125,-0.15243902802467346,0.5182926654815674,0.3658536672592163,19.200000762939453,2.0999999046325684,-8.399999618530273,40.07329177856445,0,
 189724,-0.07568359375,-0.940673828125,-0.26904296875,-0.15243902802467346,0.24390244483947754,0.3353658616542816,17.25,4.050000190734863,-5.699999809265137,39.88159942626953,0,
 189734,-0.08154296875,-0.94775390625,-0.27392578125,0.396341472864151,0.060975611209869385,0.7012194991111755,17.25,4.050000190734863,-5.699999809265137,40.3608283996582,0,
 189744,-0.079345703125,-0.94384765625,-0.26708984375,0.5487805008888245,0.060975611209869385,0.396341472864151,17.700000762939453,4.5,-6.900000095367432,40.07329177856445,0,
 189754,-0.078857421875,-0.94140625,-0.26416015625,0.15243902802467346,0.3048780560493469,0.3353658616542816,18.0,3.299999952316284,-4.650000095367432,39.977447509765625,0,
 189764,-0.080078125,-0.9462890625,-0.26953125,0.060975611209869385,0.24390244483947754,0.3353658616542816,18.600000381469727,2.700000047683716,-6.0,40.16913604736328,0,
 189774,-0.082275390625,-0.944091796875,-0.26611328125,-0.12195122241973877,0.6097561120986938,0.3658536672592163,18.600000381469727,2.700000047683716,-6.0,39.977447509765625,0,
 189784,-0.0791015625,-0.949951171875,-0.264892578125,-0.6402438879013062,0.4573170840740204,0.24390244483947754,17.25,2.8499999046325684,-6.150000095367432,40.07329177856445,0,
 189794,-0.07666015625,-0.9453125,-0.26220703125,-0.7012194991111755,0.8841463327407837,0.27439025044441223,17.100000381469727,4.650000095367432,-6.75,40.16913604736328,0,
 189804,-0.08154296875,-0.94775390625,-0.26611328125,-1.5243902206420898,0.8841463327407837,0.3658536672592163,17.700000762939453,3.75,-6.150000095367432,39.88159942626953,0,
 189814,-0.0712890625,-0.94384765625,-0.272216796875,-1.402438998222351,0.6097561120986938,0.3658536672592163,17.700000762939453,3.75,-6.150000095367432,40.40875244140625,0,
 189824,-0.077880859375,-0.941162109375,-0.275390625,-0.9756097793579102,0.5792682766914368,0.4878048896789551,18.0,3.299999952316284,-7.199999809265137,39.977447509765625,0,
 189834,-0.076171875,-0.946044921875,-0.274169921875,-0.5792682766914368,0.5182926654815674,0.5182926654815674,16.5,4.5,-4.949999809265137,40.16913604736328,0,
 189844,-0.07470703125,-0.943115234375,-0.268798828125,-0.4268292784690857,0.12195122241973877,0.24390244483947754,17.549999237060547,4.349999904632568,-7.050000190734863,40.16913604736328,0,
 189854,-0.077392578125,-0.947509765625,-0.269775390625,-0.12195122241973877,0.3048780560493469,0.6097561120986938,17.549999237060547,4.349999904632568,-7.050000190734863,40.025367736816406,0,
 189864,-0.082275390625,-0.94287109375,-0.26953125,0.0,-0.030487805604934692,0.18292683362960815,18.899999618530273,4.050000190734863,-4.650000095367432,40.025367736816406,0,
 189874,-0.083251953125,-0.9404296875,-0.26953125,-0.4878048896789551,0.18292683362960815,0.396341472864151,17.700000762939453,3.75,-5.699999809265137,39.977447509765625,0,
 189884,-0.080078125,-0.94091796875,-0.265380859375,-0.7621951103210449,0.27439025044441223,0.24390244483947754,17.549999237060547,3.450000047683716,-5.550000190734863,40.16913604736328,0,
 189894,-0.078125,-0.94384765625,-0.260009765625,-0.9146341681480408,0.4573170840740204,0.3658536672592163,17.25,2.549999952316284,-4.949999809265137,40.07329177856445,0,
 189904,-0.08056640625,-0.9462890625,-0.26513671875,-0.9756097793579102,0.396341472864151,0.15243902802467346,17.25,2.549999952316284,-4.949999809265137,40.07329177856445,0,
 189914,-0.078125,-0.945068359375,-0.27392578125,-1.0365853309631348,0.12195122241973877,0.060975611209869385,18.299999237060547,5.400000095367432,-7.5,40.07329177856445,0,
 189924,-0.079833984375,-0.94580078125,-0.26904296875,-0.6707317233085632,0.6097561120986938,0.24390244483947754,17.549999237060547,3.1500000953674316,-4.800000190734863,39.977447509765625,0,
 189934,-0.0810546875,-0.943115234375,-0.27294921875,-0.7621951103210449,0.5182926654815674,0.060975611209869385,18.299999237060547,4.650000095367432,-5.550000190734863,40.264984130859375,0,
 189944,-0.079345703125,-0.945556640625,-0.272216796875,-0.792682945728302,0.3353658616542816,0.24390244483947754,18.299999237060547,4.650000095367432,-5.550000190734863,40.16913604736328,0,
 189954,-0.072021484375,-0.943115234375,-0.269775390625,-0.3658536672592163,0.5487805008888245,0.396341472864151,17.100000381469727,4.650000095367432,-2.549999952316284,40.07329177856445,0,
 189964,-0.082275390625,-0.939453125,-0.27197265625,-0.12195122241973877,-0.09146341681480408,0.3658536672592163,16.5,3.75,-6.449999809265137,40.264984130859375,0,
 189974,-0.0830078125,-0.941162109375,-0.2724609375,-0.060975611209869385,0.27439025044441223,0.792682945728302,18.600000381469727,3.1500000953674316,-5.25,39.88159942626953,0,
 189984,-0.076171875,-0.948974609375,-0.268310546875,0.3353658616542816,0.030487805604934692,0.5487805008888245,18.600000381469727,3.1500000953674316,-5.25,40.07329177856445,0,
 189994,-0.080322265625,-0.9482421875,-0.265380859375,0.4573170840740204,0.21341463923454285,0.6402438879013062,16.200000762939453,3.299999952316284,-5.400000095367432,40.16913604736328,0,
 190004,-0.081787109375,-0.945556640625,-0.26318359375,0.0,0.060975611209869385,0.5182926654815674,17.700000762939453,2.8499999046325684,-4.949999809265137,40.025367736816406,0,
 190014,-0.08251953125,-0.948974609375,-0.26953125,0.030487805604934692,0.4573170840740204,0.6707317233085632,16.5,3.75,-5.400000095367432,40.025367736816406,0,
 190024,-0.076904296875,-0.94677734375,-0.265869140625,-0.7317073345184326,0.4268292784690857,0.4268292784690857,16.5,3.75,-5.400000095367432,39.88159942626953,0,
 190034,-0.082275390625,-0.944580078125,-0.266357421875,-0.8841463327407837,0.15243902802467346,0.4573170840740204,16.799999237060547,3.450000047683716,-6.0,39.977447509765625,0,
 190044,-0.08154296875,-0.947265625,-0.268310546875,-0.7012194991111755,0.6402438879013062,0.3048780560493469,18.600000381469727,3.1500000953674316,-6.300000190734863,40.07329177856445,0,
 190054,-0.0751953125,-0.942138671875,-0.260986328125,-0.8231707215309143,0.3048780560493469,0.4573170840740204,16.950000762939453,3.75,-5.400000095367432,40.16913604736328,0,
 190064,-0.079345703125,-0.943603515625,-0.27294921875,-1.3109756708145142,0.24390244483947754,0.4878048896789551,17.549999237060547,4.349999904632568,-6.0,40.025367736816406,0,
 190074,-0.078857421875,-0.943359375,-0.268310546875,-0.9146341681480408,0.21341463923454285,0.6097561120986938,17.549999237060547,4.349999904632568,-6.0,39.88159942626953,0,
 190084,-0.080078125,-0.942138671875,-0.271728515625,-1.0670732259750366,0.4573170840740204,0.396341472864151,18.299999237060547,3.9000000953674316,-6.0,40.21706008911133,0,
 190094,-0.079833984375,-0.9453125,-0.26904296875,-0.8841463327407837,0.396341472864151,0.5487805008888245,17.850000381469727,1.5,-7.050000190734863,40.264984130859375,0,
 190104,-0.0791015625,-0.9423828125,-0.261474609375,-0.3048780560493469,0.030487805604934692,0.7317073345184326,18.299999237060547,2.700000047683716,-5.550000190734863,40.3608283996582,0,
 190114,-0.07958984375,-0.94775390625,-0.267822265625,-0.792682945728302,0.4573170840740204,0.4268292784690857,18.299999237060547,2.700000047683716,-5.550000190734863,40.16913604736328,0,
 190124,-0.078857421875,-0.943359375,-0.267333984375,-0.5792682766914368,0.396341472864151,0.15243902802467346,16.5,1.350000023841858,-7.650000095367432,39.83367919921875,0,
 190134,-0.07470703125,-0.9453125,-0.2685546875,-0.4268292784690857,0.5487805008888245,0.12195122241973877,17.25,3.299999952316284,-6.900000095367432,39.977447509765625,0,
 190144,-0.075439453125,-0.94091796875,-0.265625,-0.21341463923454285,0.5182926654815674,0.12195122241973877,17.700000762939453,3.299999952316284,-7.199999809265137,40.07329177856445,0,
 190154,-0.07470703125,-0.94384765625,-0.267822265625,-0.6097561120986938,0.5792682766914368,0.24390244483947754,17.700000762939453,3.299999952316284,-7.199999809265137,40.3608283996582,0,
 190164,-0.0771484375,-0.94140625,-0.267578125,-0.5487805008888245,0.27439025044441223,-0.18292683362960815,18.450000762939453,2.8499999046325684,-7.199999809265137,40.16913604736328,0,
 190174,-0.079345703125,-0.944580078125,-0.267578125,-0.3353658616542816,0.4268292784690857,0.09146341681480408,18.0,3.75,-4.949999809265137,40.16913604736328,0,
 190184,-0.08251953125,-0.943603515625,-0.2705078125,-0.24390244483947754,0.4268292784690857,0.15243902802467346,18.0,4.050000190734863,-6.150000095367432,40.3608283996582,0,
 190194,-0.08154296875,-0.940185546875,-0.269287109375,-0.18292683362960815,0.4878048896789551,0.4878048896789551,18.0,4.050000190734863,-6.150000095367432,40.16913604736328,0,
 190204,-0.080078125,-0.9453125,-0.27392578125,-0.3048780560493469,0.4573170840740204,0.21341463923454285,17.100000381469727,3.1500000953674316,-4.800000190734863,40.16913604736328,0,
 190214,-0.075927734375,-0.94287109375,-0.264404296875,-0.396341472864151,0.27439025044441223,-0.030487805604934692,17.549999237060547,4.349999904632568,-6.300000190734863,40.025367736816406,0,
 190224,-0.076416015625,-0.94775390625,-0.264404296875,-0.3658536672592163,0.5487805008888245,0.7012194991111755,18.450000762939453,3.299999952316284,-6.900000095367432,40.16913604736328,0,
 190234,-0.084716796875,-0.94384765625,-0.265869140625,-0.9146341681480408,0.3048780560493469,0.5792682766914368,18.450000762939453,4.050000190734863,-6.449999809265137,40.07329177856445,0,
 190244,-0.0810546875,-0.943603515625,-0.269775390625,-0.8536585569381714,0.3658536672592163,0.396341472864151,18.450000762939453,4.050000190734863,-6.449999809265137,39.977447509765625,0,
 190254,-0.080078125,-0.9482421875,-0.266845703125,-1.0060975551605225,0.396341472864151,0.4268292784690857,18.0,2.549999952316284,-5.699999809265137,40.07329177856445,0,
 190264,-0.078857421875,-0.943603515625,-0.2705078125,-0.5792682766914368,0.5792682766914368,0.5182926654815674,17.25,3.299999952316284,-5.699999809265137,39.83367919921875,0,
 190274,-0.083251953125,-0.942138671875,-0.274169921875,-0.9451219439506531,0.5487805008888245,0.4573170840740204,16.950000762939453,2.8499999046325684,-6.150000095367432,40.07329177856445,0,
 190284,-0.08056640625,-0.94189453125,-0.267822265625,-0.8841463327407837,0.3658536672592163,0.396341472864151,16.950000762939453,2.8499999046325684,-6.150000095367432,40.16913604736328,0,
 190294,-0.075927734375,-0.94873046875,-0.265625,-0.7012194991111755,0.3658536672592163,0.5487805008888245,18.299999237060547,4.349999904632568,-5.25,40.264984130859375,0,
 190304,-0.077392578125,-0.945556640625,-0.270263671875,-0.3658536672592163,0.6097561120986938,0.9146341681480408,17.100000381469727,3.9000000953674316,-5.25,40.16913604736328,0,
 190314,-0.07763671875,-0.943359375,-0.270751953125,-0.3353658616542816,0.0,0.7317073345184326,19.200000762939453,2.8499999046325684,-6.900000095367432,39.977447509765625,0,
 190324,-0.079345703125,-0.94091796875,-0.269287109375,0.030487805604934692,0.3658536672592163,0.7621951103210449,19.200000762939453,2.8499999046325684,-6.900000095367432,40.21706008911133,0,
 190334,-0.076416015625,-0.9462890625,-0.267333984375,0.15243902802467346,0.18292683362960815,0.6707317233085632,17.700000762939453,2.8499999046325684,-4.949999809265137,40.025367736816406,0,
 190344,-0.082275390625,-0.943115234375,-0.27197265625,0.5487805008888245,0.09146341681480408,0.8536585569381714,16.799999237060547,3.9000000953674316,-5.550000190734863,40.264984130859375,0,
 190354,-0.084716796875,-0.943359375,-0.272705078125,0.3048780560493469,0.09146341681480408,0.5182926654815674,16.950000762939453,3.75,-6.449999809265137,40.07329177856445,0,
 190364,-0.079833984375,-0.936279296875,-0.26611328125,-0.3658536672592163,-0.21341463923454285,0.3353658616542816,16.950000762939453,3.75,-6.449999809265137,40.025367736816406,0,
 190374,-0.0751953125,-0.927490234375,-0.28564453125,0.5182926654815674,-0.27439025044441223,0.3048780560493469,17.850000381469727,4.349999904632568,-5.25,40.025367736816406,0,
 190384,-0.077880859375,-0.934814453125,-0.27099609375,1.5548781156539917,-0.9146341681480408,-0.3353658616542816,16.350000381469727,3.9000000953674316,-6.300000190734863,40.16913604736328,0,
 190395,-0.075439453125,-0.936767578125,-0.264892578125,2.8353660106658936,-0.7317073345184326,-0.6097561120986938,18.450000762939453,3.75,-5.400000095367432,40.07329177856445,0,
 190405,-0.081787109375,-0.957763671875,-0.25537109375,2.2865853309631348,-1.0060975551605225,-0.5487805008888245,17.25,4.5,-5.400000095367432,40.025367736816406,0,
 190415,-0.08251953125,-0.9541015625,-0.262451171875,0.9146341681480408,-0.5487805008888245,-0.9756097793579102,17.25,4.5,-5.400000095367432,39.977447509765625,0,
 190425,-0.0810546875,-0.9560546875,-0.2646484375,-0.24390244483947754,-0.27439025044441223,-0.4268292784690857,16.5,5.699999809265137,-6.900000095367432,39.88159942626953,0,
 190435,-0.07861328125,-0.94775390625,-0.266845703125,-1.1890244483947754,0.24390244483947754,0.12195122241973877,17.700000762939453,2.8499999046325684,-6.150000095367432,40.025367736816406,0,
 190445,-0.07763671875,-0.94189453125,-0.264892578125,-1.2195122241973877,0.3353658616542816,-0.030487805604934692,18.299999237060547,3.450000047683716,-6.300000190734863,39.977447509765625,0,
 190455,-0.08154296875,-0.942138671875,-0.267578125,-1.1585365533828735,-0.15243902802467346,0.12195122241973877,18.299999237060547,3.450000047683716,-6.300000190734863,40.07329177856445,0,
 190465,-0.075927734375,-0.942626953125,-0.269287109375,-0.6097561120986938,-0.3048780560493469,0.09146341681480408,16.950000762939453,6.0,-5.400000095367432,39.88159942626953,0,
 190475,-0.076171875,-0.94970703125,-0.275390625,0.0,-0.6402438879013062,-0.060975611209869385,17.100000381469727,2.700000047683716,-4.5,40.16913604736328,0,
 190485,-0.078125,-0.94921875,-0.262939453125,-0.18292683362960815,-1.3719512224197388,0.6402438879013062,17.100000381469727,4.349999904632568,-7.050000190734863,40.07329177856445,0,
 190495,-0.07470703125,-0.94921875,-0.26904296875,-0.09146341681480408,-1.6768293380737305,1.25,17.100000381469727,4.349999904632568,-7.050000190734863,40.21706008911133,0,
 190505,-0.0859375,-0.954345703125,-0.26611328125,0.4878048896789551,-2.378048896789551,2.103658676147461,18.299999237060547,4.349999904632568,-4.800000190734863,40.21706008911133,0,
 190515,-0.087158203125,-0.9619140625,-0.272705078125,0.3048780560493469,-1.7987805604934692,2.195122003555298,19.950000762939453,4.949999809265137,-5.400000095367432,40.025367736816406,0,
 190525,-0.083740234375,-0.965576171875,-0.264892578125,0.12195122241973877,-1.6768293380737305,2.408536672592163,18.299999237060547,4.349999904632568,-6.300000190734863,40.025367736816406,0,
 190535,-0.088623046875,-0.993408203125,-0.2666015625,-0.21341463923454285,-1.5243902206420898,3.0487804412841797,18.299999237060547,4.349999904632568,-6.300000190734863,39.977447509765625,0,
 190545,-0.076416015625,-1.0126953125,-0.250732421875,-1.3109756708145142,-1.4634146690368652,3.9024391174316406,18.899999618530273,2.549999952316284,-4.650000095367432,40.07329177856445,0,
 190555,-0.074951171875,-1.00927734375,-0.255859375,-3.567073345184326,-2.804877996444702,6.036585330963135,17.25,4.050000190734863,-7.650000095367432,40.16913604736328,0,
 190565,-0.075439453125,-1.02490234375,-0.275634765625,-3.5975611209869385,-3.932926893234253,10.091464042663574,17.25,4.5,-5.400000095367432,39.977447509765625,0,
 190575,-0.08642578125,-1.007568359375,-0.29931640625,-2.4390244483947754,-5.213414669036865,16.067073822021484,19.049999237060547,3.9000000953674316,-5.550000190734863,40.16913604736328,0,
 190585,-0.08642578125,-1.07763671875,-0.291015625,2.804877996444702,-5.396341800689697,23.841463088989258,19.049999237060547,3.9000000953674316,-5.550000190734863,40.3608283996582,0,
 190595,-0.076416015625,-1.1044921875,-0.258544921875,1.7682926654815674,-6.707317352294922,32.621952056884766,19.200000762939453,2.0999999046325684,-7.199999809265137,40.16913604736328,0,
 190605,-0.139892578125,-1.13330078125,-0.27490234375,0.6707317233085632,-10.304878234863281,42.682926177978516,17.850000381469727,3.1500000953674316,-6.300000190734863,40.07329177856445,0,
 190615,-0.16064453125,-1.073486328125,-0.289794921875,-6.79878044128418,-15.42682933807373,56.82926940917969,18.600000381469727,3.9000000953674316,-7.800000190734863,39.977447509765625,0,
 190625,-0.232421875,-1.14794921875,-0.401611328125,2.7134146690368652,-16.310976028442383,64.05487823486328,18.600000381469727,3.9000000953674316,-7.800000190734863,40.025367736816406,0,
 190635,-0.173828125,-1.047119140625,-0.303955078125,10.945121765136719,-17.378049850463867,62.98780822753906,19.649999618530273,0.8999999761581421,-8.399999618530273,40.16913604736328,0,
 190645,-0.21875,-1.20849609375,-0.37890625,12.07317066192627,-24.93902587890625,63.93292999267578,18.450000762939453,2.8499999046325684,-7.650000095367432,40.16913604736328,0,
 190655,-0.188232421875,-1.153564453125,-0.318115234375,12.195121765136719,-29.84756088256836,61.64634323120117,20.399999618530273,0.44999998807907104,-7.949999809265137,39.88159942626953,0,
 190665,-0.26416015625,-1.015625,-0.3291015625,18.628049850463867,-31.707317352294922,56.310977935791016,20.399999618530273,0.44999998807907104,-7.949999809265137,40.21706008911133,0,
 190675,-0.25146484375,-1.105712890625,-0.296875,20.640243530273438,-31.89024543762207,49.93902587890625,19.799999237060547,0.0,-7.800000190734863,40.025367736816406,0,
 190685,-0.29638671875,-1.141845703125,-0.28564453125,17.317073822021484,-28.53658676147461,41.006099700927734,21.299999237060547,0.30000001192092896,-8.550000190734863,39.88159942626953,0,
 190695,-0.234375,-1.0869140625,-0.245361328125,18.04878044128418,-29.024391174316406,30.94512176513672,21.75,2.25,-8.550000190734863,40.16913604736328,0,
 190705,-0.24658203125,-1.1513671875,-0.235107421875,10.82317066192627,-25.670732498168945,18.262195587158203,21.75,2.25,-8.550000190734863,39.977447509765625,0,
 190715,-0.204345703125,-1.1630859375,-0.219970703125,-3.628048896789551,-26.55487823486328,9.908536911010742,21.75,-0.30000001192092896,-7.050000190734863,40.07329177856445,0,
