timestamp,accl_x,accl_y,accl_z,gyro_x,gyro_y,gyro_z,mag_x,mag_y,mag_z,temp,emg,
 208930,-0.262939453125,-0.953125,-0.019287109375,-0.12195122241973877,-0.030487805604934692,0.6707317233085632,22.5,4.349999904632568,-13.050000190734863,35.32892990112305,0,
 208940,-0.26416015625,-0.950439453125,-0.015869140625,-0.7621951103210449,-0.12195122241973877,0.6707317233085632,22.5,4.349999904632568,-13.050000190734863,35.664390563964844,0,
 208950,-0.26513671875,-0.936767578125,-0.019287109375,-1.0365853309631348,0.24390244483947754,0.792682945728302,21.899999618530273,5.25,-12.449999809265137,35.80815887451172,0,
 208960,-0.261962890625,-0.94140625,-0.02099609375,-0.9146341681480408,0.396341472864151,0.4878048896789551,22.200000762939453,4.949999809265137,-12.899999618530273,35.99985122680664,0,
 208970,-0.260498046875,-0.942138671875,-0.0244140625,-1.3414634466171265,0.7317073345184326,0.5487805008888245,23.399999618530273,6.900000095367432,-13.199999809265137,35.76023483276367,0,
 208980,-0.25390625,-0.937255859375,-0.026123046875,-0.9451219439506531,0.8536585569381714,0.0,22.649999618530273,6.0,-11.699999809265137,35.52062225341797,0,
 208990,-0.258056640625,-0.9384765625,-0.0283203125,-0.9756097793579102,0.4268292784690857,0.09146341681480408,22.649999618530273,6.0,-11.699999809265137,35.76023483276367,0,
 209000,-0.262939453125,-0.9404296875,-0.021728515625,-0.3658536672592163,0.4878048896789551,-0.18292683362960815,22.799999237060547,3.9000000953674316,-12.300000190734863,35.664390563964844,0,
 209010,-0.262939453125,-0.939453125,-0.021484375,0.0,0.27439025044441223,0.0,22.5,6.300000190734863,-11.550000190734863,35.856082916259766,0,
 209020,-0.261962890625,-0.941162109375,-0.02197265625,0.4268292784690857,0.3353658616542816,-0.12195122241973877,23.25,5.699999809265137,-11.699999809265137,35.664390563964844,0,
 209030,-0.2607421875,-0.942626953125,-0.02294921875,0.24390244483947754,0.3353658616542816,0.21341463923454285,23.25,5.400000095367432,-12.75,35.137237548828125,0,
 209040,-0.25732421875,-0.943115234375,-0.022216796875,-0.15243902802467346,0.15243902802467346,0.4573170840740204,23.25,5.400000095367432,-12.75,35.951927185058594,0,
 209050,-0.2587890625,-0.94482421875,-0.024169921875,-0.5182926654815674,0.3353658616542816,0.6097561120986938,22.5,6.599999904632568,-12.300000190734863,35.664390563964844,0,
 209060,-0.263427734375,-0.938720703125,-0.0224609375,-0.4268292784690857,0.3353658616542816,0.4573170840740204,23.25,5.400000095367432,-12.300000190734863,35.664390563964844,0,
 209070,-0.263916015625,-0.946533203125,-0.0185546875,-0.6097561120986938,0.4573170840740204,0.7317073345184326,23.25,7.5,-13.5,35.951927185058594,0,
 209080,-0.262451171875,-0.94140625,-0.021728515625,-0.3658536672592163,0.3048780560493469,0.5487805008888245,23.25,7.5,-13.5,35.281005859375,0,
 209090,-0.26025390625,-0.947021484375,-0.021484375,-0.4878048896789551,0.396341472864151,0.3658536672592163,24.600000381469727,4.949999809265137,-14.399999618530273,35.42477798461914,0,
 209100,-0.260009765625,-0.94140625,-0.02392578125,-0.7012194991111755,0.27439025044441223,0.5487805008888245,22.799999237060547,6.0,-11.399999618530273,35.42477798461914,0,
 209110,-0.25439453125,-0.94775390625,-0.028564453125,-0.24390244483947754,0.0,0.21341463923454285,22.200000762939453,5.699999809265137,-12.449999809265137,35.6164665222168,0,
 209120,-0.262939453125,-0.949951171875,-0.0224609375,-0.3658536672592163,-0.12195122241973877,0.24390244483947754,22.200000762939453,5.699999809265137,-12.449999809265137,35.42477798461914,0,
 209130,-0.26025390625,-0.94580078125,-0.022705078125,-0.3048780560493469,0.09146341681480408,0.3658536672592163,22.200000762939453,5.699999809265137,-12.449999809265137,35.6164665222168,0,
 209140,-0.261962890625,-0.94580078125,-0.017578125,-0.396341472864151,-0.060975611209869385,0.4268292784690857,23.399999618530273,4.050000190734863,-12.449999809265137,35.76023483276367,0,
 209150,-0.261962890625,-0.94580078125,-0.0166015625,-1.0670732259750366,0.12195122241973877,0.3658536672592163,22.799999237060547,6.599999904632568,-13.050000190734863,35.664390563964844,0,
 209160,-0.260498046875,-0.94189453125,-0.021484375,-0.8536585569381714,0.3353658616542816,0.27439025044441223,24.600000381469727,6.0,-13.649999618530273,35.52062225341797,0,
 209170,-0.26171875,-0.94580078125,-0.02001953125,-1.4634146690368652,0.8536585569381714,-0.030487805604934692,24.600000381469727,6.0,-13.649999618530273,35.664390563964844,0,
 209180,-0.25830078125,-0.94384765625,-0.02490234375,-1.4939024448394775,0.7012194991111755,-0.18292683362960815,24.600000381469727,6.0,-13.649999618530273,35.32892990112305,0,
 209190,-0.259033203125,-0.942138671875,-0.030517578125,-1.5243902206420898,0.7317073345184326,0.21341463923454285,22.049999237060547,6.599999904632568,-13.050000190734863,35.76023483276367,0,
 209200,-0.259033203125,-0.944580078125,-0.02734375,-0.7012194991111755,0.5487805008888245,0.15243902802467346,22.649999618530273,4.949999809265137,-13.949999809265137,35.856082916259766,0,
 209210,-0.259033203125,-0.943359375,-0.02880859375,-0.3658536672592163,0.3353658616542816,0.12195122241973877,22.649999618530273,4.949999809265137,-13.949999809265137,35.6164665222168,0,
 209220,-0.2607421875,-0.947998046875,-0.024169921875,0.3048780560493469,-0.030487805604934692,0.27439025044441223,22.649999618530273,4.949999809265137,-13.949999809265137,35.281005859375,0,
 209230,-0.26123046875,-0.947998046875,-0.02294921875,0.27439025044441223,-0.030487805604934692,0.5792682766914368,23.850000381469727,4.949999809265137,-12.149999618530273,35.856082916259766,0,
 209240,-0.26171875,-0.943359375,-0.021484375,-0.030487805604934692,-0.15243902802467346,0.5792682766914368,24.450000762939453,5.849999904632568,-12.75,35.664390563964844,0,
 209250,-0.2587890625,-0.943359375,-0.01708984375,-0.5487805008888245,0.27439025044441223,0.5487805008888245,23.100000381469727,7.650000095367432,-12.449999809265137,35.664390563964844,0,
 209260,-0.263427734375,-0.945068359375,-0.0185546875,-0.5182926654815674,0.396341472864151,0.5487805008888245,23.100000381469727,7.650000095367432,-12.449999809265137,35.6164665222168,0,
 209270,-0.2568359375,-0.94677734375,-0.018798828125,-0.8231707215309143,0.060975611209869385,0.792682945728302,22.049999237060547,8.699999809265137,-15.0,35.52062225341797,0,
 209280,-0.263916015625,-0.944091796875,-0.0244140625,-0.9146341681480408,0.3048780560493469,0.6402438879013062,22.049999237060547,4.650000095367432,-13.800000190734863,35.856082916259766,0,
 209290,-0.260009765625,-0.9423828125,-0.023193359375,-0.8536585569381714,0.21341463923454285,0.3658536672592163,22.049999237060547,5.849999904632568,-12.0,35.80815887451172,0,
 209300,-0.26123046875,-0.950439453125,-0.015869140625,-0.9756097793579102,0.3048780560493469,0.6097561120986938,24.0,4.650000095367432,-12.75,35.76023483276367,0,
 209310,-0.26123046875,-0.943359375,-0.021484375,-0.792682945728302,0.030487805604934692,0.396341472864151,24.0,4.650000095367432,-12.75,35.664390563964844,0,
 209320,-0.25732421875,-0.944580078125,-0.023193359375,-0.792682945728302,0.12195122241973877,0.27439025044441223,24.0,5.849999904632568,-12.75,35.42477798461914,0,
 209330,-0.262451171875,-0.94140625,-0.0283203125,-1.1890244483947754,0.3353658616542816,0.09146341681480408,22.649999618530273,4.949999809265137,-12.449999809265137,35.664390563964844,0,
 209340,-0.2626953125,-0.9423828125,-0.026611328125,-0.7012194991111755,0.18292683362960815,0.3353658616542816,22.649999618530273,4.5,-11.699999809265137,35.80815887451172,0,
 209351,-0.263427734375,-0.939208984375,-0.026123046875,-0.7012194991111755,0.09146341681480408,0.3353658616542816,22.649999618530273,4.5,-11.699999809265137,35.6164665222168,0,
 209361,-0.256591796875,-0.9423828125,-0.02685546875,-0.7012194991111755,0.060975611209869385,0.4573170840740204,22.649999618530273,5.25,-13.199999809265137,35.80815887451172,0,
 209371,-0.259765625,-0.939697265625,-0.022216796875,-0.060975611209869385,-0.12195122241973877,0.15243902802467346,22.5,7.5,-12.75,35.281005859375,0,
 209381,-0.259033203125,-0.94580078125,-0.021728515625,-0.5487805008888245,0.15243902802467346,0.3658536672592163,22.649999618530273,6.900000095367432,-12.449999809265137,36.143619537353516,0,
 209391,-0.259033203125,-0.946533203125,-0.016845703125,-0.3658536672592163,0.030487805604934692,0.030487805604934692,23.25,4.349999904632568,-15.300000190734863,35.80815887451172,0,
 209401,-0.263671875,-0.93896484375,-0.025634765625,-0.8231707215309143,0.5792682766914368,0.6402438879013062,23.25,4.349999904632568,-15.300000190734863,35.80815887451172,0,
 209411,-0.25732421875,-0.94287109375,-0.02490234375,-0.5487805008888245,0.6402438879013062,0.4268292784690857,23.850000381469727,4.949999809265137,-13.649999618530273,35.80815887451172,0,
 209421,-0.268310546875,-0.94384765625,-0.023193359375,-0.6707317233085632,0.4878048896789551,0.6097561120986938,23.25,4.650000095367432,-12.75,35.281005859375,0,
 209431,-0.257080078125,-0.93798828125,-0.022216796875,-0.3048780560493469,0.27439025044441223,0.12195122241973877,24.450000762939453,5.400000095367432,-12.75,35.80815887451172,0,
 209441,-0.26318359375,-0.9453125,-0.020263671875,-0.4878048896789551,0.3658536672592163,0.4878048896789551,23.25,5.400000095367432,-13.050000190734863,35.52062225341797,0,
 209451,-0.255859375,-0.939697265625,-0.022705078125,-0.27439025044441223,0.060975611209869385,0.15243902802467346,23.25,5.400000095367432,-13.050000190734863,35.856082916259766,0,
 209461,-0.25927734375,-0.9404296875,-0.018798828125,-0.15243902802467346,-0.15243902802467346,0.6707317233085632,21.75,4.650000095367432,-12.75,35.6164665222168,0,
 209471,-0.261962890625,-0.945068359375,-0.022216796875,-0.18292683362960815,0.060975611209869385,0.9146341681480408,22.799999237060547,6.599999904632568,-11.25,35.32892990112305,0,
 209481,-0.259765625,-0.94189453125,-0.02783203125,-0.8841463327407837,0.0,0.396341472864151,22.799999237060547,5.849999904632568,-13.050000190734863,35.951927185058594,0,
 209491,-0.263427734375,-0.947265625,-0.02197265625,-1.0365853309631348,-0.09146341681480408,0.7317073345184326,22.799999237060547,5.849999904632568,-13.050000190734863,35.664390563964844,0,
 209501,-0.25927734375,-0.946044921875,-0.026611328125,-1.1585365533828735,0.12195122241973877,0.5487805008888245,23.100000381469727,5.25,-12.149999618530273,35.6164665222168,0,
 209511,-0.26708984375,-0.9423828125,-0.02490234375,-0.792682945728302,0.5487805008888245,0.7621951103210449,23.100000381469727,5.699999809265137,-12.449999809265137,35.76023483276367,0,
 209521,-0.264892578125,-0.943359375,-0.02587890625,-0.7621951103210449,0.4573170840740204,0.15243902802467346,23.25,6.300000190734863,-12.75,35.52062225341797,0,
 209531,-0.2607421875,-0.9453125,-0.022216796875,-1.1280487775802612,0.15243902802467346,0.3353658616542816,23.549999237060547,5.400000095367432,-11.25,35.664390563964844,0,
 209541,-0.259033203125,-0.945068359375,-0.0283203125,-0.6097561120986938,0.7012194991111755,0.4268292784690857,23.549999237060547,5.400000095367432,-11.25,35.664390563964844,0,
 209551,-0.264892578125,-0.94580078125,-0.02294921875,-1.0365853309631348,0.7317073345184326,0.060975611209869385,22.649999618530273,6.0,-12.899999618530273,35.664390563964844,0,
 209561,-0.26025390625,-0.9384765625,-0.030517578125,-0.3048780560493469,0.4573170840740204,0.3353658616542816,22.5,6.300000190734863,-11.550000190734863,35.664390563964844,0,
 209571,-0.25927734375,-0.943115234375,-0.02490234375,-0.09146341681480408,0.3658536672592163,0.060975611209869385,22.649999618530273,5.699999809265137,-12.449999809265137,35.52062225341797,0,
 209581,-0.25927734375,-0.9453125,-0.0263671875,0.3048780560493469,0.6402438879013062,0.6402438879013062,23.850000381469727,4.5,-12.149999618530273,35.856082916259766,0,
 209591,-0.267333984375,-0.9404296875,-0.02392578125,0.27439025044441223,0.3048780560493469,0.4878048896789551,23.850000381469727,4.5,-12.149999618530273,35.76023483276367,0,
 209601,-0.26123046875,-0.9462890625,-0.02099609375,0.4268292784690857,0.6402438879013062,0.5182926654815674,22.649999618530273,4.5,-13.649999618530273,35.99985122680664,0,
 209611,-0.264892578125,-0.942138671875,-0.022705078125,0.24390244483947754,0.21341463923454285,0.5182926654815674,21.450000762939453,7.199999809265137,-14.399999618530273,35.664390563964844,0,
 209621,-0.261962890625,-0.950439453125,-0.026611328125,-0.3658536672592163,0.4878048896789551,0.5792682766914368,23.549999237060547,6.300000190734863,-16.5,35.32892990112305,0,
 209631,-0.259521484375,-0.946533203125,-0.028076171875,0.0,0.4268292784690857,0.6707317233085632,23.549999237060547,6.300000190734863,-16.5,35.664390563964844,0,
 209641,-0.259765625,-0.93994140625,-0.021484375,-0.060975611209869385,0.6097561120986938,0.4573170840740204,21.149999618530273,6.449999809265137,-13.949999809265137,35.6164665222168,0,
 209651,-0.26025390625,-0.94189453125,-0.02978515625,0.09146341681480408,0.21341463923454285,0.7317073345184326,23.399999618530273,4.5,-15.449999809265137,35.23308563232422,0,
 209661,-0.2626953125,-0.941650390625,-0.026611328125,0.18292683362960815,-0.030487805604934692,0.5182926654815674,22.799999237060547,3.9000000953674316,-12.300000190734863,35.856082916259766,0,
 209671,-0.256591796875,-0.943603515625,-0.02880859375,0.27439025044441223,0.060975611209869385,0.3658536672592163,22.799999237060547,6.599999904632568,-12.75,35.80815887451172,0,
 209681,-0.259521484375,-0.946044921875,-0.022216796875,-0.030487805604934692,-0.030487805604934692,0.27439025044441223,22.799999237060547,6.599999904632568,-12.75,35.6164665222168,0,
 209691,-0.261474609375,-0.945556640625,-0.023681640625,0.21341463923454285,-0.030487805604934692,0.6402438879013062,22.799999237060547,6.300000190734863,-12.0,35.6164665222168,0,
 209701,-0.264892578125,-0.948974609375,-0.0166015625,-0.15243902802467346,0.12195122241973877,0.396341472864151,24.0,3.450000047683716,-15.75,35.6164665222168,0,
 209711,-0.268310546875,-0.94482421875,-0.020263671875,-0.7317073345184326,0.4573170840740204,0.3048780560493469,24.149999618530273,5.699999809265137,-11.699999809265137,35.52062225341797,0,
 209721,-0.266845703125,-0.945556640625,-0.0185546875,-1.25,0.5182926654815674,0.4268292784690857,24.600000381469727,6.0,-12.149999618530273,35.76023483276367,0,
 209731,-0.26318359375,-0.94921875,-0.020751953125,-1.7073171138763428,0.7621951103210449,0.5487805008888245,24.600000381469727,6.0,-12.149999618530273,35.664390563964844,0,
 209741,-0.261474609375,-0.936279296875,-0.023681640625,-1.5548781156539917,0.6707317233085632,0.6707317233085632,24.450000762939453,6.300000190734863,-16.799999237060547,35.664390563964844,0,
 209751,-0.267578125,-0.94091796875,-0.02783203125,-1.432926893234253,0.7317073345184326,0.9756097793579102,21.0,5.099999904632568,-16.5,35.76023483276367,0,
 209761,-0.2587890625,-0.939208984375,-0.026611328125,-1.4634146690368652,0.4268292784690857,0.4878048896789551,23.25,2.700000047683716,-16.799999237060547,35.6164665222168,0,
 209771,-0.259765625,-0.94482421875,-0.02587890625,-1.3719512224197388,0.3048780560493469,0.3353658616542816,23.25,2.700000047683716,-16.799999237060547,35.80815887451172,0,
 209781,-0.26025390625,-0.94873046875,-0.02099609375,-1.25,0.3353658616542816,0.4573170840740204,22.799999237060547,5.849999904632568,-13.5,35.6164665222168,0,
 209791,-0.262939453125,-0.943603515625,-0.022216796875,-1.1585365533828735,0.21341463923454285,0.15243902802467346,23.399999618530273,4.949999809265137,-13.649999618530273,35.281005859375,0,
 209801,-0.261474609375,-0.9443359375,-0.02490234375,-1.3414634466171265,0.3658536672592163,0.060975611209869385,22.649999618530273,6.0,-18.450000762939453,35.856082916259766,0,
 209811,-0.26416015625,-0.93798828125,-0.0205078125,-1.2195122241973877,0.3658536672592163,-0.030487805604934692,22.799999237060547,5.849999904632568,-12.75,35.32892990112305,0,
 209821,-0.26025390625,-0.94384765625,-0.021728515625,-1.432926893234253,0.09146341681480408,0.09146341681480408,22.799999237060547,5.849999904632568,-12.75,35.99985122680664,0,
 209831,-0.2685546875,-0.945068359375,-0.02294921875,-1.1890244483947754,0.4268292784690857,0.27439025044441223,23.399999618530273,6.0,-12.449999809265137,35.664390563964844,0,
 209841,-0.266357421875,-0.944091796875,-0.02490234375,-1.3414634466171265,0.5182926654815674,0.060975611209869385,23.850000381469727,5.699999809265137,-11.699999809265137,35.76023483276367,0,
 209851,-0.26513671875,-0.944580078125,-0.0283203125,-1.5243902206420898,0.4878048896789551,0.4268292784690857,23.399999618530273,6.0,-11.699999809265137,35.664390563964844,0,
 209861,-0.265380859375,-0.944580078125,-0.0244140625,-1.2804877758026123,0.5487805008888245,0.3353658616542816,22.5,4.349999904632568,-12.75,35.52062225341797,0,
 209871,-0.259033203125,-0.941650390625,-0.026611328125,-1.25,0.6097561120986938,0.27439025044441223,22.5,4.349999904632568,-12.75,35.6164665222168,0,
 209881,-0.26220703125,-0.939453125,-0.024658203125,-1.3414634466171265,0.5487805008888245,0.6707317233085632,23.399999618530273,6.0,-13.199999809265137,35.664390563964844,0,
 209891,-0.265625,-0.935546875,-0.0302734375,-0.9756097793579102,0.4573170840740204,0.18292683362960815,24.149999618530273,6.900000095367432,-13.199999809265137,35.76023483276367,0,
 209901,-0.262451171875,-0.93603515625,-0.026611328125,-0.18292683362960815,0.24390244483947754,0.24390244483947754,24.149999618530273,7.199999809265137,-15.149999618530273,35.76023483276367,0,
 209911,-0.26318359375,-0.94287109375,-0.025390625,0.4878048896789551,0.060975611209869385,0.396341472864151,24.149999618530273,7.199999809265137,-15.149999618530273,35.664390563964844,0,
 209921,-0.26416015625,-0.935546875,-0.0283203125,0.4268292784690857,-0.15243902802467346,0.060975611209869385,23.25,5.099999904632568,-14.25,35.856082916259766,0,
 209931,-0.2666015625,-0.94580078125,-0.024169921875,0.396341472864151,0.0,0.396341472864151,22.799999237060547,5.099999904632568,-13.5,35.6164665222168,0,
 209941,-0.266845703125,-0.94482421875,-0.022705078125,0.0,0.24390244483947754,0.21341463923454285,21.899999618530273,5.25,-13.199999809265137,35.6164665222168,0,
 209951,-0.26171875,-0.941650390625,-0.021728515625,-0.24390244483947754,0.5487805008888245,0.3353658616542816,23.850000381469727,6.0,-16.950000762939453,35.80815887451172,0,
 209961,-0.25830078125,-0.94921875,-0.023681640625,-0.27439025044441223,0.5792682766914368,0.3353658616542816,23.850000381469727,6.0,-16.950000762939453,35.32892990112305,0,
 209971,-0.2646484375,-0.945556640625,-0.02587890625,-0.7317073345184326,0.4878048896789551,-0.060975611209869385,24.0,3.9000000953674316,-12.75,35.80815887451172,0,
 209981,-0.259521484375,-0.94189453125,-0.023681640625,-0.7621951103210449,1.0365853309631348,-0.030487805604934692,23.549999237060547,5.849999904632568,-13.5,35.76023483276367,0,
 209991,-0.25927734375,-0.945068359375,-0.0244140625,-0.6402438879013062,0.7621951103210449,-0.27439025044441223,22.649999618530273,6.449999809265137,-12.149999618530273,35.664390563964844,0,
 210001,-0.259521484375,-0.94140625,-0.03076171875,-0.4878048896789551,0.9146341681480408,0.4573170840740204,22.200000762939453,5.699999809265137,-14.399999618530273,35.52062225341797,0,
 210011,-0.2607421875,-0.9404296875,-0.02685546875,-0.6097561120986938,0.4573170840740204,0.5487805008888245,22.200000762939453,5.699999809265137,-14.399999618530273,35.42477798461914,0,
 210021,-0.261962890625,-0.9482421875,-0.02294921875,-0.3353658616542816,0.3048780560493469,0.4878048896789551,21.75,6.300000190734863,-10.050000190734863,35.80815887451172,0,
 210031,-0.268310546875,-0.940673828125,-0.021484375,-0.24390244483947754,0.0,0.7317073345184326,20.399999618530273,5.25,-13.949999809265137,35.856082916259766,0,
 210041,-0.2587890625,-0.9443359375,-0.02099609375,-0.18292683362960815,-0.15243902802467346,0.5792682766914368,23.100000381469727,2.8499999046325684,-13.949999809265137,35.80815887451172,0,
 210051,-0.265625,-0.943115234375,-0.0263671875,0.4268292784690857,-0.3048780560493469,0.3353658616542816,23.100000381469727,2.8499999046325684,-13.949999809265137,35.664390563964844,0,
 210061,-0.263916015625,-0.94677734375,-0.022705078125,0.09146341681480408,-0.21341463923454285,0.21341463923454285,23.549999237060547,5.400000095367432,-12.300000190734863,35.52062225341797,0,
 210071,-0.26123046875,-0.9462890625,-0.01904296875,-0.12195122241973877,-0.09146341681480408,0.4268292784690857,22.5,5.099999904632568,-12.75,35.856082916259766,0,
 210081,-0.267333984375,-0.948486328125,-0.022216796875,-0.3658536672592163,0.09146341681480408,0.4268292784690857,24.149999618530273,4.949999809265137,-12.449999809265137,35.664390563964844,0,
 210091,-0.263671875,-0.942138671875,-0.021240234375,-0.7012194991111755,0.24390244483947754,0.3048780560493469,22.5,5.849999904632568,-12.75,35.6164665222168,0,
 210101,-0.26318359375,-0.944091796875,-0.024169921875,-0.9146341681480408,0.4268292784690857,0.27439025044441223,22.5,5.849999904632568,-12.75,35.6164665222168,0,
 210111,-0.266845703125,-0.9404296875,-0.02294921875,-1.0365853309631348,0.3658536672592163,0.24390244483947754,22.649999618530273,6.449999809265137,-13.949999809265137,35.52062225341797,0,
 210121,-0.26171875,-0.93896484375,-0.01904296875,-1.097561001777649,0.7317073345184326,0.24390244483947754,24.600000381469727,5.25,-11.699999809265137,35.281005859375,0,
 210132,-0.262451171875,-0.94140625,-0.027587890625,-1.0060975551605225,0.4878048896789551,0.09146341681480408,24.0,4.650000095367432,-12.0,35.281005859375,0,
 210142,-0.267333984375,-0.944091796875,-0.0283203125,-0.5792682766914368,0.27439025044441223,0.060975611209869385,23.100000381469727,4.5,-13.949999809265137,35.76023483276367,0,
 210152,-0.25927734375,-0.94189453125,-0.020263671875,-0.8841463327407837,-0.030487805604934692,0.3048780560493469,23.100000381469727,4.5,-13.949999809265137,35.664390563964844,0,
 210162,-0.257080078125,-0.946044921875,-0.024169921875,-0.8231707215309143,0.12195122241973877,-0.030487805604934692,23.100000381469727,4.949999809265137,-12.899999618530273,35.76023483276367,0,
 210172,-0.26318359375,-0.944580078125,-0.02294921875,-0.9756097793579102,0.4878048896789551,0.5182926654815674,24.0,2.700000047683716,-13.5,35.80815887451172,0,
 210182,-0.264404296875,-0.94091796875,-0.025634765625,-0.6402438879013062,0.3048780560493469,0.6402438879013062,22.649999618530273,6.449999809265137,-11.399999618530273,35.856082916259766,0,
 210192,-0.2578125,-0.944091796875,-0.02783203125,-0.9146341681480408,0.3353658616542816,0.8841463327407837,22.649999618530273,6.449999809265137,-11.399999618530273,35.80815887451172,0,
 210202,-0.2626953125,-0.944580078125,-0.02392578125,-0.7012194991111755,0.0,0.5792682766914368,24.600000381469727,4.949999809265137,-12.149999618530273,35.52062225341797,0,
 210212,-0.260986328125,-0.938720703125,-0.025634765625,-0.5182926654815674,0.21341463923454285,0.5792682766914368,23.850000381469727,2.0999999046325684,-14.399999618530273,35.80815887451172,0,
 210222,-0.264892578125,-0.9384765625,-0.0234375,-0.5182926654815674,0.24390244483947754,0.09146341681480408,22.799999237060547,6.599999904632568,-13.050000190734863,35.42477798461914,0,
 210232,-0.26025390625,-0.94482421875,-0.02294921875,-0.21341463923454285,0.12195122241973877,0.12195122241973877,22.649999618530273,5.25,-12.449999809265137,35.6164665222168,0,
 210242,-0.259521484375,-0.947998046875,-0.027099609375,-0.3353658616542816,0.4878048896789551,0.15243902802467346,22.649999618530273,5.25,-12.449999809265137,35.856082916259766,0,
 210252,-0.25927734375,-0.949951171875,-0.022216796875,-0.8536585569381714,0.6707317233085632,0.060975611209869385,22.649999618530273,5.699999809265137,-12.149999618530273,35.6164665222168,0,
 210262,-0.2666015625,-0.948974609375,-0.02587890625,-0.8841463327407837,0.792682945728302,0.21341463923454285,23.399999618530273,5.25,-12.449999809265137,35.664390563964844,0,
 210272,-0.263916015625,-0.947509765625,-0.025634765625,-1.0670732259750366,0.5182926654815674,0.4573170840740204,22.5,6.599999904632568,-13.050000190734863,35.856082916259766,0,
 210282,-0.260986328125,-0.94384765625,-0.025146484375,-0.9451219439506531,0.6707317233085632,0.6097561120986938,23.100000381469727,5.699999809265137,-13.649999618530273,35.76023483276367,0,
 210292,-0.259033203125,-0.944580078125,-0.025634765625,-0.3658536672592163,0.3048780560493469,0.24390244483947754,23.100000381469727,5.699999809265137,-13.649999618530273,35.42477798461914,0,
 210302,-0.26611328125,-0.94384765625,-0.027099609375,-0.5182926654815674,0.21341463923454285,0.4573170840740204,22.200000762939453,6.0,-13.199999809265137,35.6164665222168,0,
 210312,-0.260498046875,-0.942626953125,-0.027099609375,-0.4878048896789551,-0.12195122241973877,0.5182926654815674,25.350000381469727,6.0,-14.399999618530273,35.6164665222168,0,
 210322,-0.26318359375,-0.94677734375,-0.021728515625,-0.8841463327407837,0.060975611209869385,0.27439025044441223,24.899999618530273,7.199999809265137,-11.699999809265137,35.664390563964844,0,
 210332,-0.26611328125,-0.945068359375,-0.02587890625,-0.3353658616542816,0.18292683362960815,0.5182926654815674,24.899999618530273,7.199999809265137,-11.699999809265137,35.856082916259766,0,
 210342,-0.263671875,-0.93994140625,-0.029296875,-0.27439025044441223,0.3048780560493469,0.6707317233085632,23.25,5.099999904632568,-13.050000190734863,35.856082916259766,0,
 210352,-0.26416015625,-0.94677734375,-0.0263671875,-0.4268292784690857,0.15243902802467346,0.3658536672592163,23.100000381469727,5.699999809265137,-13.949999809265137,35.281005859375,0,
 210362,-0.261962890625,-0.941162109375,-0.025634765625,-0.4878048896789551,0.18292683362960815,0.4573170840740204,22.649999618530273,6.0,-11.699999809265137,35.76023483276367,0,
 210372,-0.263671875,-0.943359375,-0.022216796875,-0.6097561120986938,0.3353658616542816,0.18292683362960815,23.399999618530273,5.699999809265137,-12.899999618530273,35.6164665222168,0,
 210382,-0.259521484375,-0.94384765625,-0.0244140625,-0.4573170840740204,0.3353658616542816,0.24390244483947754,23.399999618530273,5.699999809265137,-12.899999618530273,35.80815887451172,0,
 210392,-0.25927734375,-0.9404296875,-0.02294921875,-0.5487805008888245,0.792682945728302,-0.060975611209869385,23.850000381469727,6.0,-12.449999809265137,35.76023483276367,0,
 210402,-0.262939453125,-0.94140625,-0.026123046875,-1.0365853309631348,0.5792682766914368,0.3353658616542816,23.850000381469727,4.949999809265137,-12.149999618530273,35.281005859375,0,
 210412,-0.264404296875,-0.9404296875,-0.027587890625,-1.0365853309631348,0.396341472864151,0.27439025044441223,21.75,9.0,-13.800000190734863,35.6164665222168,0,
 210422,-0.263427734375,-0.94189453125,-0.030029296875,-0.8231707215309143,0.7317073345184326,-0.15243902802467346,22.799999237060547,5.849999904632568,-12.300000190734863,35.80815887451172,0,
 210432,-0.2626953125,-0.950927734375,-0.0302734375,-0.27439025044441223,0.8841463327407837,0.060975611209869385,22.799999237060547,5.849999904632568,-12.300000190734863,35.80815887451172,0,
 210442,-0.262451171875,-0.940673828125,-0.0302734375,-0.4573170840740204,0.3658536672592163,0.0,24.450000762939453,4.349999904632568,-12.75,35.76023483276367,0,
 210452,-0.264404296875,-0.94091796875,-0.02880859375,0.0,0.09146341681480408,0.4268292784690857,23.25,5.400000095367432,-12.0,35.52062225341797,0,
 210462,-0.263671875,-0.945068359375,-0.028076171875,0.060975611209869385,0.18292683362960815,0.3353658616542816,23.25,4.650000095367432,-12.75,35.951927185058594,0,
 210472,-0.264404296875,-0.94970703125,-0.024658203125,-0.09146341681480408,0.15243902802467346,0.4573170840740204,23.25,4.650000095367432,-12.75,35.6164665222168,0,
 210482,-0.26806640625,-0.94482421875,-0.0283203125,-0.396341472864151,-0.060975611209869385,0.9146341681480408,21.450000762939453,6.0,-13.199999809265137,35.6164665222168,0,
 210492,-0.25927734375,-0.945556640625,-0.024169921875,-0.4573170840740204,0.24390244483947754,0.5182926654815674,23.399999618530273,4.5,-13.649999618530273,35.42477798461914,0,
 210502,-0.260986328125,-0.938720703125,-0.022705078125,-0.3658536672592163,0.396341472864151,0.7317073345184326,23.100000381469727,4.5,-12.449999809265137,35.281005859375,0,
 210512,-0.263671875,-0.939697265625,-0.029296875,-0.5182926654815674,0.24390244483947754,0.0,22.799999237060547,6.300000190734863,-12.75,35.76023483276367,0,
 210522,-0.263671875,-0.938232421875,-0.030517578125,-0.060975611209869385,0.3658536672592163,-0.3658536672592163,22.799999237060547,6.300000190734863,-12.75,35.856082916259766,0,
 210532,-0.267578125,-0.9404296875,-0.02734375,-0.5792682766914368,0.4268292784690857,-0.21341463923454285,21.75,5.400000095367432,-13.800000190734863,35.664390563964844,0,
 210542,-0.2607421875,-0.9453125,-0.025390625,-0.792682945728302,0.8536585569381714,-0.18292683362960815,23.399999618530273,6.449999809265137,-12.899999618530273,35.6164665222168,0,
 210552,-0.26123046875,-0.94482421875,-0.024169921875,-1.1585365533828735,0.7012194991111755,-0.3048780560493469,24.0,4.349999904632568,-14.550000190734863,35.80815887451172,0,
 210562,-0.26318359375,-0.947021484375,-0.027099609375,-0.8841463327407837,0.9146341681480408,-0.24390244483947754,23.850000381469727,6.0,-13.949999809265137,35.6164665222168,0,
 210572,-0.253173828125,-0.943359375,-0.0283203125,-0.8841463327407837,0.792682945728302,0.18292683362960815,23.850000381469727,6.0,-13.949999809265137,35.6164665222168,0,
 210582,-0.260498046875,-0.946044921875,-0.032958984375,-0.4878048896789551,0.18292683362960815,0.15243902802467346,21.899999618530273,4.050000190734863,-12.149999618530273,35.856082916259766,0,
 210592,-0.265380859375,-0.943359375,-0.029296875,0.4878048896789551,-0.4268292784690857,0.8231707215309143,23.100000381469727,6.0,-12.899999618530273,35.32892990112305,0,
 210602,-0.264892578125,-0.933837890625,-0.031005859375,0.8231707215309143,-0.4878048896789551,0.27439025044441223,24.0,5.849999904632568,-13.050000190734863,35.6164665222168,0,
 210612,-0.258544921875,-0.939453125,-0.030029296875,1.2195122241973877,-0.8231707215309143,0.396341472864151,24.0,5.849999904632568,-13.050000190734863,35.664390563964844,0,
 210622,-0.26025390625,-0.9375,-0.025390625,1.6768293380737305,-1.0060975551605225,-0.21341463923454285,24.450000762939453,2.700000047683716,-15.300000190734863,36.04777145385742,0,
 210632,-0.260986328125,-0.9482421875,-0.01953125,0.9146341681480408,-0.8841463327407837,-0.3353658616542816,22.799999237060547,5.849999904632568,-14.25,35.664390563964844,0,
 210642,-0.265869140625,-0.96044921875,-0.02294921875,0.24390244483947754,-0.5182926654815674,-0.4878048896789551,24.149999618530273,4.949999809265137,-12.899999618530273,35.42477798461914,0,
 210652,-0.271728515625,-0.945068359375,-0.021728515625,-0.8536585569381714,-0.09146341681480408,-0.3658536672592163,23.25,6.599999904632568,-12.300000190734863,35.76023483276367,0,
 210662,-0.261474609375,-0.949462890625,-0.017333984375,-1.1890244483947754,0.3353658616542816,-0.8231707215309143,23.25,6.599999904632568,-12.300000190734863,35.951927185058594,0,
 210672,-0.26513671875,-0.943115234375,-0.017578125,-1.920731782913208,0.3048780560493469,-0.9451219439506531,22.649999618530273,5.25,-13.199999809265137,35.42477798461914,0,
 210682,-0.267822265625,-0.950927734375,-0.01806640625,-1.920731782913208,0.4573170840740204,-0.7621951103210449,24.0,5.099999904632568,-12.0,35.951927185058594,0,
 210692,-0.260986328125,-0.946533203125,-0.020751953125,-3.1402440071105957,0.9756097793579102,-0.792682945728302,23.549999237060547,5.849999904632568,-13.800000190734863,35.6164665222168,0,
 210702,-0.26318359375,-0.94580078125,-0.0205078125,-3.079268455505371,1.1280487775802612,-1.0670732259750366,22.049999237060547,6.300000190734863,-13.5,35.80815887451172,0,
 210712,-0.25732421875,-0.938720703125,-0.032958984375,-3.262195110321045,1.097561001777649,-0.792682945728302,23.25,5.400000095367432,-12.300000190734863,35.664390563964844,0,
 210722,-0.25537109375,-0.943603515625,-0.0302734375,-3.0182926654815674,1.1585365533828735,-0.3353658616542816,25.5,7.5,-14.550000190734863,35.664390563964844,0,
 210732,-0.26025390625,-0.941162109375,-0.031494140625,-2.4390244483947754,0.9756097793579102,0.12195122241973877,23.100000381469727,5.25,-13.199999809265137,35.76023483276367,0,
 210742,-0.256591796875,-0.934814453125,-0.02880859375,-1.6768293380737305,1.1585365533828735,0.4268292784690857,23.25,5.849999904632568,-10.800000190734863,35.6164665222168,0,
 210752,-0.257568359375,-0.940185546875,-0.033935546875,-1.1280487775802612,0.8231707215309143,0.7621951103210449,23.25,5.849999904632568,-10.800000190734863,35.856082916259766,0,
 210762,-0.263916015625,-0.9375,-0.0322265625,-0.3658536672592163,0.4878048896789551,1.1280487775802612,23.850000381469727,6.449999809265137,-12.149999618530273,35.80815887451172,0,
 210772,-0.265625,-0.93994140625,-0.032958984375,0.24390244483947754,0.12195122241973877,1.2195122241973877,21.450000762939453,5.25,-11.699999809265137,35.80815887451172,0,
 210782,-0.260986328125,-0.93896484375,-0.027099609375,1.2195122241973877,-0.27439025044441223,0.9756097793579102,21.450000762939453,5.699999809265137,-12.149999618530273,35.856082916259766,0,
 210792,-0.2626953125,-0.939453125,-0.02587890625,1.737804889678955,-1.0060975551605225,1.585365891456604,22.5,5.849999904632568,-13.050000190734863,35.281005859375,0,
 210802,-0.26220703125,-0.939697265625,-0.031005859375,2.195122003555298,-1.097561001777649,1.0060975551605225,22.5,5.849999904632568,-13.050000190734863,35.80815887451172,0,
 210812,-0.263427734375,-0.94189453125,-0.0234375,2.5304877758026123,-1.2195122241973877,0.9146341681480408,22.049999237060547,6.300000190734863,-13.050000190734863,35.80815887451172,0,
 210822,-0.26513671875,-0.948486328125,-0.0185546875,2.1646342277526855,-0.7317073345184326,0.4878048896789551,20.399999618530273,7.650000095367432,-13.199999809265137,35.6164665222168,0,
 210833,-0.267822265625,-0.943115234375,-0.014404296875,1.4939024448394775,-0.7012194991111755,0.12195122241973877,23.25,6.599999904632568,-11.550000190734863,36.04777145385742,0,
 210843,-0.261474609375,-0.9560546875,-0.015869140625,0.7012194991111755,0.21341463923454285,-0.21341463923454285,22.799999237060547,5.099999904632568,-11.550000190734863,35.32892990112305,0,
 210853,-0.262939453125,-0.950927734375,-0.015869140625,-0.8536585569381714,0.792682945728302,-0.12195122241973877,22.649999618530273,7.199999809265137,-12.149999618530273,35.76023483276367,0,
 210863,-0.26318359375,-0.948486328125,-0.01806640625,-1.8902438879013062,1.4939024448394775,-0.3353658616542816,23.100000381469727,4.949999809265137,-12.449999809265137,35.951927185058594,0,
 210873,-0.2587890625,-0.9453125,-0.02392578125,-2.3475611209869385,2.103658676147461,-0.4268292784690857,23.25,5.849999904632568,-12.300000190734863,35.80815887451172,0,
 210883,-0.255859375,-0.93896484375,-0.0322265625,-2.3475611209869385,1.737804889678955,-0.6707317233085632,22.200000762939453,4.5,-12.899999618530273,35.664390563964844,0,
 210893,-0.257080078125,-0.93603515625,-0.035400390625,-2.408536672592163,1.5243902206420898,0.060975611209869385,22.200000762939453,4.5,-12.899999618530273,35.6164665222168,0,
 210903,-0.25439453125,-0.94482421875,-0.03759765625,-1.3109756708145142,0.9756097793579102,0.0,23.100000381469727,6.449999809265137,-12.899999618530273,35.664390563964844,0,
 210913,-0.255859375,-0.9423828125,-0.0322265625,-0.3353658616542816,0.18292683362960815,0.18292683362960815,23.100000381469727,5.699999809265137,-13.199999809265137,35.6164665222168,0,
 210923,-0.258544921875,-0.94189453125,-0.028564453125,0.3048780560493469,-0.3048780560493469,0.6707317233085632,21.450000762939453,5.25,-12.149999618530273,35.76023483276367,0,
 210933,-0.26513671875,-0.948486328125,-0.02587890625,0.5182926654815674,-0.6097561120986938,0.7317073345184326,24.899999618530273,4.050000190734863,-15.449999809265137,35.76023483276367,0,
 210943,-0.2646484375,-0.945068359375,-0.01904296875,0.5487805008888245,-0.6402438879013062,0.3658536672592163,24.899999618530273,4.050000190734863,-15.449999809265137,35.32892990112305,0,
 210953,-0.263427734375,-0.940185546875,-0.0185546875,-0.27439025044441223,-0.3048780560493469,0.4268292784690857,23.399999618530273,4.949999809265137,-12.449999809265137,35.856082916259766,0,
 210963,-0.262939453125,-0.950927734375,-0.017822265625,-0.5182926654815674,0.3048780560493469,0.09146341681480408,21.450000762939453,6.900000095367432,-11.699999809265137,35.951927185058594,0,
 210973,-0.26123046875,-0.9453125,-0.020751953125,-1.0060975551605225,0.6097561120986938,-0.27439025044441223,23.850000381469727,6.900000095367432,-12.899999618530273,35.6164665222168,0,
 210983,-0.26416015625,-0.940185546875,-0.02734375,-1.7987805604934692,1.097561001777649,-0.12195122241973877,23.549999237060547,6.300000190734863,-12.300000190734863,35.856082916259766,0,
 210993,-0.26513671875,-0.94189453125,-0.021728515625,-1.920731782913208,1.5243902206420898,-0.5182926654815674,23.100000381469727,6.0,-12.149999618530273,35.32892990112305,0,
 211003,-0.255126953125,-0.94482421875,-0.02392578125,-2.0731706619262695,1.3414634466171265,-0.3353658616542816,22.799999237060547,5.400000095367432,-11.550000190734863,35.6164665222168,0,
 211013,-0.259521484375,-0.94140625,-0.029541015625,-1.9512195587158203,1.3414634466171265,-0.3048780560493469,22.649999618530273,4.050000190734863,-12.449999809265137,35.664390563964844,0,
 211023,-0.258056640625,-0.94091796875,-0.034912109375,-1.432926893234253,1.0670732259750366,0.0,22.049999237060547,5.400000095367432,-12.75,35.52062225341797,0,
 211033,-0.25634765625,-0.936279296875,-0.03271484375,-0.792682945728302,0.9146341681480408,0.396341472864151,22.049999237060547,5.400000095367432,-12.75,35.52062225341797,0,
 211043,-0.261474609375,-0.9384765625,-0.035400390625,0.6707317233085632,-0.12195122241973877,0.4268292784690857,22.649999618530273,6.0,-10.949999809265137,35.6164665222168,0,
 211053,-0.260498046875,-0.9404296875,-0.03271484375,1.4939024448394775,-0.4268292784690857,0.3658536672592163,23.850000381469727,6.0,-12.899999618530273,35.80815887451172,0,
 211063,-0.256103515625,-0.943115234375,-0.03173828125,2.2560975551605225,-0.5792682766914368,0.7317073345184326,23.25,5.849999904632568,-12.300000190734863,35.6164665222168,0,
 211073,-0.255615234375,-0.9482421875,-0.031982421875,2.4695122241973877,-0.8841463327407837,0.5182926654815674,23.100000381469727,5.699999809265137,-11.699999809265137,35.76023483276367,0,
 211083,-0.26171875,-0.94287109375,-0.02685546875,2.4390244483947754,-0.8841463327407837,0.4878048896789551,23.100000381469727,5.699999809265137,-11.699999809265137,35.52062225341797,0,
 211093,-0.255615234375,-0.94677734375,-0.02001953125,1.5243902206420898,-0.6402438879013062,0.6402438879013062,24.600000381469727,6.449999809265137,-13.649999618530273,35.80815887451172,0,
 211103,-0.262939453125,-0.951416015625,-0.015380859375,1.0060975551605225,-0.4268292784690857,0.6707317233085632,23.399999618530273,7.199999809265137,-13.949999809265137,35.856082916259766,0,
 211113,-0.266845703125,-0.951171875,-0.0146484375,-0.12195122241973877,0.18292683362960815,0.8841463327407837,24.450000762939453,7.050000190734863,-12.0,35.76023483276367,0,
 211123,-0.26171875,-0.951171875,-0.013671875,-0.6097561120986938,0.3658536672592163,0.6097561120986938,24.149999618530273,6.0,-12.449999809265137,35.664390563964844,0,
 211133,-0.261474609375,-0.938720703125,-0.0244140625,-0.7012194991111755,0.3658536672592163,0.4573170840740204,25.5,7.050000190734863,-16.799999237060547,35.6164665222168,0,
 211143,-0.259033203125,-0.93798828125,-0.0244140625,-1.1585365533828735,0.7621951103210449,0.18292683362960815,24.600000381469727,5.699999809265137,-11.699999809265137,35.6164665222168,0,
 211153,-0.2607421875,-0.936279296875,-0.02294921875,-1.432926893234253,0.15243902802467346,-0.060975611209869385,22.5,4.650000095367432,-11.550000190734863,35.856082916259766,0,
 211163,-0.26171875,-0.93896484375,-0.024658203125,-1.2804877758026123,0.4878048896789551,-0.27439025044441223,23.100000381469727,6.0,-12.449999809265137,35.281005859375,0,
 211173,-0.266357421875,-0.951416015625,-0.022705078125,-1.7682926654815674,0.6402438879013062,-0.7012194991111755,23.100000381469727,6.0,-12.449999809265137,35.76023483276367,0,
 211183,-0.259033203125,-0.951416015625,-0.020751953125,-1.585365891456604,0.6707317233085632,-0.4573170840740204,23.399999618530273,6.0,-12.449999809265137,35.42477798461914,0,
 211193,-0.266357421875,-0.947021484375,-0.026611328125,-1.7073171138763428,0.6707317233085632,-0.12195122241973877,23.399999618530273,5.25,-12.899999618530273,35.856082916259766,0,
 211203,-0.266357421875,-0.940673828125,-0.02734375,-1.7682926654815674,0.5487805008888245,-0.3048780560493469,23.399999618530273,4.949999809265137,-12.149999618530273,35.664390563964844,0,
 211213,-0.2578125,-0.941162109375,-0.0283203125,-1.585365891456604,0.8841463327407837,-0.060975611209869385,22.649999618530273,5.25,-13.649999618530273,35.80815887451172,0,
 211223,-0.257080078125,-0.939453125,-0.03076171875,-1.3719512224197388,0.6097561120986938,0.24390244483947754,22.649999618530273,5.25,-13.649999618530273,35.856082916259766,0,
 211233,-0.26123046875,-0.942626953125,-0.030029296875,-0.21341463923454285,0.4573170840740204,0.3048780560493469,21.899999618530273,5.25,-13.949999809265137,35.6164665222168,0,
 211243,-0.261474609375,-0.943359375,-0.026611328125,0.09146341681480408,0.09146341681480408,0.3658536672592163,23.399999618530273,7.650000095367432,-11.699999809265137,35.951927185058594,0,
 211253,-0.25634765625,-0.94091796875,-0.02685546875,0.15243902802467346,0.15243902802467346,0.4878048896789551,22.649999618530273,6.449999809265137,-10.649999618530273,35.6164665222168,0,
 211263,-0.260986328125,-0.93994140625,-0.02001953125,0.6402438879013062,-0.21341463923454285,0.5182926654815674,24.0,5.400000095367432,-12.75,35.42477798461914,0,
 211273,-0.26171875,-0.943359375,-0.031005859375,0.3658536672592163,0.15243902802467346,0.6402438879013062,23.100000381469727,6.900000095367432,-12.449999809265137,35.99985122680664,0,
 211283,-0.2607421875,-0.940673828125,-0.01953125,0.4573170840740204,0.030487805604934692,0.792682945728302,22.799999237060547,5.849999904632568,-12.75,35.6164665222168,0,
 211293,-0.262451171875,-0.946533203125,-0.0224609375,0.24390244483947754,0.3048780560493469,0.6097561120986938,23.25,6.599999904632568,-13.050000190734863,35.664390563964844,0,
 211303,-0.265625,-0.945068359375,-0.017822265625,-0.396341472864151,0.3353658616542816,0.5487805008888245,23.850000381469727,6.449999809265137,-10.649999618530273,35.80815887451172,0,
 211313,-0.267822265625,-0.942138671875,-0.020263671875,-0.7621951103210449,0.4573170840740204,0.3658536672592163,23.850000381469727,6.449999809265137,-10.649999618530273,35.80815887451172,0,
 211323,-0.258544921875,-0.949951171875,-0.023193359375,-1.2804877758026123,0.4268292784690857,-0.15243902802467346,23.549999237060547,6.599999904632568,-12.75,35.6164665222168,0,
 211333,-0.261962890625,-0.948974609375,-0.02734375,-1.8292683362960815,0.8536585569381714,0.3658536672592163,23.25,6.300000190734863,-12.75,35.664390563964844,0,
 211343,-0.262451171875,-0.943115234375,-0.031982421875,-1.4939024448394775,0.7317073345184326,0.396341472864151,23.399999618530273,3.299999952316284,-14.399999618530273,35.856082916259766,0,
 211353,-0.262451171875,-0.943115234375,-0.029541015625,-0.9146341681480408,0.24390244483947754,0.396341472864151,23.25,5.400000095367432,-12.300000190734863,35.664390563964844,0,
 211363,-0.2626953125,-0.941650390625,-0.0322265625,-1.1890244483947754,-0.030487805604934692,0.5792682766914368,23.25,5.400000095367432,-12.300000190734863,35.76023483276367,0,
 211373,-0.255615234375,-0.93994140625,-0.03125,-0.24390244483947754,-0.15243902802467346,0.5487805008888245,23.100000381469727,5.25,-12.149999618530273,35.42477798461914,0,
 211383,-0.258056640625,-0.943359375,-0.027099609375,0.060975611209869385,-0.3353658616542816,0.21341463923454285,24.600000381469727,5.25,-11.699999809265137,35.52062225341797,0,
 211393,-0.2587890625,-0.943359375,-0.019287109375,-0.030487805604934692,-0.3048780560493469,0.18292683362960815,23.549999237060547,6.300000190734863,-12.75,35.99985122680664,0,
 211403,-0.26708984375,-0.94287109375,-0.0205078125,0.18292683362960815,-0.5487805008888245,0.0,24.600000381469727,6.900000095367432,-13.649999618530273,35.52062225341797,0,
 211413,-0.262451171875,-0.94775390625,-0.03076171875,-0.24390244483947754,-0.21341463923454285,0.030487805604934692,24.600000381469727,6.900000095367432,-13.649999618530273,35.76023483276367,0,
 211423,-0.2568359375,-0.9482421875,-0.023193359375,-0.6097561120986938,0.3353658616542816,0.0,22.200000762939453,6.449999809265137,-12.149999618530273,35.80815887451172,0,
 211433,-0.2607421875,-0.946044921875,-0.021484375,-1.1585365533828735,0.6097561120986938,0.18292683362960815,24.450000762939453,5.400000095367432,-11.25,35.32892990112305,0,
 211443,-0.26025390625,-0.945068359375,-0.025634765625,-1.432926893234253,0.9756097793579102,0.24390244483947754,23.25,5.849999904632568,-17.25,35.6164665222168,0,
 211453,-0.2626953125,-0.946533203125,-0.023193359375,-1.402438998222351,0.9451219439506531,0.0,23.25,5.849999904632568,-17.25,35.76023483276367,0,
 211463,-0.259765625,-0.94091796875,-0.02685546875,-1.2804877758026123,0.6402438879013062,0.27439025044441223,23.100000381469727,5.699999809265137,-12.449999809265137,35.76023483276367,0,
 211473,-0.26220703125,-0.94580078125,-0.026123046875,-1.0670732259750366,0.5182926654815674,0.3658536672592163,23.399999618530273,4.949999809265137,-11.399999618530273,35.76023483276367,0,
 211483,-0.25830078125,-0.941162109375,-0.02880859375,-0.6707317233085632,0.12195122241973877,0.12195122241973877,22.799999237060547,5.400000095367432,-12.75,35.664390563964844,0,
 211493,-0.2607421875,-0.945068359375,-0.030029296875,-0.24390244483947754,-0.24390244483947754,0.4573170840740204,23.549999237060547,4.349999904632568,-12.75,35.664390563964844,0,
 211503,-0.25830078125,-0.941650390625,-0.030029296875,0.4268292784690857,-0.396341472864151,0.4268292784690857,23.549999237060547,4.349999904632568,-12.75,35.664390563964844,0,
 211513,-0.25830078125,-0.9462890625,-0.028564453125,0.4268292784690857,-0.6097561120986938,0.7621951103210449,24.450000762939453,5.849999904632568,-13.050000190734863,35.951927185058594,0,
 211523,-0.262451171875,-0.94921875,-0.023193359375,0.6707317233085632,-0.15243902802467346,0.396341472864151,24.0,5.849999904632568,-13.050000190734863,35.281005859375,0,
 211533,-0.2646484375,-0.944580078125,-0.019775390625,0.060975611209869385,0.3353658616542816,0.792682945728302,22.799999237060547,5.099999904632568,-12.75,35.76023483276367,0,
 211543,-0.260498046875,-0.94677734375,-0.022705078125,-0.6402438879013062,0.7012194991111755,0.4268292784690857,24.450000762939453,7.050000190734863,-15.300000190734863,35.6164665222168,0,
 211553,-0.271240234375,-0.939453125,-0.022705078125,-1.432926893234253,1.097561001777649,0.12195122241973877,24.450000762939453,7.050000190734863,-15.300000190734863,35.76023483276367,0,
 211563,-0.263671875,-0.943359375,-0.023681640625,-1.3719512224197388,1.1890244483947754,0.15243902802467346,22.5,7.050000190734863,-12.75,35.856082916259766,0,
 211573,-0.266357421875,-0.9365234375,-0.024658203125,-1.0060975551605225,1.6158536672592163,0.09146341681480408,23.25,6.599999904632568,-12.300000190734863,35.6164665222168,0,
 211583,-0.262451171875,-0.938720703125,-0.029052734375,-0.9146341681480408,1.5548781156539917,-0.396341472864151,23.399999618530273,6.449999809265137,-12.899999618530273,35.80815887451172,0,
 211593,-0.25927734375,-0.935302734375,-0.032470703125,-0.3048780560493469,1.3414634466171265,-0.8231707215309143,23.399999618530273,6.449999809265137,-12.899999618530273,35.6164665222168,0,
 211603,-0.25634765625,-0.9345703125,-0.0341796875,0.6097561120986938,1.2195122241973877,-1.3414634466171265,24.600000381469727,6.449999809265137,-11.399999618530273,35.6164665222168,0,
 211613,-0.2568359375,-0.94091796875,-0.0302734375,1.0365853309631348,0.7621951103210449,-1.1585365533828735,24.0,4.650000095367432,-12.75,35.664390563964844,0,
 211624,-0.257080078125,-0.959228515625,-0.026123046875,0.8536585569381714,0.396341472864151,-0.6097561120986938,23.549999237060547,5.400000095367432,-12.300000190734863,35.52062225341797,0,
 211634,-0.255126953125,-0.961181640625,-0.02783203125,1.097561001777649,-0.3658536672592163,0.6707317233085632,23.100000381469727,6.0,-12.899999618530273,35.664390563964844,0,
 211644,-0.251953125,-0.960205078125,-0.029052734375,1.432926893234253,-1.3719512224197388,1.920731782913208,23.100000381469727,6.0,-12.899999618530273,35.6164665222168,0,
 211654,-0.260498046875,-0.947265625,-0.018798828125,1.25,-1.585365891456604,2.9268293380737305,22.649999618530273,4.5,-13.199999809265137,35.80815887451172,0,
 211664,-0.26611328125,-0.9375,-0.0234375,0.4878048896789551,-1.8292683362960815,2.987804889678955,23.399999618530273,6.449999809265137,-12.449999809265137,35.856082916259766,0,
 211674,-0.26953125,-0.934814453125,-0.016845703125,-0.8841463327407837,-1.1890244483947754,2.0426828861236572,22.5,5.099999904632568,-13.5,35.52062225341797,0,
 211684,-0.268310546875,-0.939208984375,-0.010986328125,-1.5243902206420898,-0.3353658616542816,0.792682945728302,24.450000762939453,5.849999904632568,-13.050000190734863,35.856082916259766,0,
 211694,-0.26416015625,-0.952880859375,-0.009765625,-2.8353660106658936,0.9146341681480408,-0.3658536672592163,24.450000762939453,5.849999904632568,-13.050000190734863,35.76023483276367,0,
 211704,-0.26123046875,-0.947265625,-0.01513671875,-4.146341323852539,1.8597561120986938,-0.396341472864151,24.75,4.349999904632568,-12.300000190734863,35.80815887451172,0,
 211714,-0.257080078125,-0.94482421875,-0.025634765625,-5.060975551605225,3.170731782913208,0.060975611209869385,23.549999237060547,7.050000190734863,-12.300000190734863,35.951927185058594,0,
 211724,-0.26025390625,-0.938232421875,-0.037109375,-5.182927131652832,3.0487804412841797,0.5487805008888245,23.399999618530273,5.699999809265137,-12.149999618530273,35.664390563964844,0,
 211734,-0.252685546875,-0.926025390625,-0.045654296875,-3.628048896789551,2.6219513416290283,0.5792682766914368,23.399999618530273,5.699999809265137,-12.149999618530273,35.76023483276367,0,
 211744,-0.25341796875,-0.92138671875,-0.04541015625,-1.3414634466171265,1.6158536672592163,-0.09146341681480408,22.200000762939453,3.75,-11.699999809265137,35.664390563964844,0,
 211754,-0.25439453125,-0.93408203125,-0.044921875,0.8841463327407837,0.396341472864151,-0.5182926654815674,23.25,5.099999904632568,-14.25,35.80815887451172,0,
 211764,-0.2529296875,-0.94091796875,-0.034423828125,2.896341562271118,-1.0670732259750366,-0.9451219439506531,24.75,6.599999904632568,-12.75,35.664390563964844,0,
 211774,-0.26171875,-0.953857421875,-0.029541015625,3.658536672592163,-1.4939024448394775,-0.4878048896789551,23.100000381469727,5.699999809265137,-12.149999618530273,35.6164665222168,0,
 211784,-0.264892578125,-0.952880859375,-0.01904296875,3.262195110321045,-1.920731782913208,-0.4268292784690857,23.100000381469727,5.699999809265137,-12.149999618530273,35.6164665222168,0,
 211794,-0.268798828125,-0.95068359375,-0.009521484375,2.2560975551605225,-1.097561001777649,0.0,23.549999237060547,5.099999904632568,-12.75,35.664390563964844,0,
 211804,-0.265380859375,-0.956298828125,-0.01318359375,1.4939024448394775,-0.3353658616542816,0.3353658616542816,23.850000381469727,4.5,-11.699999809265137,35.951927185058594,0,
 211814,-0.265380859375,-0.95361328125,-0.013916015625,0.21341463923454285,0.4573170840740204,0.5182926654815674,22.200000762939453,4.949999809265137,-12.149999618530273,35.6164665222168,0,
 211824,-0.257080078125,-0.9599609375,-0.015869140625,-1.7073171138763428,1.0365853309631348,0.4573170840740204,23.25,6.599999904632568,-12.75,35.52062225341797,0,
 211834,-0.253173828125,-0.940673828125,-0.022705078125,-2.378048896789551,1.3719512224197388,0.7317073345184326,23.25,6.599999904632568,-12.75,35.856082916259766,0,
 211844,-0.25341796875,-0.93896484375,-0.02587890625,-2.6524391174316406,1.0365853309631348,0.7012194991111755,22.799999237060547,6.300000190734863,-12.75,35.52062225341797,0,
 211854,-0.256103515625,-0.930908203125,-0.031005859375,-2.103658676147461,0.9756097793579102,0.5182926654815674,23.100000381469727,4.5,-15.149999618530273,35.80815887451172,0,
 211864,-0.251708984375,-0.9384765625,-0.033447265625,-1.402438998222351,0.7012194991111755,0.396341472864151,23.100000381469727,5.25,-13.199999809265137,35.664390563964844,0,
 211874,-0.260498046875,-0.94140625,-0.031982421875,-0.7317073345184326,0.18292683362960815,0.4268292784690857,23.100000381469727,5.25,-13.199999809265137,35.6164665222168,0,
 211884,-0.2666015625,-0.94287109375,-0.02783203125,-0.27439025044441223,0.4573170840740204,0.5182926654815674,23.850000381469727,4.949999809265137,-11.699999809265137,35.6164665222168,0,
 211894,-0.265625,-0.951416015625,-0.02294921875,-0.5487805008888245,0.21341463923454285,0.8231707215309143,23.25,6.300000190734863,-13.5,35.664390563964844,0,
 211904,-0.256103515625,-0.952392578125,-0.0283203125,-0.7012194991111755,0.6097561120986938,0.6707317233085632,23.399999618530273,4.949999809265137,-12.149999618530273,35.80815887451172,0,
 211914,-0.2587890625,-0.944580078125,-0.029296875,-0.792682945728302,0.4878048896789551,0.7317073345184326,22.200000762939453,5.699999809265137,-13.199999809265137,35.856082916259766,0,
 211924,-0.262451171875,-0.942138671875,-0.029541015625,-0.6402438879013062,0.5792682766914368,0.6402438879013062,22.200000762939453,5.699999809265137,-13.199999809265137,35.137237548828125,0,
 211934,-0.265869140625,-0.942626953125,-0.029541015625,-0.6097561120986938,0.4268292784690857,0.5487805008888245,23.549999237060547,5.400000095367432,-12.0,35.281005859375,0,
 211944,-0.260009765625,-0.94189453125,-0.02880859375,0.3658536672592163,0.4878048896789551,0.21341463923454285,24.149999618530273,5.25,-12.149999618530273,35.52062225341797,0,
 211954,-0.260498046875,-0.941650390625,-0.02734375,0.27439025044441223,0.27439025044441223,-0.09146341681480408,24.450000762939453,8.699999809265137,-15.0,35.76023483276367,0,
 211964,-0.258056640625,-0.94482421875,-0.023681640625,0.060975611209869385,0.0,0.18292683362960815,23.100000381469727,5.25,-13.649999618530273,35.52062225341797,0,
 211974,-0.255126953125,-0.9443359375,-0.024658203125,-0.060975611209869385,0.3353658616542816,0.3048780560493469,23.100000381469727,5.25,-13.649999618530273,35.856082916259766,0,
 211984,-0.25732421875,-0.94287109375,-0.023681640625,-0.5487805008888245,0.5182926654815674,0.18292683362960815,22.5,5.099999904632568,-12.75,35.99985122680664,0,
 211994,-0.2626953125,-0.9443359375,-0.025146484375,-0.5182926654815674,0.6097561120986938,-0.3048780560493469,24.0,7.800000190734863,-13.800000190734863,35.6164665222168,0,
 212004,-0.253173828125,-0.94580078125,-0.026123046875,-0.5792682766914368,1.0365853309631348,0.15243902802467346,23.850000381469727,5.699999809265137,-14.399999618530273,35.6164665222168,0,
 212014,-0.26318359375,-0.93994140625,-0.016357421875,-1.097561001777649,0.9146341681480408,0.27439025044441223,23.850000381469727,5.699999809265137,-14.399999618530273,35.664390563964844,0,
 212024,-0.267578125,-0.947998046875,-0.024169921875,-1.3109756708145142,1.0060975551605225,0.060975611209869385,22.649999618530273,4.050000190734863,-12.449999809265137,35.76023483276367,0,
 212034,-0.260498046875,-0.95263671875,-0.027099609375,-0.9451219439506531,1.0365853309631348,-0.060975611209869385,22.049999237060547,5.400000095367432,-12.300000190734863,35.856082916259766,0,
 212044,-0.262939453125,-0.94287109375,-0.02783203125,-1.1585365533828735,1.0670732259750366,-0.030487805604934692,22.049999237060547,5.849999904632568,-13.050000190734863,35.6164665222168,0,
 212054,-0.2587890625,-0.948486328125,-0.0283203125,-0.8231707215309143,0.6402438879013062,0.3048780560493469,22.200000762939453,6.449999809265137,-11.699999809265137,35.80815887451172,0,
 212064,-0.25537109375,-0.9423828125,-0.02880859375,-0.5792682766914368,0.6402438879013062,0.3658536672592163,22.200000762939453,6.449999809265137,-11.699999809265137,35.6164665222168,0,
 212074,-0.259033203125,-0.94384765625,-0.028564453125,0.24390244483947754,-0.09146341681480408,0.27439025044441223,23.399999618530273,5.25,-11.699999809265137,35.42477798461914,0,
 212084,-0.263427734375,-0.940673828125,-0.03271484375,0.3658536672592163,0.060975611209869385,0.27439025044441223,22.799999237060547,5.099999904632568,-11.550000190734863,35.6164665222168,0,
 212094,-0.260009765625,-0.94287109375,-0.025146484375,1.0060975551605225,-0.15243902802467346,0.3658536672592163,22.799999237060547,5.400000095367432,-11.550000190734863,35.99985122680664,0,
 212104,-0.261962890625,-0.94580078125,-0.028564453125,0.21341463923454285,-0.27439025044441223,0.3353658616542816,23.850000381469727,5.25,-12.449999809265137,35.856082916259766,0,
 212114,-0.261474609375,-0.939697265625,-0.022705078125,0.3658536672592163,-0.09146341681480408,0.4268292784690857,23.850000381469727,5.25,-12.449999809265137,35.42477798461914,0,
 212124,-0.263671875,-0.943115234375,-0.02294921875,-0.12195122241973877,0.396341472864151,-0.060975611209869385,22.799999237060547,5.099999904632568,-12.0,35.664390563964844,0,
 212134,-0.264892578125,-0.9443359375,-0.019287109375,-0.4573170840740204,0.9146341681480408,-0.15243902802467346,23.399999618530273,3.299999952316284,-16.649999618530273,35.80815887451172,0,
 212144,-0.257080078125,-0.94482421875,-0.018310546875,-0.396341472864151,1.5548781156539917,-0.21341463923454285,23.549999237060547,5.400000095367432,-12.300000190734863,35.32892990112305,0,
 212154,-0.262451171875,-0.9462890625,-0.029052734375,-1.5243902206420898,1.5243902206420898,-0.6707317233085632,23.549999237060547,5.400000095367432,-12.300000190734863,35.99985122680664,0,
 212164,-0.25634765625,-0.943115234375,-0.0244140625,-2.103658676147461,1.8597561120986938,-0.4268292784690857,21.450000762939453,5.699999809265137,-13.199999809265137,35.664390563964844,0,
 212174,-0.255859375,-0.9482421875,-0.0283203125,-1.9512195587158203,1.5548781156539917,-0.396341472864151,24.149999618530273,5.25,-11.699999809265137,35.52062225341797,0,
 212184,-0.2607421875,-0.947021484375,-0.031005859375,-1.1280487775802612,1.097561001777649,0.030487805604934692,22.649999618530273,6.0,-12.899999618530273,35.80815887451172,0,
 212194,-0.25537109375,-0.946533203125,-0.03759765625,-0.9451219439506531,0.5182926654815674,-0.09146341681480408,23.100000381469727,4.949999809265137,-12.899999618530273,35.76023483276367,0,
 212204,-0.260498046875,-0.945068359375,-0.029296875,-0.18292683362960815,0.12195122241973877,0.5487805008888245,23.100000381469727,4.949999809265137,-12.899999618530273,35.52062225341797,0,
 212214,-0.262451171875,-0.9423828125,-0.027587890625,0.12195122241973877,-0.18292683362960815,0.9451219439506531,21.450000762939453,5.25,-12.149999618530273,35.664390563964844,0,
 212224,-0.2587890625,-0.943115234375,-0.030029296875,0.4268292784690857,-0.792682945728302,0.8536585569381714,23.850000381469727,5.699999809265137,-13.199999809265137,35.6164665222168,0,
 212234,-0.260009765625,-0.94189453125,-0.027099609375,1.432926893234253,-0.9146341681480408,0.8841463327407837,22.049999237060547,6.599999904632568,-11.25,35.6164665222168,0,
 212244,-0.261474609375,-0.939697265625,-0.020263671875,1.432926893234253,-0.6707317233085632,0.6402438879013062,22.799999237060547,6.300000190734863,-12.75,35.76023483276367,0,
 212254,-0.26416015625,-0.941162109375,-0.0205078125,0.9451219439506531,-0.396341472864151,0.21341463923454285,22.799999237060547,6.300000190734863,-12.75,35.856082916259766,0,
 212264,-0.261962890625,-0.949462890625,-0.01904296875,0.5487805008888245,-0.060975611209869385,0.21341463923454285,22.5,3.9000000953674316,-13.800000190734863,35.6164665222168,0,
 212274,-0.262451171875,-0.948486328125,-0.0185546875,-0.060975611209869385,0.6707317233085632,-0.4268292784690857,23.399999618530273,6.449999809265137,-12.449999809265137,35.76023483276367,0,
 212284,-0.26123046875,-0.945556640625,-0.01806640625,-0.7621951103210449,1.1280487775802612,-0.060975611209869385,22.799999237060547,6.300000190734863,-12.0,35.80815887451172,0,
 212294,-0.258056640625,-0.944580078125,-0.027587890625,-1.2804877758026123,1.3414634466171265,-0.09146341681480408,22.799999237060547,6.300000190734863,-12.0,35.664390563964844,0,
 212304,-0.2578125,-0.943359375,-0.03076171875,-0.7621951103210449,0.8231707215309143,-0.030487805604934692,21.899999618530273,4.949999809265137,-12.449999809265137,35.80815887451172,0,
 212314,-0.25390625,-0.94091796875,-0.02587890625,-0.4878048896789551,0.6707317233085632,-0.3658536672592163,22.649999618530273,5.25,-11.399999618530273,35.281005859375,0,
 212324,-0.25830078125,-0.94677734375,-0.02978515625,0.5487805008888245,0.060975611209869385,-0.030487805604934692,21.75,5.849999904632568,-13.050000190734863,35.664390563964844,0,
 212334,-0.261474609375,-0.9482421875,-0.0234375,0.5792682766914368,-0.12195122241973877,0.18292683362960815,23.399999618530273,6.449999809265137,-12.449999809265137,35.76023483276367,0,
 212344,-0.255859375,-0.949951171875,-0.024658203125,0.6707317233085632,-0.3048780560493469,0.4268292784690857,23.399999618530273,6.449999809265137,-12.449999809265137,35.664390563964844,0,
 212354,-0.2626953125,-0.9453125,-0.024169921875,-0.060975611209869385,-0.21341463923454285,0.5182926654815674,22.799999237060547,5.099999904632568,-13.050000190734863,35.80815887451172,0,
 212364,-0.259765625,-0.945556640625,-0.027587890625,-0.24390244483947754,-0.12195122241973877,0.6402438879013062,24.149999618530273,8.399999618530273,-17.700000762939453,35.6164665222168,0,
 212374,-0.261962890625,-0.944580078125,-0.030029296875,-0.4573170840740204,0.3048780560493469,0.9756097793579102,23.549999237060547,5.400000095367432,-11.550000190734863,35.76023483276367,0,
 212385,-0.259033203125,-0.941162109375,-0.032958984375,-0.396341472864151,-0.18292683362960815,0.6402438879013062,23.399999618530273,6.900000095367432,-12.899999618530273,35.76023483276367,0,
 212395,-0.257080078125,-0.9462890625,-0.029052734375,-0.18292683362960815,-0.3353658616542816,0.6402438879013062,23.399999618530273,6.900000095367432,-12.899999618530273,35.6164665222168,0,
 212405,-0.25390625,-0.936767578125,-0.025390625,0.3658536672592163,-0.4878048896789551,0.4573170840740204,22.200000762939453,6.0,-12.449999809265137,35.42477798461914,0,
 212415,-0.257568359375,-0.941650390625,-0.023193359375,-0.3353658616542816,-0.030487805604934692,0.24390244483947754,23.549999237060547,5.400000095367432,-13.5,35.856082916259766,0,
 212425,-0.262939453125,-0.94189453125,-0.01708984375,-1.25,0.0,0.12195122241973877,23.399999618530273,5.25,-11.399999618530273,35.856082916259766,0,
 212435,-0.263671875,-0.942138671875,-0.0146484375,-2.0731706619262695,0.6707317233085632,-0.5182926654815674,23.399999618530273,5.25,-11.399999618530273,35.856082916259766,0,
 212445,-0.259521484375,-0.93896484375,-0.017333984375,-2.2865853309631348,1.3109756708145142,-0.4878048896789551,23.25,5.849999904632568,-12.300000190734863,35.664390563964844,0,
 212455,-0.258544921875,-0.948486328125,-0.020751953125,-2.591463565826416,1.1890244483947754,-0.396341472864151,22.799999237060547,5.400000095367432,-12.300000190734863,35.6164665222168,0,
 212465,-0.26513671875,-0.945556640625,-0.029541015625,-2.3475611209869385,1.3109756708145142,-0.09146341681480408,23.850000381469727,6.0,-12.449999809265137,35.856082916259766,0,
 212475,-0.2568359375,-0.950439453125,-0.0322265625,-2.1646342277526855,0.792682945728302,0.3048780560493469,24.149999618530273,6.449999809265137,-12.899999618530273,35.80815887451172,0,
 212485,-0.258056640625,-0.94677734375,-0.031005859375,-1.6768293380737305,0.6097561120986938,0.3353658616542816,24.149999618530273,6.449999809265137,-12.899999618530273,35.80815887451172,0,
 212495,-0.2626953125,-0.94384765625,-0.028564453125,-1.0365853309631348,0.18292683362960815,0.3658536672592163,24.450000762939453,4.650000095367432,-12.75,35.856082916259766,0,
 212505,-0.25927734375,-0.943115234375,-0.031982421875,-0.3048780560493469,0.09146341681480408,0.6402438879013062,21.75,6.300000190734863,-13.050000190734863,35.42477798461914,0,
 212515,-0.257568359375,-0.939208984375,-0.0302734375,0.5182926654815674,-0.396341472864151,0.4268292784690857,22.649999618530273,6.0,-12.149999618530273,35.664390563964844,0,
 212525,-0.26123046875,-0.936279296875,-0.029296875,1.2195122241973877,-0.5792682766914368,0.27439025044441223,22.200000762939453,4.949999809265137,-12.899999618530273,35.6164665222168,0,
 212535,-0.263916015625,-0.937744140625,-0.033203125,1.7987805604934692,-0.7317073345184326,0.18292683362960815,22.200000762939453,4.949999809265137,-12.899999618530273,35.856082916259766,0,
 212545,-0.2578125,-0.944580078125,-0.027099609375,1.737804889678955,-0.4878048896789551,0.060975611209869385,24.600000381469727,6.0,-11.699999809265137,35.76023483276367,0,
 212555,-0.259521484375,-0.946533203125,-0.02001953125,1.4939024448394775,-0.15243902802467346,0.09146341681480408,21.899999618530273,6.0,-12.899999618530273,35.42477798461914,0,
 212565,-0.261962890625,-0.94921875,-0.01806640625,1.0060975551605225,0.4573170840740204,-0.030487805604934692,23.399999618530273,6.449999809265137,-12.449999809265137,35.76023483276367,0,
 212575,-0.25732421875,-0.9462890625,-0.0205078125,-0.18292683362960815,0.8231707215309143,0.09146341681480408,23.399999618530273,6.449999809265137,-12.449999809265137,35.856082916259766,0,
 212585,-0.255859375,-0.942138671875,-0.0244140625,-0.5792682766914368,0.6707317233085632,0.27439025044441223,23.399999618530273,6.449999809265137,-12.149999618530273,35.80815887451172,0,
 212595,-0.2548828125,-0.94091796875,-0.0283203125,-0.5487805008888245,0.9451219439506531,0.5182926654815674,23.549999237060547,5.099999904632568,-12.75,35.856082916259766,0,
 212605,-0.26318359375,-0.946044921875,-0.031494140625,-0.15243902802467346,0.5487805008888245,0.4573170840740204,23.399999618530273,6.0,-12.899999618530273,35.32892990112305,0,
 212615,-0.2587890625,-0.944580078125,-0.029296875,-0.030487805604934692,0.7012194991111755,0.24390244483947754,22.649999618530273,4.949999809265137,-11.699999809265137,35.6164665222168,0,
 212625,-0.2626953125,-0.942138671875,-0.02294921875,-0.09146341681480408,0.3048780560493469,0.3658536672592163,22.649999618530273,4.949999809265137,-11.699999809265137,35.76023483276367,0,
 212635,-0.25634765625,-0.94189453125,-0.026611328125,0.24390244483947754,0.27439025044441223,0.24390244483947754,24.0,6.300000190734863,-12.300000190734863,35.99985122680664,0,
 212645,-0.258056640625,-0.94921875,-0.026611328125,0.030487805604934692,0.24390244483947754,0.3048780560493469,22.049999237060547,5.849999904632568,-13.050000190734863,35.951927185058594,0,
 212655,-0.2607421875,-0.947265625,-0.022216796875,0.27439025044441223,-0.030487805604934692,0.3353658616542816,22.649999618530273,5.25,-12.449999809265137,35.6164665222168,0,
 212665,-0.26025390625,-0.939697265625,-0.0283203125,0.0,0.060975611209869385,0.27439025044441223,22.649999618530273,3.75,-13.199999809265137,35.80815887451172,0,
 212675,-0.26318359375,-0.94970703125,-0.0185546875,-0.3353658616542816,0.4268292784690857,0.15243902802467346,22.649999618530273,3.75,-13.199999809265137,35.856082916259766,0,
 212685,-0.262451171875,-0.943359375,-0.025146484375,-0.060975611209869385,0.27439025044441223,0.09146341681480408,21.75,6.599999904632568,-10.800000190734863,35.6164665222168,0,
 212695,-0.25927734375,-0.94580078125,-0.01953125,-0.5792682766914368,0.3353658616542816,-0.030487805604934692,23.399999618530273,5.25,-11.399999618530273,35.856082916259766,0,
 212705,-0.2578125,-0.943115234375,-0.02099609375,-1.097561001777649,0.5487805008888245,0.060975611209869385,23.850000381469727,5.25,-12.149999618530273,35.664390563964844,0,
 212715,-0.262939453125,-0.945556640625,-0.0205078125,-1.1280487775802612,0.5792682766914368,0.27439025044441223,23.850000381469727,5.25,-12.149999618530273,35.52062225341797,0,
 212725,-0.255615234375,-0.947998046875,-0.0224609375,-1.1585365533828735,0.6097561120986938,0.21341463923454285,22.5,5.849999904632568,-11.25,35.80815887451172,0,
 212735,-0.2578125,-0.9423828125,-0.025390625,-1.402438998222351,0.8841463327407837,0.18292683362960815,22.5,3.9000000953674316,-12.0,35.80815887451172,0,
 212745,-0.257568359375,-0.941650390625,-0.031494140625,-1.25,0.9146341681480408,0.09146341681480408,21.899999618530273,6.0,-12.449999809265137,35.664390563964844,0,
 212755,-0.255859375,-0.93994140625,-0.028564453125,-0.9451219439506531,0.6707317233085632,-0.060975611209869385,23.100000381469727,4.949999809265137,-12.899999618530273,35.6164665222168,0,
 212765,-0.25537109375,-0.94140625,-0.028564453125,-1.1585365533828735,0.3658536672592163,0.12195122241973877,23.100000381469727,4.949999809265137,-12.899999618530273,35.664390563964844,0,
 212775,-0.260986328125,-0.945556640625,-0.02734375,-0.18292683362960815,0.0,-0.09146341681480408,24.149999618530273,8.399999618530273,-13.649999618530273,35.76023483276367,0,
 212785,-0.26123046875,-0.9404296875,-0.02490234375,-0.18292683362960815,-0.24390244483947754,0.15243902802467346,23.549999237060547,5.099999904632568,-12.0,35.6164665222168,0,
 212795,-0.260498046875,-0.9501953125,-0.0244140625,0.12195122241973877,-0.24390244483947754,0.24390244483947754,22.649999618530273,5.699999809265137,-12.449999809265137,35.856082916259766,0,
 212805,-0.260986328125,-0.944091796875,-0.02392578125,-0.12195122241973877,-0.4573170840740204,0.4878048896789551,23.850000381469727,5.25,-12.899999618530273,35.664390563964844,0,
 212815,-0.259033203125,-0.945556640625,-0.0234375,-0.3353658616542816,0.060975611209869385,0.18292683362960815,23.850000381469727,5.25,-12.899999618530273,35.76023483276367,0,
 212825,-0.260498046875,-0.94482421875,-0.02685546875,0.060975611209869385,0.060975611209869385,-0.030487805604934692,21.899999618530273,6.900000095367432,-13.199999809265137,35.99985122680664,0,
 212835,-0.25732421875,-0.94384765625,-0.01953125,-0.15243902802467346,0.09146341681480408,0.4878048896789551,23.850000381469727,6.900000095367432,-12.149999618530273,35.6164665222168,0,
 212845,-0.263916015625,-0.9501953125,-0.02734375,-0.12195122241973877,0.24390244483947754,-0.15243902802467346,24.450000762939453,6.300000190734863,-12.300000190734863,35.281005859375,0,
 212855,-0.259033203125,-0.948974609375,-0.0263671875,-0.4268292784690857,0.27439025044441223,-0.21341463923454285,24.450000762939453,6.300000190734863,-12.300000190734863,35.80815887451172,0,
 212865,-0.259033203125,-0.95068359375,-0.021484375,-0.8536585569381714,0.396341472864151,0.3658536672592163,23.25,5.400000095367432,-11.550000190734863,35.664390563964844,0,
 212875,-0.259765625,-0.939697265625,-0.0263671875,-0.12195122241973877,0.21341463923454285,0.09146341681480408,22.049999237060547,5.400000095367432,-12.75,35.80815887451172,0,
 212885,-0.25341796875,-0.944091796875,-0.029296875,-0.21341463923454285,0.24390244483947754,0.030487805604934692,21.149999618530273,4.5,-12.899999618530273,35.99985122680664,0,
 212895,-0.260986328125,-0.9482421875,-0.024658203125,0.09146341681480408,0.09146341681480408,0.18292683362960815,22.200000762939453,7.199999809265137,-11.699999809265137,35.52062225341797,0,
 212905,-0.26318359375,-0.94189453125,-0.025634765625,0.3048780560493469,-0.24390244483947754,0.396341472864151,22.200000762939453,7.199999809265137,-11.699999809265137,35.42477798461914,0,
 212915,-0.257568359375,-0.9443359375,-0.0234375,0.5487805008888245,-0.18292683362960815,0.6402438879013062,24.149999618530273,5.25,-12.899999618530273,35.664390563964844,0,
 212925,-0.259765625,-0.9521484375,-0.0234375,-0.030487805604934692,-0.060975611209869385,0.5792682766914368,22.200000762939453,4.949999809265137,-12.149999618530273,35.664390563964844,0,
 212935,-0.25830078125,-0.949951171875,-0.0283203125,-0.3353658616542816,0.24390244483947754,0.7621951103210449,22.649999618530273,4.5,-12.899999618530273,35.76023483276367,0,
 212945,-0.26611328125,-0.948974609375,-0.01904296875,-0.6402438879013062,0.3353658616542816,0.7317073345184326,22.649999618530273,5.699999809265137,-10.949999809265137,35.664390563964844,0,
 212955,-0.2607421875,-0.944580078125,-0.02880859375,-0.6707317233085632,0.396341472864151,0.3048780560493469,22.649999618530273,5.699999809265137,-10.949999809265137,35.664390563964844,0,
 212965,-0.263427734375,-0.943603515625,-0.021240234375,-0.6707317233085632,0.4878048896789551,0.030487805604934692,23.100000381469727,6.0,-13.199999809265137,35.6164665222168,0,
 212975,-0.2548828125,-0.945068359375,-0.024658203125,-0.4573170840740204,0.27439025044441223,0.21341463923454285,22.649999618530273,6.0,-11.399999618530273,35.664390563964844,0,
 212985,-0.2587890625,-0.94091796875,-0.0283203125,-0.3353658616542816,0.5487805008888245,0.396341472864151,24.899999618530273,3.75,-15.449999809265137,35.6164665222168,0,
 212995,-0.259521484375,-0.945556640625,-0.029052734375,0.060975611209869385,0.21341463923454285,0.4268292784690857,24.899999618530273,3.75,-15.449999809265137,35.664390563964844,0,
 213005,-0.26171875,-0.934814453125,-0.031005859375,0.24390244483947754,0.12195122241973877,0.21341463923454285,24.0,5.400000095367432,-11.550000190734863,35.951927185058594,0,
 213015,-0.260986328125,-0.94384765625,-0.017822265625,0.15243902802467346,-0.21341463923454285,0.5182926654815674,22.649999618530273,4.050000190734863,-11.699999809265137,35.76023483276367,0,
 213025,-0.262939453125,-0.943603515625,-0.021240234375,0.4573170840740204,-0.030487805604934692,0.7012194991111755,23.850000381469727,5.699999809265137,-11.699999809265137,35.856082916259766,0,
 213035,-0.25537109375,-0.94140625,-0.024169921875,0.4573170840740204,0.09146341681480408,0.6097561120986938,23.850000381469727,5.699999809265137,-11.699999809265137,35.76023483276367,0,
 213045,-0.257080078125,-0.944580078125,-0.019775390625,0.060975611209869385,0.15243902802467346,0.4878048896789551,23.850000381469727,5.699999809265137,-11.699999809265137,35.6164665222168,0,
 213055,-0.254638671875,-0.943359375,-0.021240234375,-0.18292683362960815,0.27439025044441223,-0.21341463923454285,23.549999237060547,5.849999904632568,-13.800000190734863,35.664390563964844,0,
 213065,-0.259765625,-0.9384765625,-0.021728515625,-0.6402438879013062,0.396341472864151,0.09146341681480408,22.649999618530273,6.900000095367432,-10.949999809265137,35.664390563964844,0,
 213085,-0.2607421875,-0.94580078125,-0.0283203125,-0.396341472864151,0.5182926654815674,0.3048780560493469,23.399999618530273,5.25,-15.149999618530273,35.76023483276367,0,
 213095,-0.253662109375,-0.942626953125,-0.0234375,-0.5792682766914368,0.4878048896789551,0.3048780560493469,23.399999618530273,5.25,-15.149999618530273,35.42477798461914,0,
 213105,-0.259033203125,-0.94873046875,-0.025390625,-0.396341472864151,0.24390244483947754,0.4573170840740204,22.5,5.099999904632568,-12.0,35.80815887451172,0,
 213115,-0.26220703125,-0.94140625,-0.02587890625,-0.18292683362960815,0.3353658616542816,0.5792682766914368,22.049999237060547,6.599999904632568,-12.300000190734863,35.281005859375,0,
 213125,-0.25439453125,-0.9384765625,-0.0263671875,0.060975611209869385,0.3353658616542816,0.3048780560493469,22.049999237060547,6.599999904632568,-12.300000190734863,35.664390563964844,0,
 213135,-0.257080078125,-0.9423828125,-0.027587890625,0.24390244483947754,0.15243902802467346,0.6097561120986938,22.049999237060547,6.599999904632568,-12.300000190734863,35.856082916259766,0,
 213145,-0.266357421875,-0.948974609375,-0.0185546875,0.5792682766914368,-0.09146341681480408,0.8231707215309143,23.100000381469727,4.050000190734863,-13.050000190734863,35.664390563964844,0,
 213155,-0.260986328125,-0.94775390625,-0.019287109375,0.396341472864151,-0.12195122241973877,0.7012194991111755,22.799999237060547,5.849999904632568,-13.5,35.76023483276367,0,
 213165,-0.2578125,-0.947021484375,-0.017822265625,-0.18292683362960815,0.030487805604934692,0.6097561120986938,22.5,5.099999904632568,-12.0,35.664390563964844,0,
 213175,-0.255126953125,-0.94677734375,-0.024658203125,-0.8231707215309143,0.3353658616542816,0.3353658616542816,22.5,5.099999904632568,-12.0,35.6164665222168,0,
 213185,-0.255859375,-0.949462890625,-0.0185546875,-1.0365853309631348,0.3658536672592163,0.7012194991111755,21.450000762939453,6.900000095367432,-12.0,35.99985122680664,0,
 213196,-0.26171875,-0.941650390625,-0.01953125,-1.1890244483947754,0.7317073345184326,0.4268292784690857,21.299999237060547,6.599999904632568,-11.25,35.52062225341797,0,
 213206,-0.2587890625,-0.945556640625,-0.024658203125,-1.432926893234253,0.4573170840740204,0.5792682766914368,22.649999618530273,5.25,-12.449999809265137,35.80815887451172,0,
 213216,-0.258544921875,-0.942626953125,-0.02490234375,-1.0670732259750366,0.396341472864151,0.4878048896789551,22.649999618530273,5.25,-12.449999809265137,35.664390563964844,0,
 213226,-0.257080078125,-0.942626953125,-0.026611328125,-0.792682945728302,0.396341472864151,0.6402438879013062,22.649999618530273,5.25,-12.449999809265137,35.76023483276367,0,
 213236,-0.262451171875,-0.942626953125,-0.02685546875,-0.9146341681480408,0.030487805604934692,0.7012194991111755,23.549999237060547,5.400000095367432,-12.0,35.951927185058594,0,
 213246,-0.257568359375,-0.942626953125,-0.021728515625,-0.5792682766914368,-0.09146341681480408,0.6097561120986938,23.100000381469727,4.949999809265137,-13.649999618530273,35.42477798461914,0,
 213256,-0.257080078125,-0.9384765625,-0.024658203125,-0.4878048896789551,-0.12195122241973877,0.8231707215309143,23.549999237060547,5.849999904632568,-12.300000190734863,35.664390563964844,0,
 213266,-0.2578125,-0.9423828125,-0.022216796875,-0.4268292784690857,-0.27439025044441223,0.5792682766914368,23.399999618530273,4.5,-11.699999809265137,35.80815887451172,0,
 213276,-0.2607421875,-0.949462890625,-0.022705078125,-0.15243902802467346,0.030487805604934692,0.9756097793579102,23.399999618530273,4.5,-11.699999809265137,35.664390563964844,0,
 213286,-0.25927734375,-0.94287109375,-0.01953125,-0.3353658616542816,-0.09146341681480408,0.5792682766914368,22.049999237060547,6.599999904632568,-12.0,35.856082916259766,0,
 213296,-0.26318359375,-0.942626953125,-0.015625,-0.4268292784690857,0.09146341681480408,0.8536585569381714,23.549999237060547,5.400000095367432,-11.25,35.664390563964844,0,
 213306,-0.264404296875,-0.945068359375,-0.021240234375,-1.0365853309631348,0.27439025044441223,0.6707317233085632,22.799999237060547,6.300000190734863,-12.300000190734863,35.76023483276367,0,
 213316,-0.263427734375,-0.9404296875,-0.029296875,-1.25,0.3048780560493469,0.6097561120986938,22.799999237060547,6.300000190734863,-12.300000190734863,35.52062225341797,0,
 213326,-0.2587890625,-0.93896484375,-0.02685546875,-0.8536585569381714,0.27439025044441223,0.18292683362960815,22.5,5.400000095367432,-10.800000190734863,35.76023483276367,0,
 213336,-0.265625,-0.936767578125,-0.031005859375,-0.27439025044441223,-0.030487805604934692,-0.030487805604934692,22.649999618530273,4.5,-13.649999618530273,35.42477798461914,0,
 213346,-0.26416015625,-0.943603515625,-0.022216796875,-0.060975611209869385,0.3353658616542816,-0.18292683362960815,23.25,5.400000095367432,-12.300000190734863,35.52062225341797,0,
 213356,-0.26025390625,-0.945068359375,-0.022216796875,-0.8231707215309143,0.4268292784690857,-0.09146341681480408,23.100000381469727,4.5,-12.149999618530273,35.80815887451172,0,
 213366,-0.26123046875,-0.945556640625,-0.016845703125,-1.3719512224197388,0.7317073345184326,-0.21341463923454285,23.100000381469727,4.5,-12.149999618530273,35.951927185058594,0,
 213376,-0.260986328125,-0.94580078125,-0.021240234375,-1.920731782913208,0.8841463327407837,-0.15243902802467346,22.5,5.849999904632568,-10.800000190734863,35.76023483276367,0,
 213386,-0.263671875,-0.94775390625,-0.02978515625,-1.8597561120986938,0.9146341681480408,0.12195122241973877,22.5,4.349999904632568,-13.5,35.6164665222168,0,
 213396,-0.25537109375,-0.948974609375,-0.023681640625,-1.25,0.8841463327407837,0.18292683362960815,22.5,5.099999904632568,-12.300000190734863,35.80815887451172,0,
 213406,-0.254638671875,-0.942138671875,-0.03173828125,-0.8841463327407837,0.15243902802467346,0.396341472864151,22.5,5.099999904632568,-12.300000190734863,35.99985122680664,0,
 213416,-0.255615234375,-0.93896484375,-0.03466796875,-0.12195122241973877,-0.3048780560493469,0.24390244483947754,25.350000381469727,5.25,-12.449999809265137,35.951927185058594,0,
 213426,-0.256591796875,-0.944091796875,-0.029052734375,0.396341472864151,-0.792682945728302,0.4878048896789551,22.049999237060547,5.400000095367432,-12.300000190734863,35.664390563964844,0,
 213436,-0.259033203125,-0.947021484375,-0.023681640625,0.3048780560493469,-0.7621951103210449,0.4573170840740204,22.799999237060547,5.400000095367432,-12.75,35.6164665222168,0,
 213446,-0.26513671875,-0.948486328125,-0.020751953125,0.3048780560493469,-0.3048780560493469,0.8536585569381714,22.799999237060547,4.650000095367432,-13.050000190734863,35.664390563964844,0,
 213456,-0.263916015625,-0.947998046875,-0.021728515625,-0.4878048896789551,-0.18292683362960815,0.8536585569381714,22.799999237060547,4.650000095367432,-13.050000190734863,35.76023483276367,0,
 213466,-0.2646484375,-0.952880859375,-0.02392578125,-0.7317073345184326,0.15243902802467346,0.9146341681480408,23.100000381469727,5.25,-12.449999809265137,35.664390563964844,0,
 213476,-0.259765625,-0.941162109375,-0.02197265625,-1.402438998222351,0.5792682766914368,0.7317073345184326,21.899999618530273,5.699999809265137,-11.699999809265137,35.856082916259766,0,
 213486,-0.262451171875,-0.94189453125,-0.02783203125,-1.1585365533828735,0.7317073345184326,0.4573170840740204,23.25,3.450000047683716,-14.25,35.76023483276367,0,
 213496,-0.260986328125,-0.93603515625,-0.03271484375,-0.3048780560493469,0.27439025044441223,0.4268292784690857,23.100000381469727,5.699999809265137,-13.649999618530273,35.76023483276367,0,
 213506,-0.255859375,-0.9423828125,-0.031494140625,0.27439025044441223,0.3353658616542816,0.24390244483947754,23.100000381469727,5.699999809265137,-13.649999618530273,35.80815887451172,0,
 213516,-0.26123046875,-0.94189453125,-0.029052734375,0.792682945728302,-0.060975611209869385,0.3048780560493469,22.200000762939453,5.25,-12.449999809265137,35.856082916259766,0,
 213526,-0.249267578125,-0.94580078125,-0.029296875,0.3048780560493469,0.0,0.12195122241973877,22.649999618530273,4.949999809265137,-13.199999809265137,35.856082916259766,0,
 213536,-0.261474609375,-0.94677734375,-0.024658203125,0.6097561120986938,-0.12195122241973877,0.21341463923454285,23.100000381469727,4.949999809265137,-10.949999809265137,35.76023483276367,0,
 213546,-0.259033203125,-0.953125,-0.02001953125,0.27439025044441223,0.24390244483947754,0.3353658616542816,23.100000381469727,4.949999809265137,-10.949999809265137,35.664390563964844,0,
 213556,-0.2568359375,-0.948974609375,-0.020751953125,-0.030487805604934692,-0.21341463923454285,0.4878048896789551,22.799999237060547,5.099999904632568,-12.0,35.99985122680664,0,
 213566,-0.2626953125,-0.94091796875,-0.020263671875,-0.27439025044441223,0.24390244483947754,0.5182926654815674,23.549999237060547,6.300000190734863,-11.550000190734863,35.856082916259766,0,
 213576,-0.26171875,-0.943603515625,-0.021728515625,-0.4268292784690857,0.4268292784690857,0.7012194991111755,23.399999618530273,6.449999809265137,-11.699999809265137,35.80815887451172,0,
 213586,-0.259521484375,-0.9462890625,-0.024169921875,-0.7012194991111755,0.7317073345184326,0.4878048896789551,22.049999237060547,6.300000190734863,-15.0,35.6164665222168,0,
 213596,-0.2587890625,-0.94091796875,-0.0234375,-0.5487805008888245,0.5792682766914368,0.12195122241973877,22.049999237060547,6.300000190734863,-15.0,35.951927185058594,0,
 213606,-0.2587890625,-0.939208984375,-0.0244140625,-0.3353658616542816,0.6097561120986938,0.24390244483947754,22.649999618530273,6.0,-12.449999809265137,35.99985122680664,0,
 213616,-0.26171875,-0.938720703125,-0.02294921875,-0.4268292784690857,0.5487805008888245,0.3048780560493469,22.649999618530273,6.0,-12.149999618530273,35.856082916259766,0,
 213626,-0.26123046875,-0.942138671875,-0.02685546875,0.3048780560493469,0.3353658616542816,-0.18292683362960815,23.399999618530273,4.5,-12.899999618530273,35.76023483276367,0,
 213636,-0.25927734375,-0.943115234375,-0.021484375,0.3048780560493469,0.4268292784690857,0.27439025044441223,23.100000381469727,4.949999809265137,-12.899999618530273,35.32892990112305,0,
 213646,-0.259033203125,-0.94775390625,-0.020751953125,-0.09146341681480408,0.5792682766914368,0.15243902802467346,23.100000381469727,4.949999809265137,-12.899999618530273,35.6164665222168,0,
 213656,-0.26123046875,-0.939453125,-0.019287109375,0.3048780560493469,0.5487805008888245,0.3353658616542816,21.899999618530273,4.5,-12.449999809265137,35.80815887451172,0,
 213666,-0.263671875,-0.945556640625,-0.024169921875,0.7621951103210449,0.6402438879013062,0.24390244483947754,22.5,5.099999904632568,-11.550000190734863,35.76023483276367,0,
 213676,-0.2568359375,-0.9443359375,-0.02197265625,0.3048780560493469,0.7621951103210449,0.15243902802467346,23.100000381469727,4.5,-13.199999809265137,35.99985122680664,0,
 213686,-0.26025390625,-0.94091796875,-0.02978515625,0.7012194991111755,0.3658536672592163,-0.24390244483947754,23.100000381469727,4.5,-13.199999809265137,35.42477798461914,0,
 213696,-0.2490234375,-0.94970703125,-0.023193359375,0.4268292784690857,0.396341472864151,-0.27439025044441223,22.649999618530273,4.949999809265137,-14.399999618530273,35.856082916259766,0,
 213706,-0.266845703125,-0.95166015625,-0.021240234375,0.5792682766914368,-0.27439025044441223,0.060975611209869385,24.0,5.400000095367432,-10.800000190734863,35.52062225341797,0,
 213716,-0.255126953125,-0.955322265625,-0.010498046875,0.21341463923454285,-0.15243902802467346,-0.030487805604934692,23.549999237060547,6.300000190734863,-12.300000190734863,35.76023483276367,0,
 213726,-0.261474609375,-0.949462890625,-0.013671875,-0.27439025044441223,-0.09146341681480408,-0.09146341681480408,22.049999237060547,5.400000095367432,-12.300000190734863,35.76023483276367,0,
 213736,-0.26025390625,-0.951904296875,-0.0126953125,-1.1280487775802612,0.3353658616542816,-0.030487805604934692,22.049999237060547,5.400000095367432,-12.300000190734863,35.52062225341797,0,
 213746,-0.2587890625,-0.948486328125,-0.012939453125,-2.6219513416290283,0.5182926654815674,0.060975611209869385,22.049999237060547,5.849999904632568,-11.25,35.80815887451172,0,
 213756,-0.2587890625,-0.95556640625,-0.014404296875,-3.628048896789551,1.402438998222351,-0.21341463923454285,22.049999237060547,7.5,-12.0,35.856082916259766,0,
 213766,-0.26171875,-0.94873046875,-0.013916015625,-5.731707572937012,2.3475611209869385,0.0,23.549999237060547,5.849999904632568,-12.300000190734863,35.80815887451172,0,
 213776,-0.25732421875,-0.942626953125,-0.029296875,-5.762195110321045,2.1646342277526855,0.030487805604934692,22.649999618530273,6.900000095367432,-12.899999618530273,35.52062225341797,0,
 213786,-0.258544921875,-0.945556640625,-0.024658203125,-5.3353657722473145,2.1341464519500732,-0.060975611209869385,22.649999618530273,6.900000095367432,-12.899999618530273,35.6164665222168,0,
 213796,-0.24755859375,-0.939208984375,-0.040283203125,-3.9939024448394775,1.432926893234253,0.6707317233085632,24.149999618530273,4.5,-16.200000762939453,35.664390563964844,0,
 213806,-0.255859375,-0.93994140625,-0.041259765625,-2.2865853309631348,0.5792682766914368,0.8536585569381714,24.149999618530273,6.900000095367432,-11.699999809265137,35.856082916259766,0,
 213816,-0.256591796875,-0.935546875,-0.034423828125,-0.6402438879013062,0.030487805604934692,1.0365853309631348,21.899999618530273,6.0,-12.449999809265137,35.6164665222168,0,
 213826,-0.25341796875,-0.934814453125,-0.038330078125,0.8536585569381714,-0.7621951103210449,0.9756097793579102,21.899999618530273,6.0,-12.449999809265137,35.6164665222168,0,
 213836,-0.26318359375,-0.93798828125,-0.035888671875,2.0426828861236572,-0.8231707215309143,0.5487805008888245,22.5,6.599999904632568,-11.550000190734863,35.856082916259766,0,
 213846,-0.26171875,-0.9365234375,-0.031494140625,2.2560975551605225,-0.5792682766914368,0.3048780560493469,23.399999618530273,6.0,-11.699999809265137,35.664390563964844,0,
 213856,-0.26611328125,-0.93896484375,-0.024169921875,3.0182926654815674,-0.9146341681480408,-0.030487805604934692,23.25,5.400000095367432,-12.75,35.80815887451172,0,
 213866,-0.25927734375,-0.944091796875,-0.02392578125,2.896341562271118,-0.09146341681480408,-0.09146341681480408,23.850000381469727,4.5,-14.699999809265137,35.80815887451172,0,
 213876,-0.2548828125,-0.9453125,-0.0224609375,2.896341562271118,-0.3048780560493469,0.24390244483947754,23.850000381469727,4.5,-14.699999809265137,35.6164665222168,0,
 213886,-0.2626953125,-0.947021484375,-0.0205078125,2.6524391174316406,0.0,-0.3048780560493469,21.75,4.349999904632568,-12.75,35.664390563964844,0,
 213896,-0.260986328125,-0.9482421875,-0.0263671875,2.591463565826416,-0.15243902802467346,0.27439025044441223,24.0,5.849999904632568,-15.75,35.80815887451172,0,
 213906,-0.25244140625,-0.947998046875,-0.017333984375,2.5,-0.4573170840740204,0.4878048896789551,23.100000381469727,5.25,-11.399999618530273,35.856082916259766,0,
 213916,-0.25537109375,-0.9482421875,-0.0224609375,2.1341464519500732,-0.792682945728302,0.4878048896789551,24.149999618530273,4.5,-11.399999618530273,35.856082916259766,0,
 213926,-0.264892578125,-0.9501953125,-0.013916015625,2.22560977935791,-0.7621951103210449,0.7621951103210449,24.149999618530273,4.5,-11.399999618530273,35.664390563964844,0,
 213936,-0.270263671875,-0.9541015625,-0.01318359375,1.25,-0.5182926654815674,0.9451219439506531,22.5,5.400000095367432,-12.300000190734863,35.951927185058594,0,
 213946,-0.26708984375,-0.951171875,-0.01171875,0.030487805604934692,-0.21341463923454285,1.1280487775802612,23.399999618530273,5.699999809265137,-12.899999618530273,35.856082916259766,0,
 213956,-0.2666015625,-0.945068359375,-0.0126953125,-1.1280487775802612,0.5792682766914368,0.7317073345184326,23.850000381469727,4.949999809265137,-12.449999809265137,35.951927185058594,0,
 213966,-0.26318359375,-0.946044921875,-0.014404296875,-2.4390244483947754,0.6402438879013062,0.3048780560493469,24.149999618530273,5.699999809265137,-12.449999809265137,35.856082916259766,0,
 213976,-0.26513671875,-0.9453125,-0.017333984375,-2.77439022064209,1.3109756708145142,-0.12195122241973877,24.149999618530273,5.699999809265137,-12.449999809265137,35.281005859375,0,
 213987,-0.259765625,-0.945068359375,-0.021484375,-2.9268293380737305,1.5548781156539917,-0.030487805604934692,23.100000381469727,6.449999809265137,-12.899999618530273,35.6164665222168,0,
 213997,-0.252197265625,-0.9453125,-0.025634765625,-3.0182926654815674,1.6768293380737305,-0.24390244483947754,22.649999618530273,6.449999809265137,-14.399999618530273,35.6164665222168,0,
 214007,-0.256103515625,-0.94287109375,-0.0283203125,-2.804877996444702,1.4939024448394775,0.18292683362960815,23.399999618530273,5.699999809265137,-12.899999618530273,35.80815887451172,0,
 214017,-0.255126953125,-0.9443359375,-0.028076171875,-2.22560977935791,1.097561001777649,0.6097561120986938,23.399999618530273,5.699999809265137,-12.899999618530273,35.76023483276367,0,
 214027,-0.25732421875,-0.9365234375,-0.031005859375,-1.7073171138763428,0.4878048896789551,0.5792682766914368,21.299999237060547,5.400000095367432,-13.050000190734863,35.52062225341797,0,
 214037,-0.255126953125,-0.938720703125,-0.033203125,-0.396341472864151,0.3048780560493469,0.792682945728302,23.100000381469727,5.699999809265137,-12.449999809265137,35.80815887451172,0,
 214047,-0.263671875,-0.939697265625,-0.03125,0.4573170840740204,-0.4573170840740204,0.6402438879013062,24.450000762939453,5.099999904632568,-13.5,35.76023483276367,0,
 214057,-0.261474609375,-0.93505859375,-0.028564453125,0.6707317233085632,-0.7317073345184326,0.5792682766914368,22.5,5.849999904632568,-12.75,35.80815887451172,0,
 214067,-0.2646484375,-0.9423828125,-0.022705078125,1.0670732259750366,-0.792682945728302,0.396341472864151,22.5,5.849999904632568,-12.75,36.04777145385742,0,
 214077,-0.267822265625,-0.949462890625,-0.013671875,0.27439025044441223,-0.3048780560493469,0.3658536672592163,23.25,6.599999904632568,-13.5,35.76023483276367,0,
 214087,-0.265380859375,-0.945068359375,-0.019775390625,-0.030487805604934692,-0.12195122241973877,-0.21341463923454285,23.25,4.349999904632568,-11.550000190734863,35.951927185058594,0,
 214097,-0.26123046875,-0.95166015625,-0.016357421875,-0.7317073345184326,0.5487805008888245,0.0,21.450000762939453,6.449999809265137,-12.899999618530273,35.80815887451172,0,
 214107,-0.260498046875,-0.939697265625,-0.02685546875,-1.6768293380737305,0.7621951103210449,0.24390244483947754,24.0,3.450000047683716,-14.25,35.80815887451172,0,
 214117,-0.2578125,-0.944091796875,-0.027099609375,-1.8902438879013062,0.8231707215309143,0.0,24.0,3.450000047683716,-14.25,35.664390563964844,0,
 214127,-0.25390625,-0.94091796875,-0.027099609375,-1.8292683362960815,0.8841463327407837,0.5487805008888245,23.100000381469727,4.949999809265137,-12.449999809265137,35.32892990112305,0,
 214137,-0.2578125,-0.9453125,-0.0263671875,-1.4939024448394775,0.6707317233085632,-0.21341463923454285,23.100000381469727,6.900000095367432,-12.149999618530273,35.76023483276367,0,
 214147,-0.251708984375,-0.939697265625,-0.028564453125,-0.7012194991111755,0.4268292784690857,0.15243902802467346,23.399999618530273,4.949999809265137,-12.449999809265137,35.6164665222168,0,
 214157,-0.252197265625,-0.938232421875,-0.02880859375,-0.7317073345184326,0.15243902802467346,0.27439025044441223,23.399999618530273,4.949999809265137,-12.449999809265137,35.951927185058594,0,
 214167,-0.254638671875,-0.94482421875,-0.026611328125,-0.24390244483947754,-0.060975611209869385,0.5792682766914368,23.399999618530273,5.25,-13.199999809265137,35.664390563964844,0,
 214177,-0.261474609375,-0.94482421875,-0.03125,0.060975611209869385,0.15243902802467346,0.27439025044441223,23.850000381469727,4.949999809265137,-12.149999618530273,35.52062225341797,0,
 214187,-0.264892578125,-0.93994140625,-0.026123046875,0.3353658616542816,-0.21341463923454285,0.27439025044441223,21.899999618530273,6.0,-13.649999618530273,35.99985122680664,0,
 214197,-0.26318359375,-0.946044921875,-0.02392578125,0.3353658616542816,0.09146341681480408,0.15243902802467346,21.75,3.9000000953674316,-10.050000190734863,35.80815887451172,0,
 214207,-0.2578125,-0.945556640625,-0.0185546875,0.15243902802467346,0.12195122241973877,0.12195122241973877,21.75,3.9000000953674316,-10.050000190734863,35.80815887451172,0,
 214217,-0.261962890625,-0.950439453125,-0.032470703125,0.3048780560493469,0.3353658616542816,0.060975611209869385,24.0,4.650000095367432,-12.0,35.6164665222168,0,
 214227,-0.260009765625,-0.946533203125,-0.029541015625,0.3353658616542816,0.27439025044441223,0.396341472864151,22.649999618530273,4.949999809265137,-13.199999809265137,35.6164665222168,0,
 214237,-0.2626953125,-0.94580078125,-0.02001953125,-0.09146341681480408,0.3353658616542816,0.3353658616542816,22.5,5.400000095367432,-13.050000190734863,35.951927185058594,0,
 214247,-0.254638671875,-0.943603515625,-0.018798828125,-0.15243902802467346,0.5487805008888245,0.3353658616542816,22.200000762939453,5.25,-12.149999618530273,35.76023483276367,0,
 214257,-0.263427734375,-0.94384765625,-0.02490234375,0.09146341681480408,0.7012194991111755,0.21341463923454285,22.200000762939453,5.25,-12.149999618530273,35.80815887451172,0,
 214267,-0.260498046875,-0.947021484375,-0.023193359375,-0.09146341681480408,0.18292683362960815,0.4573170840740204,23.399999618530273,6.449999809265137,-12.449999809265137,35.80815887451172,0,
 214277,-0.262939453125,-0.93701171875,-0.02978515625,0.060975611209869385,0.3658536672592163,0.3048780560493469,23.850000381469727,5.699999809265137,-12.149999618530273,35.856082916259766,0,
 214287,-0.260498046875,-0.938720703125,-0.02294921875,0.060975611209869385,-0.12195122241973877,-0.060975611209869385,22.799999237060547,6.300000190734863,-12.75,35.856082916259766,0,
 214297,-0.26220703125,-0.939453125,-0.01904296875,0.0,0.060975611209869385,0.21341463923454285,22.799999237060547,6.300000190734863,-12.75,35.80815887451172,0,
 214307,-0.259765625,-0.950927734375,-0.01904296875,-1.0060975551605225,0.5487805008888245,-0.060975611209869385,23.549999237060547,5.400000095367432,-16.049999237060547,35.80815887451172,0,
 214317,-0.2666015625,-0.947998046875,-0.01416015625,-1.6158536672592163,0.7621951103210449,-0.21341463923454285,23.850000381469727,5.699999809265137,-12.449999809265137,35.52062225341797,0,
 214327,-0.259521484375,-0.947021484375,-0.017822265625,-2.5,1.097561001777649,-0.18292683362960815,21.450000762939453,5.25,-12.149999618530273,35.664390563964844,0,
 214337,-0.267333984375,-0.948486328125,-0.019775390625,-2.7439024448394775,1.4634146690368652,0.18292683362960815,22.200000762939453,6.449999809265137,-12.449999809265137,35.80815887451172,0,
 214347,-0.262451171875,-0.939208984375,-0.019775390625,-2.5,1.4634146690368652,0.060975611209869385,22.200000762939453,6.449999809265137,-12.449999809265137,35.664390563964844,0,
 214357,-0.25439453125,-0.94384765625,-0.032470703125,-2.317073106765747,1.1890244483947754,-0.060975611209869385,22.649999618530273,6.0,-11.699999809265137,35.951927185058594,0,
 214367,-0.259033203125,-0.9365234375,-0.031982421875,-1.2195122241973877,1.097561001777649,0.18292683362960815,23.549999237060547,6.300000190734863,-10.800000190734863,35.80815887451172,0,
 214377,-0.25732421875,-0.938232421875,-0.024658203125,-0.6707317233085632,0.7317073345184326,0.21341463923454285,23.399999618530273,5.699999809265137,-12.149999618530273,35.76023483276367,0,
 214387,-0.25439453125,-0.946533203125,-0.02783203125,0.030487805604934692,0.21341463923454285,-0.09146341681480408,24.0,5.849999904632568,-12.300000190734863,35.856082916259766,0,
 214397,-0.263916015625,-0.943603515625,-0.0322265625,0.060975611209869385,-0.060975611209869385,0.5792682766914368,24.0,5.849999904632568,-12.300000190734863,35.856082916259766,0,
 214407,-0.260986328125,-0.9443359375,-0.028076171875,0.3658536672592163,-0.4268292784690857,0.24390244483947754,23.549999237060547,7.800000190734863,-14.550000190734863,35.664390563964844,0,
 214417,-0.2607421875,-0.945556640625,-0.021728515625,0.5792682766914368,-0.18292683362960815,0.030487805604934692,23.25,4.650000095367432,-11.25,35.951927185058594,0,
 214427,-0.262451171875,-0.9443359375,-0.025390625,0.396341472864151,-0.15243902802467346,0.3353658616542816,23.25,5.400000095367432,-13.800000190734863,35.6164665222168,0,
 214437,-0.26318359375,-0.948974609375,-0.02685546875,0.12195122241973877,0.3048780560493469,0.18292683362960815,23.25,5.400000095367432,-13.800000190734863,35.80815887451172,0,
 214447,-0.2578125,-0.951171875,-0.01953125,0.24390244483947754,0.24390244483947754,0.5182926654815674,23.850000381469727,5.699999809265137,-13.649999618530273,35.99985122680664,0,
 214457,-0.253662109375,-0.951416015625,-0.0205078125,-0.4878048896789551,0.3658536672592163,0.792682945728302,22.649999618530273,5.25,-12.149999618530273,35.664390563964844,0,
 214467,-0.2568359375,-0.946044921875,-0.020751953125,-0.5487805008888245,0.3353658616542816,0.6707317233085632,24.600000381469727,5.699999809265137,-12.149999618530273,35.6164665222168,0,
 214477,-0.263427734375,-0.94775390625,-0.0244140625,-0.9756097793579102,0.24390244483947754,0.8231707215309143,23.850000381469727,8.399999618530273,-12.449999809265137,35.80815887451172,0,
 214487,-0.257080078125,-0.9462890625,-0.023681640625,-0.7317073345184326,0.21341463923454285,0.6402438879013062,23.850000381469727,8.399999618530273,-12.449999809265137,35.856082916259766,0,
 214497,-0.263427734375,-0.942626953125,-0.02978515625,-1.0365853309631348,0.18292683362960815,0.7621951103210449,22.799999237060547,5.849999904632568,-12.75,35.52062225341797,0,
 214507,-0.2529296875,-0.938720703125,-0.020263671875,-0.396341472864151,-0.060975611209869385,0.6097561120986938,22.5,5.400000095367432,-13.050000190734863,35.856082916259766,0,
 214517,-0.259521484375,-0.947509765625,-0.0302734375,-0.3658536672592163,0.09146341681480408,1.0060975551605225,23.399999618530273,4.050000190734863,-14.699999809265137,35.6164665222168,0,
 214537,-0.262939453125,-0.94970703125,-0.019287109375,-0.15243902802467346,0.09146341681480408,0.5487805008888245,23.549999237060547,5.099999904632568,-12.300000190734863,35.6164665222168,0,
 214547,-0.262939453125,-0.947021484375,-0.022216796875,-0.060975611209869385,0.060975611209869385,0.6402438879013062,23.25,5.849999904632568,-10.050000190734863,35.6164665222168,0,
 214557,-0.263916015625,-0.943603515625,-0.022705078125,-0.7317073345184326,0.24390244483947754,0.3353658616542816,22.799999237060547,7.5,-13.050000190734863,35.664390563964844,0,
 214567,-0.262451171875,-0.94384765625,-0.01953125,-0.8536585569381714,0.7012194991111755,0.12195122241973877,21.899999618530273,4.050000190734863,-12.449999809265137,35.32892990112305,0,
 214577,-0.255126953125,-0.93896484375,-0.029052734375,-0.27439025044441223,0.5792682766914368,0.27439025044441223,21.899999618530273,4.050000190734863,-12.449999809265137,35.52062225341797,0,
 214587,-0.259521484375,-0.942626953125,-0.020751953125,0.0,0.3658536672592163,0.3353658616542816,23.850000381469727,5.699999809265137,-13.199999809265137,35.99985122680664,0,
 214597,-0.26171875,-0.94189453125,-0.028076171875,-0.396341472864151,0.4268292784690857,0.030487805604934692,24.0,6.300000190734863,-12.300000190734863,35.951927185058594,0,
 214607,-0.25830078125,-0.94482421875,-0.024658203125,0.060975611209869385,0.12195122241973877,0.3048780560493469,24.0,6.300000190734863,-12.300000190734863,35.856082916259766,0,
 214617,-0.25927734375,-0.9443359375,-0.023681640625,-0.060975611209869385,0.24390244483947754,-0.060975611209869385,24.450000762939453,4.349999904632568,-16.049999237060547,35.52062225341797,0,
 214627,-0.26171875,-0.952392578125,-0.016845703125,-0.12195122241973877,0.15243902802467346,0.12195122241973877,24.450000762939453,4.349999904632568,-16.049999237060547,35.80815887451172,0,
 214637,-0.26416015625,-0.946044921875,-0.0185546875,-0.6402438879013062,0.6707317233085632,0.18292683362960815,24.149999618530273,6.900000095367432,-12.899999618530273,36.04777145385742,0,
 214647,-0.25927734375,-0.946044921875,-0.0244140625,-0.9756097793579102,0.24390244483947754,0.15243902802467346,21.450000762939453,6.0,-12.449999809265137,35.76023483276367,0,
 214657,-0.262451171875,-0.943603515625,-0.02783203125,-1.6768293380737305,0.6707317233085632,0.12195122241973877,23.25,5.849999904632568,-12.75,35.76023483276367,0,
 214667,-0.261474609375,-0.943603515625,-0.025146484375,-1.8597561120986938,0.5792682766914368,0.4878048896789551,22.200000762939453,4.949999809265137,-12.449999809265137,35.664390563964844,0,
 214677,-0.262451171875,-0.945068359375,-0.0283203125,-1.3719512224197388,0.6402438879013062,0.21341463923454285,22.200000762939453,4.949999809265137,-12.449999809265137,35.76023483276367,0,
 214687,-0.257568359375,-0.94140625,-0.027099609375,-0.4573170840740204,0.6402438879013062,0.5792682766914368,23.399999618530273,6.0,-11.699999809265137,35.856082916259766,0,
 214697,-0.26318359375,-0.94189453125,-0.023681640625,-0.5792682766914368,0.5182926654815674,0.4268292784690857,22.200000762939453,4.949999809265137,-12.899999618530273,35.856082916259766,0,
 214707,-0.25537109375,-0.946044921875,-0.02685546875,-0.4878048896789551,0.21341463923454285,0.396341472864151,23.100000381469727,4.050000190734863,-13.649999618530273,35.856082916259766,0,
 214717,-0.256103515625,-0.942626953125,-0.026611328125,-0.3353658616542816,0.27439025044441223,0.27439025044441223,23.100000381469727,4.050000190734863,-13.649999618530273,35.76023483276367,0,
 214727,-0.26123046875,-0.93798828125,-0.02734375,-0.15243902802467346,0.09146341681480408,0.3658536672592163,23.850000381469727,5.25,-13.199999809265137,35.664390563964844,0,
 214737,-0.25830078125,-0.946044921875,-0.029296875,0.030487805604934692,0.3048780560493469,0.21341463923454285,24.0,4.650000095367432,-13.050000190734863,35.76023483276367,0,
 214747,-0.256591796875,-0.947998046875,-0.02490234375,0.24390244483947754,0.0,0.0,22.200000762939453,4.949999809265137,-12.449999809265137,35.664390563964844,0,
 214757,-0.262939453125,-0.9482421875,-0.024658203125,0.18292683362960815,0.12195122241973877,0.4878048896789551,23.100000381469727,4.949999809265137,-12.449999809265137,35.664390563964844,0,
 214767,-0.2607421875,-0.942626953125,-0.022216796875,0.060975611209869385,0.12195122241973877,-0.060975611209869385,23.100000381469727,4.949999809265137,-12.449999809265137,35.856082916259766,0,
 214777,-0.264404296875,-0.94677734375,-0.022216796875,-0.18292683362960815,0.3048780560493469,0.21341463923454285,21.75,5.400000095367432,-13.050000190734863,35.6164665222168,0,
 214787,-0.2587890625,-0.94873046875,-0.0205078125,-0.24390244483947754,0.3353658616542816,0.12195122241973877,24.0,4.650000095367432,-11.550000190734863,35.6164665222168,0,
 214798,-0.261962890625,-0.9443359375,-0.02099609375,-0.4878048896789551,0.27439025044441223,-0.030487805604934692,23.100000381469727,4.5,-11.399999618530273,35.856082916259766,0,
 214808,-0.26171875,-0.944091796875,-0.02490234375,-0.5487805008888245,0.4573170840740204,0.060975611209869385,24.450000762939453,6.599999904632568,-13.050000190734863,35.6164665222168,0,
 214818,-0.259033203125,-0.941162109375,-0.02392578125,-0.060975611209869385,0.3048780560493469,0.0,24.450000762939453,6.599999904632568,-13.050000190734863,35.951927185058594,0,
 214828,-0.257080078125,-0.940185546875,-0.020751953125,-0.09146341681480408,0.27439025044441223,-0.060975611209869385,22.649999618530273,5.25,-12.449999809265137,35.80815887451172,0,
 214838,-0.260498046875,-0.946533203125,-0.021240234375,-0.24390244483947754,0.4878048896789551,0.030487805604934692,22.649999618530273,4.949999809265137,-11.699999809265137,35.80815887451172,0,
 214848,-0.25634765625,-0.945068359375,-0.02490234375,-0.4268292784690857,0.3353658616542816,0.27439025044441223,23.549999237060547,6.300000190734863,-11.550000190734863,35.76023483276367,0,
 214858,-0.263671875,-0.9462890625,-0.03076171875,-0.396341472864151,0.5487805008888245,0.4268292784690857,23.549999237060547,6.300000190734863,-11.550000190734863,35.664390563964844,0,
 214868,-0.263427734375,-0.944091796875,-0.021728515625,-0.5792682766914368,0.27439025044441223,0.3048780560493469,23.399999618530273,5.699999809265137,-12.149999618530273,35.664390563964844,0,
 214878,-0.2578125,-0.942626953125,-0.021240234375,-0.8231707215309143,0.09146341681480408,0.27439025044441223,22.5,4.349999904632568,-12.75,35.6164665222168,0,
 214888,-0.2587890625,-0.945068359375,-0.02392578125,-0.6097561120986938,0.3658536672592163,-0.21341463923454285,21.450000762939453,4.5,-12.449999809265137,35.856082916259766,0,
 214898,-0.2578125,-0.94580078125,-0.024169921875,-0.3353658616542816,0.5487805008888245,0.060975611209869385,23.100000381469727,6.0,-12.899999618530273,35.856082916259766,0,
 214908,-0.255126953125,-0.94140625,-0.02392578125,-0.4573170840740204,0.3048780560493469,-0.3048780560493469,23.100000381469727,6.0,-12.899999618530273,35.32892990112305,0,
 214918,-0.259033203125,-0.94970703125,-0.02490234375,-0.6402438879013062,0.18292683362960815,0.24390244483947754,23.399999618530273,6.0,-15.449999809265137,35.80815887451172,0,
 214928,-0.261474609375,-0.9501953125,-0.0224609375,-1.2195122241973877,0.4878048896789551,0.030487805604934692,23.850000381469727,6.0,-12.449999809265137,35.664390563964844,0,
 214938,-0.2578125,-0.943115234375,-0.02685546875,-0.7012194991111755,0.4878048896789551,0.3658536672592163,23.399999618530273,5.699999809265137,-12.149999618530273,35.664390563964844,0,
 214948,-0.26220703125,-0.94677734375,-0.0224609375,-1.1890244483947754,0.6402438879013062,0.21341463923454285,24.0,5.400000095367432,-13.050000190734863,35.99985122680664,0,
 214958,-0.258056640625,-0.939208984375,-0.02587890625,-0.7317073345184326,0.4573170840740204,0.3048780560493469,24.0,5.400000095367432,-13.050000190734863,35.6164665222168,0,
 214968,-0.26025390625,-0.94287109375,-0.0302734375,-0.5182926654815674,0.27439025044441223,0.7012194991111755,23.25,6.300000190734863,-12.300000190734863,35.80815887451172,0,
 214978,-0.26220703125,-0.94775390625,-0.024169921875,-0.5792682766914368,0.15243902802467346,0.4268292784690857,23.850000381469727,5.699999809265137,-11.699999809265137,35.951927185058594,0,
 214988,-0.260498046875,-0.948486328125,-0.024169921875,-0.4268292784690857,0.18292683362960815,0.030487805604934692,23.850000381469727,6.0,-12.149999618530273,35.951927185058594,0,
 214998,-0.258544921875,-0.943603515625,-0.028564453125,-0.21341463923454285,0.18292683362960815,0.3353658616542816,23.850000381469727,6.0,-12.149999618530273,35.664390563964844,0,
 215008,-0.2578125,-0.94287109375,-0.02978515625,-0.7621951103210449,0.3048780560493469,0.15243902802467346,24.0,4.650000095367432,-13.050000190734863,35.32892990112305,0,
 215018,-0.259765625,-0.944091796875,-0.022216796875,-0.7317073345184326,0.3658536672592163,0.3658536672592163,22.200000762939453,5.25,-12.449999809265137,35.856082916259766,0,
 215028,-0.258544921875,-0.9462890625,-0.02685546875,-1.097561001777649,0.4573170840740204,0.3353658616542816,21.299999237060547,5.849999904632568,-14.25,35.664390563964844,0,
 215038,-0.2529296875,-0.943359375,-0.025634765625,-0.4268292784690857,0.4878048896789551,0.6707317233085632,23.850000381469727,5.699999809265137,-12.899999618530273,35.99985122680664,0,
 215048,-0.25732421875,-0.943603515625,-0.02978515625,-0.4268292784690857,0.4268292784690857,0.21341463923454285,23.850000381469727,5.699999809265137,-12.899999618530273,35.76023483276367,0,
 215058,-0.2626953125,-0.942138671875,-0.02392578125,-0.6707317233085632,0.21341463923454285,0.4878048896789551,23.399999618530273,6.0,-12.449999809265137,35.6164665222168,0,
 215068,-0.25390625,-0.943359375,-0.0263671875,-0.4573170840740204,0.24390244483947754,0.4573170840740204,23.850000381469727,7.650000095367432,-13.649999618530273,35.80815887451172,0,
 215078,-0.2626953125,-0.943603515625,-0.02734375,-0.27439025044441223,0.3353658616542816,0.5487805008888245,23.549999237060547,5.400000095367432,-12.0,35.76023483276367,0,
 215088,-0.260009765625,-0.94384765625,-0.023681640625,-0.3658536672592163,0.21341463923454285,0.3048780560493469,23.549999237060547,5.400000095367432,-12.0,35.80815887451172,0,
 215098,-0.260986328125,-0.94482421875,-0.028076171875,-0.3353658616542816,0.3353658616542816,0.3658536672592163,23.399999618530273,6.449999809265137,-11.399999618530273,35.80815887451172,0,
 215108,-0.261474609375,-0.94287109375,-0.024169921875,0.18292683362960815,0.27439025044441223,0.5792682766914368,23.399999618530273,4.949999809265137,-12.149999618530273,35.664390563964844,0,
 215118,-0.258056640625,-0.947265625,-0.02001953125,0.4573170840740204,0.27439025044441223,0.030487805604934692,22.649999618530273,4.949999809265137,-12.449999809265137,35.80815887451172,0,
 215128,-0.26708984375,-0.947998046875,-0.017822265625,-0.24390244483947754,0.3353658616542816,0.396341472864151,23.25,7.5,-16.049999237060547,35.856082916259766,0,
 215138,-0.25732421875,-0.9453125,-0.021484375,-0.7012194991111755,0.3658536672592163,0.3658536672592163,23.25,7.5,-16.049999237060547,35.76023483276367,0,
 215148,-0.2587890625,-0.941650390625,-0.021484375,-0.6707317233085632,0.5487805008888245,0.27439025044441223,23.549999237060547,4.650000095367432,-11.550000190734863,35.6164665222168,0,
 215158,-0.2587890625,-0.941650390625,-0.02685546875,-0.7621951103210449,0.7621951103210449,0.3048780560493469,24.0,5.849999904632568,-12.75,35.664390563964844,0,
 215168,-0.259765625,-0.9443359375,-0.027587890625,-1.1280487775802612,0.21341463923454285,0.3048780560493469,22.799999237060547,5.099999904632568,-13.050000190734863,35.951927185058594,0,
 215178,-0.259033203125,-0.9375,-0.0302734375,-0.9451219439506531,0.060975611209869385,-0.060975611209869385,22.799999237060547,6.300000190734863,-11.550000190734863,35.856082916259766,0,
 215188,-0.258544921875,-0.946044921875,-0.025390625,-0.3048780560493469,0.15243902802467346,0.060975611209869385,22.799999237060547,6.300000190734863,-11.550000190734863,35.856082916259766,0,
 215198,-0.258544921875,-0.9423828125,-0.023681640625,-0.060975611209869385,-0.21341463923454285,0.3048780560493469,23.100000381469727,6.449999809265137,-13.199999809265137,35.664390563964844,0,
 215208,-0.26025390625,-0.951171875,-0.022216796875,-0.21341463923454285,-0.15243902802467346,0.21341463923454285,23.850000381469727,5.25,-12.899999618530273,35.951927185058594,0,
 215218,-0.25830078125,-0.947509765625,-0.0244140625,-0.4878048896789551,-0.09146341681480408,0.4878048896789551,23.549999237060547,5.099999904632568,-12.300000190734863,35.76023483276367,0,
 215228,-0.267578125,-0.947998046875,-0.01953125,-0.5182926654815674,0.3353658616542816,0.27439025044441223,23.549999237060547,5.099999904632568,-12.300000190734863,35.856082916259766,0,
 215238,-0.26123046875,-0.9482421875,-0.01611328125,-0.6402438879013062,0.27439025044441223,0.396341472864151,22.649999618530273,7.199999809265137,-13.199999809265137,35.76023483276367,0,
 215248,-0.259033203125,-0.939453125,-0.0185546875,-1.1585365533828735,0.4878048896789551,0.3658536672592163,24.75,6.599999904632568,-13.800000190734863,35.6164665222168,0,
 215258,-0.26171875,-0.945068359375,-0.020263671875,-0.8536585569381714,0.6707317233085632,0.3048780560493469,24.600000381469727,6.0,-12.899999618530273,35.664390563964844,0,
 215268,-0.258544921875,-0.94580078125,-0.02783203125,-0.7621951103210449,0.4573170840740204,0.7012194991111755,23.399999618530273,6.0,-12.899999618530273,35.664390563964844,0,
 215278,-0.255126953125,-0.953857421875,-0.025390625,-0.3658536672592163,0.3353658616542816,0.5182926654815674,23.399999618530273,6.0,-12.899999618530273,35.99985122680664,0,
 215288,-0.254150390625,-0.9443359375,-0.022705078125,-0.9756097793579102,0.060975611209869385,0.4573170840740204,22.200000762939453,5.699999809265137,-13.199999809265137,35.664390563964844,0,
 215298,-0.2626953125,-0.944580078125,-0.027587890625,-0.7621951103210449,0.18292683362960815,0.09146341681480408,23.25,5.400000095367432,-12.75,35.664390563964844,0,
 215308,-0.25927734375,-0.940673828125,-0.023681640625,-0.3658536672592163,0.24390244483947754,0.3353658616542816,22.200000762939453,4.5,-12.449999809265137,35.951927185058594,0,
 215318,-0.26318359375,-0.946044921875,-0.025146484375,-0.24390244483947754,0.12195122241973877,0.396341472864151,21.899999618530273,6.0,-12.899999618530273,35.6164665222168,0,
 215328,-0.26806640625,-0.94775390625,-0.027099609375,-0.18292683362960815,0.030487805604934692,0.3048780560493469,21.899999618530273,6.0,-12.899999618530273,35.856082916259766,0,
 215338,-0.25732421875,-0.947021484375,-0.0205078125,-0.18292683362960815,0.18292683362960815,0.396341472864151,23.549999237060547,5.849999904632568,-12.75,35.951927185058594,0,
 215348,-0.251953125,-0.9482421875,-0.024169921875,-0.27439025044441223,0.396341472864151,0.12195122241973877,22.799999237060547,7.050000190734863,-12.0,35.281005859375,0,
 215358,-0.263916015625,-0.94677734375,-0.021240234375,-0.4878048896789551,0.6402438879013062,0.0,23.399999618530273,6.0,-13.649999618530273,35.856082916259766,0,
 215368,-0.2587890625,-0.9443359375,-0.02197265625,-0.4268292784690857,0.5182926654815674,0.27439025044441223,23.399999618530273,6.0,-13.649999618530273,35.76023483276367,0,
 215378,-0.26171875,-0.940185546875,-0.024658203125,-0.4268292784690857,0.4878048896789551,0.5182926654815674,23.549999237060547,5.400000095367432,-12.75,35.664390563964844,0,
 215388,-0.260009765625,-0.94970703125,-0.024658203125,-0.21341463923454285,0.4878048896789551,0.24390244483947754,21.75,5.099999904632568,-14.25,35.76023483276367,0,
 215398,-0.25341796875,-0.948486328125,-0.02685546875,0.18292683362960815,0.3658536672592163,0.5182926654815674,21.450000762939453,6.0,-11.699999809265137,35.856082916259766,0,
 215408,-0.2587890625,-0.945556640625,-0.0244140625,0.15243902802467346,0.060975611209869385,0.396341472864151,22.5,5.849999904632568,-10.5,35.664390563964844,0,
 215418,-0.2607421875,-0.94482421875,-0.0244140625,-0.09146341681480408,0.030487805604934692,0.4268292784690857,22.5,5.849999904632568,-10.5,35.856082916259766,0,
 215428,-0.25927734375,-0.93994140625,-0.022216796875,-0.3658536672592163,0.12195122241973877,0.4268292784690857,22.649999618530273,4.5,-13.649999618530273,35.664390563964844,0,
 215438,-0.263427734375,-0.945068359375,-0.018310546875,-0.8536585569381714,0.18292683362960815,0.09146341681480408,22.799999237060547,3.9000000953674316,-14.25,35.80815887451172,0,
 215448,-0.255615234375,-0.945068359375,-0.027099609375,-0.8536585569381714,0.030487805604934692,0.09146341681480408,22.799999237060547,5.400000095367432,-12.75,35.664390563964844,0,
 215458,-0.263671875,-0.942626953125,-0.020751953125,-0.7317073345184326,0.21341463923454285,0.09146341681480408,23.25,5.849999904632568,-12.75,35.664390563964844,0,
 215468,-0.26806640625,-0.94580078125,-0.021728515625,-0.4878048896789551,0.6402438879013062,-0.030487805604934692,23.25,5.849999904632568,-12.75,35.664390563964844,0,
 215478,-0.2578125,-0.945556640625,-0.028564453125,-1.3414634466171265,0.3658536672592163,0.5182926654815674,22.799999237060547,6.300000190734863,-13.5,35.856082916259766,0,
 215488,-0.262451171875,-0.942138671875,-0.029296875,-1.0365853309631348,0.5487805008888245,0.3048780560493469,24.600000381469727,4.949999809265137,-12.449999809265137,35.80815887451172,0,
 215498,-0.2529296875,-0.9453125,-0.027099609375,-0.4268292784690857,0.3048780560493469,0.3658536672592163,23.399999618530273,5.25,-12.449999809265137,35.42477798461914,0,
 215508,-0.2607421875,-0.935791015625,-0.02978515625,-0.6097561120986938,0.24390244483947754,0.18292683362960815,23.399999618530273,5.25,-12.449999809265137,35.76023483276367,0,
 215518,-0.256591796875,-0.9423828125,-0.028564453125,-0.030487805604934692,0.3048780560493469,0.396341472864151,23.850000381469727,4.5,-11.399999618530273,35.664390563964844,0,
 215528,-0.259033203125,-0.946044921875,-0.025634765625,0.12195122241973877,-0.24390244483947754,0.5182926654815674,23.549999237060547,4.349999904632568,-12.0,35.856082916259766,0,
 215539,-0.25927734375,-0.943115234375,-0.030029296875,0.18292683362960815,-0.12195122241973877,0.4878048896789551,24.75,6.599999904632568,-16.049999237060547,35.80815887451172,0,
 215549,-0.25830078125,-0.950439453125,-0.022705078125,0.030487805604934692,0.030487805604934692,0.24390244483947754,23.100000381469727,5.25,-11.699999809265137,35.52062225341797,0,
 215559,-0.2578125,-0.950439453125,-0.021240234375,-0.4268292784690857,-0.030487805604934692,0.21341463923454285,23.100000381469727,5.25,-11.699999809265137,35.99985122680664,0,
 215569,-0.2646484375,-0.94873046875,-0.0244140625,-0.8841463327407837,0.24390244483947754,0.3658536672592163,23.25,6.300000190734863,-12.300000190734863,35.76023483276367,0,
 215579,-0.26171875,-0.944091796875,-0.01904296875,-0.8536585569381714,0.4878048896789551,0.4268292784690857,23.399999618530273,6.900000095367432,-14.399999618530273,35.76023483276367,0,
 215589,-0.25537109375,-0.941650390625,-0.025146484375,-0.8231707215309143,0.24390244483947754,0.12195122241973877,21.299999237060547,6.300000190734863,-12.0,35.76023483276367,0,
 215599,-0.2578125,-0.947998046875,-0.028564453125,-0.7621951103210449,0.15243902802467346,0.8231707215309143,21.299999237060547,4.650000095367432,-13.050000190734863,35.80815887451172,0,
 215609,-0.255615234375,-0.941650390625,-0.0263671875,-0.396341472864151,0.4573170840740204,0.27439025044441223,21.299999237060547,4.650000095367432,-13.050000190734863,35.664390563964844,0,
