timestamp,accl_x,accl_y,accl_z,gyro_x,gyro_y,gyro_z,mag_x,mag_y,mag_z,temp,emg,
 720959,-0.464111328125,-0.86669921875,-0.250244140625,-7.835366249084473,2.8353660106658936,0.8536585569381714,30.75,-6.0,-7.650000095367432,40.264984130859375,0,
 720969,-0.45654296875,-0.85546875,-0.264892578125,-9.054878234863281,3.353658676147461,1.9512195587158203,31.200000762939453,-5.099999904632568,-7.050000190734863,40.50459671020508,0,
 720979,-0.45556640625,-0.842529296875,-0.287109375,-8.567073822021484,3.0182926654815674,3.445122003555298,29.100000381469727,-4.050000190734863,-8.399999618530273,40.40875244140625,0,
 720989,-0.446533203125,-0.822265625,-0.30224609375,-7.195122241973877,1.9512195587158203,3.8109757900238037,29.700000762939453,-5.400000095367432,-9.0,40.50459671020508,0,
 720999,-0.439453125,-0.8203125,-0.297607421875,-5.457317352294922,-0.060975611209869385,4.115853786468506,30.450000762939453,-3.9000000953674316,-9.300000190734863,40.552520751953125,0,
 721009,-0.447509765625,-0.810302734375,-0.29638671875,-3.4146342277526855,-1.8902438879013062,3.262195110321045,30.450000762939453,-3.9000000953674316,-9.300000190734863,40.40875244140625,0,
 721019,-0.443603515625,-0.83642578125,-0.30126953125,-1.0670732259750366,-4.02439022064209,2.804877996444702,29.700000762939453,-6.300000190734863,-8.25,40.60044479370117,0,
 721029,-0.437255859375,-0.84619140625,-0.2880859375,-0.4878048896789551,-5.8231706619262695,2.0426828861236572,29.700000762939453,-3.1500000953674316,-8.25,40.3608283996582,0,
 721039,-0.454833984375,-0.84423828125,-0.263671875,-1.3719512224197388,-7.378048896789551,2.103658676147461,29.399999618530273,-6.599999904632568,-8.25,40.40875244140625,0,
 721049,-0.468017578125,-0.828369140625,-0.259033203125,-2.1341464519500732,-6.646341800689697,2.5,29.399999618530273,-6.599999904632568,-8.25,40.3608283996582,0,
 721059,-0.471435546875,-0.829345703125,-0.258056640625,-2.103658676147461,-6.219512462615967,2.6219513416290283,29.549999237060547,-4.949999809265137,-7.949999809265137,40.552520751953125,0,
 721069,-0.4736328125,-0.810302734375,-0.246337890625,-1.432926893234253,-5.030488014221191,3.079268455505371,28.799999237060547,-6.449999809265137,-9.149999618530273,40.50459671020508,0,
 721079,-0.47216796875,-0.828369140625,-0.250732421875,-0.8841463327407837,-3.2012195587158203,2.4390244483947754,29.100000381469727,-4.5,-9.449999809265137,40.21706008911133,0,
 721089,-0.4765625,-0.817626953125,-0.24462890625,-1.402438998222351,-1.6768293380737305,0.792682945728302,29.100000381469727,-4.5,-9.449999809265137,40.40875244140625,0,
 721099,-0.4697265625,-0.822998046875,-0.243896484375,-2.1646342277526855,-0.5182926654815674,-0.060975611209869385,31.5,-4.949999809265137,-10.199999809265137,40.3608283996582,0,
 721109,-0.464599609375,-0.81884765625,-0.251953125,-2.5,1.0670732259750366,-1.7987805604934692,30.149999618530273,-4.650000095367432,-7.800000190734863,40.552520751953125,0,
 721119,-0.458984375,-0.820556640625,-0.256591796875,-3.4146342277526855,1.920731782913208,-2.4390244483947754,30.899999618530273,-4.349999904632568,-9.75,40.40875244140625,0,
 721129,-0.4541015625,-0.80810546875,-0.275390625,-2.5609755516052246,1.8292683362960815,-4.054878234863281,30.899999618530273,-4.349999904632568,-9.75,40.21706008911133,0,
 721139,-0.451416015625,-0.816650390625,-0.30078125,-0.3353658616542816,-0.18292683362960815,-3.7804877758026123,30.149999618530273,-3.450000047683716,-7.800000190734863,40.6962890625,0,
 721149,-0.4423828125,-0.8212890625,-0.31103515625,2.317073106765747,-2.3475611209869385,-3.353658676147461,28.799999237060547,-3.75,-7.650000095367432,40.552520751953125,0,
 721159,-0.44482421875,-0.836669921875,-0.309326171875,4.146341323852539,-4.146341323852539,-2.804877996444702,30.299999237060547,-6.0,-6.900000095367432,40.40875244140625,0,
 721169,-0.44580078125,-0.837158203125,-0.30322265625,5.8231706619262695,-5.97560977935791,-2.4390244483947754,29.850000381469727,-5.25,-11.399999618530273,40.3608283996582,0,
 721179,-0.447998046875,-0.83447265625,-0.290283203125,7.22560977935791,-6.646341800689697,-1.6158536672592163,30.149999618530273,-5.099999904632568,-8.25,40.552520751953125,0,
 721189,-0.455322265625,-0.843994140625,-0.272705078125,6.646341800689697,-6.8597564697265625,-1.3719512224197388,29.549999237060547,-6.449999809265137,-9.149999618530273,40.40875244140625,0,
 721199,-0.459716796875,-0.844970703125,-0.247314453125,5.853658676147461,-5.97560977935791,-1.3414634466171265,29.399999618530273,-3.450000047683716,-9.0,40.60044479370117,0,
 721209,-0.47509765625,-0.844482421875,-0.238525390625,5.70121955871582,-4.969512462615967,-1.432926893234253,29.549999237060547,-4.050000190734863,-8.399999618530273,40.74421310424805,0,
 721219,-0.471923828125,-0.84814453125,-0.236083984375,4.6646342277526855,-2.6524391174316406,-1.402438998222351,29.549999237060547,-4.050000190734863,-8.399999618530273,40.07329177856445,0,
 721229,-0.474609375,-0.82421875,-0.2216796875,4.908536911010742,-0.030487805604934692,-1.737804889678955,30.299999237060547,-5.25,-7.949999809265137,40.74421310424805,0,
 721239,-0.459716796875,-0.823486328125,-0.23046875,5.457317352294922,1.8292683362960815,-2.7134146690368652,29.549999237060547,-4.050000190734863,-9.149999618530273,40.6962890625,0,
 721249,-0.46875,-0.83544921875,-0.237060546875,3.2926828861236572,3.1402440071105957,-3.8109757900238037,31.200000762939453,-5.400000095367432,-7.800000190734863,40.40875244140625,0,
 721259,-0.463134765625,-0.822998046875,-0.240966796875,2.5304877758026123,4.054878234863281,-5.304878234863281,31.200000762939453,-5.400000095367432,-7.800000190734863,40.3608283996582,0,
 721269,-0.45751953125,-0.849853515625,-0.232177734375,0.12195122241973877,4.939024448394775,-5.853658676147461,30.899999618530273,-4.349999904632568,-13.050000190734863,40.16913604736328,0,
 721279,-0.4599609375,-0.851318359375,-0.240478515625,-1.6463414430618286,5.27439022064209,-5.396341800689697,30.75,-5.25,-8.399999618530273,40.16913604736328,0,
 721289,-0.434326171875,-0.877685546875,-0.25537109375,-3.7195122241973877,5.182927131652832,-4.481707572937012,28.200000762939453,-5.400000095367432,-9.0,40.50459671020508,0,
 721299,-0.445556640625,-0.868408203125,-0.273193359375,-4.756097793579102,3.9024391174316406,-3.0487804412841797,28.200000762939453,-5.400000095367432,-9.0,40.552520751953125,0,
 721309,-0.448486328125,-0.861328125,-0.279541015625,-5.152439117431641,2.7439024448394775,-1.585365891456604,30.450000762939453,-5.400000095367432,-8.25,40.40875244140625,0,
 721319,-0.4423828125,-0.86083984375,-0.2734375,-4.45121955871582,1.4939024448394775,-0.6402438879013062,30.299999237060547,-3.75,-8.699999809265137,40.40875244140625,0,
 721329,-0.44921875,-0.86376953125,-0.2744140625,-4.115853786468506,-0.09146341681480408,0.3658536672592163,29.549999237060547,-4.050000190734863,-7.650000095367432,40.552520751953125,0,
 721339,-0.441650390625,-0.849365234375,-0.27294921875,-3.567073345184326,-1.402438998222351,1.4939024448394775,29.549999237060547,-4.050000190734863,-7.650000095367432,40.552520751953125,0,
 721349,-0.45263671875,-0.84375,-0.276611328125,-2.987804889678955,-2.5304877758026123,2.5,30.299999237060547,-4.949999809265137,-7.949999809265137,40.60044479370117,0,
 721460,-0.459716796875,-0.8408203125,-0.26123046875,-4.2682929039001465,0.27439025044441223,-2.8353660106658936,28.350000381469727,-4.050000190734863,-9.449999809265137,40.50459671020508,0,
 721470,-0.4482421875,-0.8720703125,-0.269287109375,-2.378048896789551,1.0670732259750366,-1.4634146690368652,28.350000381469727,-4.050000190734863,-9.449999809265137,40.16913604736328,0,
 721480,-0.4609375,-0.871826171875,-0.2666015625,-2.195122003555298,0.7012194991111755,0.3048780560493469,30.450000762939453,-3.1500000953674316,-8.550000190734863,40.40875244140625,0,
 721490,-0.450927734375,-0.8642578125,-0.28173828125,-1.6463414430618286,0.09146341681480408,1.9817073345184326,29.100000381469727,-4.949999809265137,-9.449999809265137,40.6962890625,0,
 721500,-0.444580078125,-0.881103515625,-0.285400390625,-1.0670732259750366,-0.21341463923454285,4.02439022064209,30.899999618530273,-5.400000095367432,-7.050000190734863,40.50459671020508,0,
 721510,-0.436279296875,-0.8662109375,-0.285400390625,-0.8841463327407837,-1.097561001777649,6.402439117431641,30.899999618530273,-5.400000095367432,-7.050000190734863,40.552520751953125,0,
 721520,-0.440673828125,-0.858642578125,-0.273681640625,-0.5792682766914368,-2.591463565826416,8.384146690368652,28.950000762939453,-5.099999904632568,-7.800000190734863,40.264984130859375,0,
 721530,-0.453369140625,-0.841796875,-0.2744140625,0.09146341681480408,-3.47560977935791,10.12195110321045,28.950000762939453,-5.400000095367432,-8.550000190734863,40.40875244140625,0,
 721540,-0.449951171875,-0.8310546875,-0.282958984375,1.7073171138763428,-4.329268455505371,11.25,29.549999237060547,-3.75,-9.149999618530273,40.3608283996582,0,
 721550,-0.45751953125,-0.830810546875,-0.28173828125,4.0853657722473145,-5.152439117431641,12.5,29.549999237060547,-3.75,-9.149999618530273,40.50459671020508,0,
 721560,-0.471435546875,-0.83056640625,-0.2705078125,6.402439117431641,-5.70121955871582,13.445122718811035,29.700000762939453,-4.650000095367432,-6.300000190734863,40.21706008911133,0,
 721570,-0.468505859375,-0.833984375,-0.252685546875,9.02439022064209,-5.945122241973877,14.02439022064209,31.200000762939453,-6.300000190734863,-7.5,40.40875244140625,0,
 721580,-0.47509765625,-0.83642578125,-0.244384765625,12.317073822021484,-5.731707572937012,15.396342277526855,31.200000762939453,-4.650000095367432,-8.550000190734863,40.60044479370117,0,
 721590,-0.48876953125,-0.84228515625,-0.2431640625,14.085366249084473,-4.207317352294922,16.55487823486328,29.850000381469727,-4.949999809265137,-9.449999809265137,40.552520751953125,0,
 721600,-0.493896484375,-0.843505859375,-0.234375,13.993903160095215,-2.012195110321045,17.286584854125977,31.649999618530273,-5.849999904632568,-8.25,40.79213333129883,0,
 721610,-0.480224609375,-0.8291015625,-0.23681640625,14.87804889678955,-1.920731782913208,18.536584854125977,30.299999237060547,-3.299999952316284,-8.699999809265137,40.40875244140625,0,
 721620,-0.46630859375,-0.862060546875,-0.24462890625,13.018293380737305,-4.115853786468506,18.5060977935791,30.149999618530273,-5.400000095367432,-9.0,40.40875244140625,0,
 721630,-0.45556640625,-0.830322265625,-0.250244140625,11.707317352294922,-6.829268455505371,17.83536720275879,30.299999237060547,-4.949999809265137,-8.699999809265137,40.40875244140625,0,
 721640,-0.4609375,-0.793212890625,-0.27001953125,12.195121765136719,-8.445121765136719,16.219512939453125,30.299999237060547,-4.949999809265137,-8.699999809265137,40.40875244140625,0,
 721650,-0.462890625,-0.79541015625,-0.2578125,11.432927131652832,-9.481707572937012,14.146341323852539,31.950000762939453,-6.599999904632568,-10.800000190734863,40.40875244140625,0,
 721660,-0.46533203125,-0.778076171875,-0.244384765625,10.97560977935791,-10.182927131652832,10.914634704589844,31.799999237060547,-5.25,-9.449999809265137,40.3608283996582,0,
 721670,-0.467529296875,-0.757568359375,-0.2333984375,10.609756469726562,-9.695121765136719,7.286585330963135,31.200000762939453,-5.849999904632568,-10.800000190734863,40.40875244140625,0,
 721680,-0.473876953125,-0.742431640625,-0.264404296875,13.506097793579102,-10.487805366516113,3.75,31.200000762939453,-5.849999904632568,-10.800000190734863,40.74421310424805,0,
 721690,-0.476318359375,-0.7607421875,-0.286376953125,16.585365295410156,-12.256097793579102,1.432926893234253,31.049999237060547,-4.949999809265137,-9.899999618530273,40.6962890625,0,
 721700,-0.48291015625,-0.78125,-0.268310546875,18.689023971557617,-13.59756088256836,-0.7317073345184326,31.200000762939453,-5.099999904632568,-9.300000190734863,40.50459671020508,0,
 721710,-0.50341796875,-0.781005859375,-0.224609375,18.9939022064209,-11.981707572937012,-2.1341464519500732,28.799999237060547,-4.949999809265137,-8.699999809265137,40.40875244140625,0,
 721720,-0.522705078125,-0.803466796875,-0.2236328125,19.024391174316406,-8.87195110321045,-2.987804889678955,28.799999237060547,-4.949999809265137,-8.699999809265137,40.552520751953125,0,
 721730,-0.53955078125,-0.8525390625,-0.192138671875,14.359756469726562,-5.579268455505371,-1.7682926654815674,29.850000381469727,-6.0,-10.949999809265137,40.40875244140625,0,
 721740,-0.552001953125,-0.8154296875,-0.148193359375,13.47560977935791,1.6158536672592163,-5.060975551605225,31.649999618530273,-5.099999904632568,-9.75,40.264984130859375,0,
 721750,-0.494873046875,-0.927001953125,-0.07666015625,15.182927131652832,3.567073345184326,-5.152439117431641,32.25,-5.25,-12.899999618530273,40.40875244140625,0,
 721760,-0.531982421875,-0.883056640625,-0.093505859375,5.5182929039001465,6.646341800689697,-5.487804889678955,32.25,-5.25,-12.899999618530273,40.40875244140625,0,
 721770,-0.52783203125,-0.809814453125,-0.1435546875,-1.7987805604934692,13.170731544494629,-5.731707572937012,29.850000381469727,-6.0,-10.199999809265137,40.552520751953125,0,
 721780,-0.500732421875,-0.802734375,-0.169921875,-2.1646342277526855,17.865854263305664,-7.103658676147461,32.54999923706055,-4.5,-12.449999809265137,40.50459671020508,0,
 721790,-0.48291015625,-0.797607421875,-0.197265625,-2.987804889678955,19.60365867614746,-9.146341323852539,30.299999237060547,-4.949999809265137,-9.449999809265137,40.40875244140625,0,
 721800,-0.46923828125,-0.7939453125,-0.21728515625,-2.896341562271118,20.030488967895508,-11.158536911010742,30.899999618530273,-5.849999904632568,-10.800000190734863,40.40875244140625,0,
 721810,-0.474609375,-0.81201171875,-0.26318359375,-0.7317073345184326,19.573171615600586,-12.103658676147461,30.450000762939453,-4.349999904632568,-10.800000190734863,40.16913604736328,0,
 721820,-0.4521484375,-0.851318359375,-0.271484375,2.682926893234253,17.774391174316406,-11.737805366516113,31.649999618530273,-5.400000095367432,-9.0,40.50459671020508,0,
 721830,-0.43310546875,-0.880615234375,-0.2666015625,4.5731706619262695,14.17682933807373,-10.884146690368652,28.950000762939453,-4.349999904632568,-9.75,40.50459671020508,0,
 721840,-0.44482421875,-0.89208984375,-0.25927734375,3.7804877758026123,8.993902206420898,-9.817073822021484,31.049999237060547,-4.949999809265137,-9.449999809265137,40.50459671020508,0,
 721850,-0.457763671875,-0.861572265625,-0.249267578125,1.6768293380737305,4.6646342277526855,-8.90243911743164,31.049999237060547,-4.949999809265137,-9.449999809265137,40.60044479370117,0,
 721860,-0.4755859375,-0.845458984375,-0.24462890625,1.7987805604934692,2.012195110321045,-8.04878044128418,30.299999237060547,-2.549999952316284,-9.449999809265137,40.16913604736328,0,
 721880,-0.45751953125,-0.808349609375,-0.234619140625,5.304878234863281,2.317073106765747,-7.560975551605225,29.100000381469727,-3.75,-11.699999809265137,40.552520751953125,0,
 721890,-0.476318359375,-0.81103515625,-0.231689453125,7.012195110321045,2.4695122241973877,-8.963415145874023,29.100000381469727,-3.75,-11.699999809265137,40.60044479370117,0,
 721900,-0.4853515625,-0.8203125,-0.214599609375,7.9268293380737305,2.4390244483947754,-11.310976028442383,31.049999237060547,-4.949999809265137,-9.449999809265137,40.552520751953125,0,
 721910,-0.4697265625,-0.85498046875,-0.189208984375,7.530488014221191,2.6524391174316406,-13.47560977935791,30.75,-4.5,-9.899999618530273,40.21706008911133,0,
 721920,-0.482177734375,-0.890869140625,-0.1748046875,5.060975551605225,3.7804877758026123,-14.786585807800293,28.200000762939453,-4.349999904632568,-10.050000190734863,40.3608283996582,0,
 721930,-0.468505859375,-0.91796875,-0.15478515625,0.792682945728302,5.091463565826416,-13.841464042663574,28.200000762939453,-4.349999904632568,-10.050000190734863,40.552520751953125,0,
 721940,-0.477294921875,-0.924072265625,-0.170654296875,-5.304878234863281,6.6768293380737305,-11.920731544494629,30.149999618530273,-3.9000000953674316,-9.0,40.50459671020508,0,
 721950,-0.462890625,-0.90234375,-0.186279296875,-9.634146690368652,8.445121765136719,-9.72560977935791,30.149999618530273,-4.349999904632568,-9.300000190734863,40.50459671020508,0,
 721960,-0.45458984375,-0.885986328125,-0.217529296875,-12.439024925231934,10.457317352294922,-7.439024448394775,30.75,-4.050000190734863,-9.149999618530273,40.21706008911133,0,
 721970,-0.454345703125,-0.872802734375,-0.233642578125,-12.37804889678955,10.335366249084473,-5.731707572937012,30.75,-4.050000190734863,-9.149999618530273,40.50459671020508,0,
 721980,-0.44189453125,-0.866943359375,-0.2529296875,-11.52439022064209,8.993902206420898,-3.9634146690368652,31.200000762939453,-2.700000047683716,-9.75,40.50459671020508,0,
 721990,-0.432861328125,-0.835693359375,-0.257080078125,-10.091464042663574,6.707317352294922,-3.1402440071105957,28.799999237060547,-7.199999809265137,-11.399999618530273,40.264984130859375,0,
 722000,-0.451416015625,-0.8095703125,-0.273193359375,-6.95121955871582,5.152439117431641,-2.0426828861236572,30.149999618530273,-4.349999904632568,-8.25,40.60044479370117,0,
 722010,-0.427734375,-0.827392578125,-0.261474609375,-1.9512195587158203,3.6890244483947754,-2.591463565826416,28.799999237060547,-4.5,-7.650000095367432,40.21706008911133,0,
 722020,-0.431884765625,-0.820068359375,-0.253662109375,0.3048780560493469,0.8841463327407837,-2.77439022064209,31.5,-3.75,-10.649999618530273,40.16913604736328,0,
 722030,-0.4345703125,-0.838134765625,-0.236083984375,3.1402440071105957,-1.5548781156539917,-3.5060975551605225,30.149999618530273,-5.400000095367432,-9.300000190734863,40.40875244140625,0,
 722040,-0.44482421875,-0.86083984375,-0.21142578125,3.2926828861236572,-3.0487804412841797,-2.6524391174316406,29.850000381469727,-4.050000190734863,-9.149999618530273,40.60044479370117,0,
 722050,-0.44677734375,-0.9072265625,-0.209716796875,-0.030487805604934692,-2.865853786468506,-0.7317073345184326,28.799999237060547,-3.299999952316284,-9.149999618530273,40.552520751953125,0,
 722060,-0.44775390625,-0.91015625,-0.192138671875,-3.75,-2.2560975551605225,1.7987805604934692,28.799999237060547,-3.299999952316284,-9.149999618530273,40.3608283996582,0,
 722070,-0.46044921875,-0.882080078125,-0.203857421875,-4.115853786468506,-0.3353658616542816,3.9024391174316406,29.850000381469727,-4.050000190734863,-9.449999809265137,40.40875244140625,0,
 722080,-0.459228515625,-0.854736328125,-0.225830078125,-3.658536672592163,0.7012194991111755,5.0,30.149999618530273,-4.650000095367432,-10.5,40.552520751953125,0,
 722090,-0.462158203125,-0.851318359375,-0.208984375,-3.47560977935791,0.8536585569381714,5.243902683258057,30.75,-4.949999809265137,-13.199999809265137,40.60044479370117,0,
 722100,-0.450927734375,-0.857421875,-0.217041015625,-3.841463565826416,0.8536585569381714,5.3353657722473145,30.75,-4.949999809265137,-13.199999809265137,40.3608283996582,0,
 722110,-0.445556640625,-0.848388671875,-0.23876953125,-3.1097562313079834,0.7621951103210449,5.091463565826416,30.299999237060547,-4.949999809265137,-9.149999618530273,40.40875244140625,0,
 722120,-0.438720703125,-0.819091796875,-0.234130859375,-1.5548781156539917,0.7621951103210449,4.329268455505371,30.450000762939453,-3.1500000953674316,-8.25,40.3608283996582,0,
 722130,-0.45068359375,-0.819091796875,-0.2373046875,0.24390244483947754,-0.060975611209869385,2.7134146690368652,29.549999237060547,-4.050000190734863,-7.650000095367432,40.40875244140625,0,
 722140,-0.44140625,-0.819091796875,-0.242919921875,1.4939024448394775,-1.3414634466171265,1.097561001777649,29.549999237060547,-4.050000190734863,-7.650000095367432,40.60044479370117,0,
 722150,-0.435546875,-0.796142578125,-0.26025390625,4.786585330963135,-2.804877996444702,0.0,29.549999237060547,-4.949999809265137,-9.449999809265137,40.21706008911133,0,
 722161,-0.4423828125,-0.824462890625,-0.25341796875,5.945122241973877,-3.9939024448394775,-1.1890244483947754,28.950000762939453,-4.349999904632568,-9.0,40.40875244140625,0,
 722171,-0.4462890625,-0.816650390625,-0.239501953125,8.079268455505371,-5.152439117431641,-2.0731706619262695,30.149999618530273,-4.349999904632568,-8.550000190734863,40.50459671020508,0,
 722181,-0.4541015625,-0.840576171875,-0.239990234375,8.353658676147461,-4.847560882568359,-2.4390244483947754,30.149999618530273,-4.349999904632568,-8.550000190734863,40.50459671020508,0,
 722191,-0.459228515625,-0.845703125,-0.21923828125,8.59756088256836,-4.329268455505371,-2.4390244483947754,31.5,-4.5,-13.199999809265137,40.552520751953125,0,
 722201,-0.458984375,-0.875244140625,-0.20263671875,7.804878234863281,-3.9634146690368652,-2.4695122241973877,29.399999618530273,-4.650000095367432,-9.300000190734863,40.16913604736328,0,
 722211,-0.46533203125,-0.852783203125,-0.199462890625,6.158536911010742,-3.5975611209869385,-2.5,29.549999237060547,-3.75,-8.699999809265137,40.3608283996582,0,
 722221,-0.472412109375,-0.864013671875,-0.189697265625,6.189024448394775,-2.103658676147461,-2.77439022064209,29.549999237060547,-3.299999952316284,-9.899999618530273,40.50459671020508,0,
 722231,-0.467041015625,-0.8681640625,-0.182861328125,5.243902683258057,-0.09146341681480408,-2.195122003555298,29.850000381469727,-4.949999809265137,-9.449999809265137,40.50459671020508,0,
 722241,-0.45654296875,-0.873291015625,-0.18408203125,3.8719513416290283,0.8231707215309143,-1.7987805604934692,29.850000381469727,-3.75,-10.199999809265137,40.60044479370117,0,
 722251,-0.447998046875,-0.864501953125,-0.203369140625,2.103658676147461,1.9512195587158203,-1.25,28.649999618530273,-4.349999904632568,-10.050000190734863,40.16913604736328,0,
 722261,-0.4423828125,-0.865966796875,-0.2109375,1.9817073345184326,2.1341464519500732,-0.27439025044441223,30.149999618530273,-3.450000047683716,-10.050000190734863,40.552520751953125,0,
 722271,-0.439208984375,-0.875244140625,-0.215576171875,1.4939024448394775,1.1890244483947754,0.4268292784690857,30.149999618530273,-3.450000047683716,-10.050000190734863,40.40875244140625,0,
 722281,-0.447021484375,-0.891845703125,-0.215087890625,1.4634146690368652,-0.396341472864151,1.25,29.700000762939453,-3.450000047683716,-9.0,40.552520751953125,0,
 722291,-0.447021484375,-0.849609375,-0.204345703125,1.402438998222351,-1.4634146690368652,2.682926893234253,28.200000762939453,-1.9500000476837158,-12.0,40.6962890625,0,
 722301,-0.4462890625,-0.79150390625,-0.24072265625,1.5243902206420898,-0.6097561120986938,4.1768293380737305,28.350000381469727,-3.75,-9.899999618530273,40.21706008911133,0,
 722311,-0.442626953125,-0.820556640625,-0.269775390625,7.713414669036865,0.09146341681480408,4.329268455505371,28.350000381469727,-3.75,-9.899999618530273,40.60044479370117,0,
 722321,-0.42919921875,-0.840576171875,-0.24853515625,12.530488014221191,-1.5243902206420898,4.2682929039001465,30.450000762939453,-4.349999904632568,-10.050000190734863,40.552520751953125,0,
 722331,-0.423583984375,-0.873291015625,-0.2314453125,16.189023971557617,-4.207317352294922,5.304878234863281,30.899999618530273,-2.700000047683716,-10.800000190734863,40.40875244140625,0,
 722341,-0.442626953125,-0.9072265625,-0.2109375,16.128049850463867,-6.920732021331787,7.591463565826416,29.100000381469727,-3.75,-12.449999809265137,40.40875244140625,0,
 722351,-0.457763671875,-0.900634765625,-0.177734375,14.268293380737305,-9.085366249084473,9.603658676147461,29.100000381469727,-3.75,-12.449999809265137,40.40875244140625,0,
 722361,-0.468017578125,-0.897705078125,-0.15673828125,11.52439022064209,-9.634146690368652,11.25,30.299999237060547,-3.75,-10.949999809265137,40.40875244140625,0,
 722371,-0.4755859375,-0.875244140625,-0.16357421875,8.109756469726562,-9.969511985778809,12.134146690368652,30.899999618530273,-1.9500000476837158,-10.5,40.40875244140625,0,
 722381,-0.482421875,-0.866455078125,-0.165771484375,5.9146342277526855,-8.445121765136719,11.067073822021484,30.149999618530273,-2.700000047683716,-9.75,40.74421310424805,0,
 722391,-0.47998046875,-0.853271484375,-0.168212890625,3.47560977935791,-7.286585330963135,9.939024925231934,30.149999618530273,-2.700000047683716,-9.75,40.21706008911133,0,
 722401,-0.481689453125,-0.886962890625,-0.15673828125,1.3414634466171265,-6.52439022064209,8.079268455505371,29.700000762939453,-3.9000000953674316,-10.800000190734863,40.16913604736328,0,
 722411,-0.50390625,-0.94189453125,-0.101806640625,-2.865853786468506,-5.70121955871582,7.042683124542236,29.700000762939453,-3.450000047683716,-12.0,40.60044479370117,0,
 722421,-0.478759765625,-0.8759765625,-0.05615234375,-11.737805366516113,-2.5,7.134146690368652,31.5,-4.050000190734863,-10.949999809265137,40.50459671020508,0,
 722431,-0.493896484375,-0.789794921875,-0.159423828125,-18.963415145874023,3.47560977935791,7.1646342277526855,30.299999237060547,-2.8499999046325684,-10.949999809265137,40.60044479370117,0,
 722441,-0.522216796875,-0.77099609375,-0.238037109375,-18.079269409179688,10.030488014221191,6.463414669036865,30.299999237060547,-4.949999809265137,-10.199999809265137,40.6962890625,0,
 722451,-0.47900390625,-0.727294921875,-0.275634765625,-16.280488967895508,13.567073822021484,4.786585330963135,31.049999237060547,-4.949999809265137,-9.899999618530273,40.264984130859375,0,
 722461,-0.40234375,-0.75927734375,-0.244140625,-8.90243911743164,14.17682933807373,-0.6097561120986938,31.049999237060547,-4.050000190734863,-10.649999618530273,40.40875244140625,0,
 722471,-0.3662109375,-0.866943359375,-0.2158203125,-3.5365853309631348,8.658536911010742,-2.0731706619262695,29.700000762939453,-4.650000095367432,-10.800000190734863,40.40875244140625,0,
 722481,-0.40966796875,-0.826904296875,-0.245361328125,-8.140244483947754,2.4390244483947754,-4.2682929039001465,29.700000762939453,-4.650000095367432,-10.800000190734863,40.552520751953125,0,
 722491,-0.45654296875,-0.802490234375,-0.282958984375,-4.207317352294922,-2.987804889678955,-5.4268293380737305,30.75,-3.299999952316284,-9.899999618530273,40.264984130859375,0,
 722501,-0.444091796875,-0.83203125,-0.2578125,-2.6219513416290283,-6.128048896789551,-6.95121955871582,28.799999237060547,-5.699999809265137,-10.949999809265137,40.40875244140625,0,
 722511,-0.445556640625,-0.838134765625,-0.232177734375,-2.0426828861236572,-8.04878044128418,-7.378048896789551,29.850000381469727,-4.050000190734863,-11.399999618530273,40.40875244140625,0,
 722521,-0.4853515625,-0.857421875,-0.201904296875,-3.5975611209869385,-5.5182929039001465,-8.262195587158203,29.850000381469727,-4.050000190734863,-11.399999618530273,40.40875244140625,0,
 722531,-0.478759765625,-0.779052734375,-0.19140625,1.402438998222351,-1.8292683362960815,-8.170731544494629,31.049999237060547,-5.25,-9.899999618530273,40.40875244140625,0,
 722541,-0.482421875,-0.805908203125,-0.19384765625,3.445122003555298,2.1646342277526855,-9.17682933807373,29.399999618530273,-5.099999904632568,-10.050000190734863,40.16913604736328,0,
 722551,-0.4765625,-0.828369140625,-0.183349609375,3.7195122241973877,5.091463565826416,-10.304878234863281,29.850000381469727,-4.5,-10.649999618530273,40.6962890625,0,
 722561,-0.47021484375,-0.833251953125,-0.17041015625,2.6219513416290283,7.103658676147461,-11.615854263305664,29.850000381469727,-4.5,-10.649999618530273,40.50459671020508,0,
 722571,-0.451416015625,-0.88671875,-0.157470703125,-1.6158536672592163,6.5853657722473145,-11.890244483947754,28.350000381469727,-6.0,-11.399999618530273,40.3608283996582,0,
 722581,-0.446533203125,-0.912353515625,-0.16455078125,-7.1646342277526855,7.256097793579102,-10.060976028442383,28.799999237060547,-4.050000190734863,-10.649999618530273,40.3608283996582,0,
 722591,-0.44091796875,-0.927490234375,-0.170654296875,-11.310976028442383,6.79878044128418,-6.7682929039001465,29.850000381469727,-4.949999809265137,-9.899999618530273,40.40875244140625,0,
 722601,-0.4501953125,-0.898193359375,-0.17822265625,-12.865854263305664,7.621951580047607,-3.9634146690368652,29.850000381469727,-4.949999809265137,-9.899999618530273,40.50459671020508,0,
 722611,-0.465576171875,-0.84912109375,-0.23974609375,-8.536585807800293,6.981707572937012,-2.4695122241973877,28.649999618530273,-5.099999904632568,-10.5,40.552520751953125,0,
 722621,-0.453857421875,-0.824462890625,-0.259765625,-2.3475611209869385,6.036585330963135,-1.7682926654815674,29.850000381469727,-4.050000190734863,-11.399999618530273,40.40875244140625,0,
 722631,-0.42626953125,-0.792236328125,-0.281982421875,5.70121955871582,3.170731782913208,-1.0670732259750366,29.399999618530273,-3.1500000953674316,-9.0,40.21706008911133,0,
 722641,-0.41796875,-0.822998046875,-0.2900390625,10.792683601379395,-0.6402438879013062,-0.6097561120986938,29.100000381469727,-4.5,-9.899999618530273,40.50459671020508,0,
 722651,-0.419189453125,-0.839599609375,-0.265869140625,14.634146690368652,-3.8719513416290283,0.0,29.100000381469727,-4.5,-9.899999618530273,40.3608283996582,0,
 722661,-0.44775390625,-0.880859375,-0.20263671875,16.280488967895508,-6.128048896789551,-0.18292683362960815,30.299999237060547,-4.050000190734863,-9.899999618530273,40.3608283996582,0,
 722671,-0.46240234375,-0.884521484375,-0.16650390625,13.62804889678955,-6.615853786468506,-0.6097561120986938,29.700000762939453,-2.700000047683716,-10.5,40.60044479370117,0,
 722681,-0.4658203125,-0.869873046875,-0.1484375,9.72560977935791,-5.121951103210449,-0.5792682766914368,30.149999618530273,-4.349999904632568,-9.300000190734863,40.60044479370117,0,
 722691,-0.474853515625,-0.874267578125,-0.1376953125,5.97560977935791,-2.1341464519500732,-0.9451219439506531,30.149999618530273,-4.349999904632568,-9.300000190734863,40.21706008911133,0,
 722701,-0.46484375,-0.87646484375,-0.137451171875,2.0731706619262695,1.25,-1.2195122241973877,29.100000381469727,-3.75,-12.449999809265137,40.40875244140625,0,
 722711,-0.467041015625,-0.893310546875,-0.141845703125,-1.0365853309631348,3.9939024448394775,-2.2865853309631348,29.549999237060547,-4.050000190734863,-9.899999618530273,40.3608283996582,0,
 722721,-0.460693359375,-0.86181640625,-0.1708984375,-5.5182929039001465,6.554878234863281,-2.1341464519500732,30.299999237060547,-4.5,-10.199999809265137,40.40875244140625,0,
 722731,-0.455810546875,-0.865234375,-0.18359375,-6.52439022064209,8.59756088256836,-2.6524391174316406,30.299999237060547,-4.5,-10.199999809265137,40.60044479370117,0,
 722741,-0.445556640625,-0.8916015625,-0.190185546875,-7.439024448394775,9.115854263305664,-2.1341464519500732,29.850000381469727,-2.0999999046325684,-10.949999809265137,40.264984130859375,0,
 722751,-0.450927734375,-0.87158203125,-0.201171875,-9.329268455505371,8.59756088256836,-2.103658676147461,29.700000762939453,-4.349999904632568,-10.050000190734863,40.40875244140625,0,
 722761,-0.447998046875,-0.86083984375,-0.211181640625,-10.884146690368652,8.32317066192627,-2.012195110321045,28.799999237060547,-4.050000190734863,-9.149999618530273,40.552520751953125,0,
 722771,-0.42626953125,-0.874755859375,-0.220703125,-11.310976028442383,8.018292427062988,-1.5243902206420898,28.799999237060547,-4.050000190734863,-9.149999618530273,40.40875244140625,0,
 722781,-0.426513671875,-0.8857421875,-0.22509765625,-11.981707572937012,6.52439022064209,-0.18292683362960815,29.100000381469727,-2.8499999046325684,-10.649999618530273,40.50459671020508,0,
 722791,-0.420654296875,-0.880615234375,-0.24267578125,-11.646341323852539,4.5731706619262695,2.195122003555298,30.299999237060547,-3.299999952316284,-10.199999809265137,40.16913604736328,0,
 722801,-0.42578125,-0.859375,-0.258544921875,-11.09756088256836,1.585365891456604,4.02439022064209,29.850000381469727,-2.549999952316284,-10.199999809265137,40.60044479370117,0,
 722811,-0.432861328125,-0.85400390625,-0.2763671875,-8.689024925231934,-1.3719512224197388,5.8231706619262695,29.850000381469727,-2.549999952316284,-10.199999809265137,40.3608283996582,0,
 722821,-0.41845703125,-0.857421875,-0.268310546875,-5.243902683258057,-4.146341323852539,6.890244007110596,31.200000762939453,-3.450000047683716,-9.75,40.40875244140625,0,
 722831,-0.441162109375,-0.832275390625,-0.26220703125,-1.8292683362960815,-6.95121955871582,8.75,30.299999237060547,-3.299999952316284,-7.949999809265137,40.6962890625,0,
 722841,-0.44287109375,-0.839599609375,-0.237060546875,1.9512195587158203,-8.384146690368652,9.420731544494629,29.399999618530273,-5.400000095367432,-9.300000190734863,40.264984130859375,0,
 722851,-0.4453125,-0.84423828125,-0.219482421875,3.3841464519500732,-9.542683601379395,9.329268455505371,29.850000381469727,-3.299999952316284,-10.199999809265137,40.3608283996582,0,
 722861,-0.46240234375,-0.846435546875,-0.205810546875,4.02439022064209,-9.29878044128418,9.085366249084473,29.850000381469727,-3.299999952316284,-10.199999809265137,40.50459671020508,0,
 722871,-0.4755859375,-0.8310546875,-0.191162109375,3.5975611209869385,-8.445121765136719,8.20121955871582,30.299999237060547,-5.699999809265137,-9.899999618530273,40.40875244140625,0,
 722881,-0.477783203125,-0.824462890625,-0.17919921875,3.5060975551605225,-5.8231706619262695,6.737804889678955,29.399999618530273,-4.349999904632568,-9.75,40.3608283996582,0,
 722891,-0.468017578125,-0.807373046875,-0.18212890625,2.3475611209869385,-2.77439022064209,4.542683124542236,29.399999618530273,-4.349999904632568,-10.050000190734863,40.40875244140625,0,
 722902,-0.4599609375,-0.8017578125,-0.20263671875,1.920731782913208,-0.396341472864151,2.103658676147461,29.399999618530273,-4.349999904632568,-10.050000190734863,40.552520751953125,0,
 722912,-0.465576171875,-0.792724609375,-0.19873046875,2.4695122241973877,1.432926893234253,-0.9756097793579102,31.799999237060547,-4.949999809265137,-11.399999618530273,40.552520751953125,0,
 722922,-0.45556640625,-0.82958984375,-0.189453125,3.079268455505371,2.591463565826416,-3.658536672592163,30.149999618530273,-5.099999904632568,-10.800000190734863,40.16913604736328,0,
 722932,-0.4560546875,-0.846923828125,-0.187255859375,2.1341464519500732,3.0487804412841797,-5.457317352294922,29.100000381469727,-3.75,-10.199999809265137,40.264984130859375,0,
 722942,-0.441650390625,-0.9013671875,-0.197265625,1.2804877758026123,3.628048896789551,-5.27439022064209,29.100000381469727,-3.75,-10.199999809265137,40.60044479370117,0,
 722952,-0.4375,-0.90185546875,-0.215576171875,-1.5548781156539917,0.3353658616542816,-0.9451219439506531,29.850000381469727,-2.8499999046325684,-9.149999618530273,40.50459671020508,0,
 722962,-0.44287109375,-0.876220703125,-0.23486328125,0.15243902802467346,-0.7621951103210449,1.0060975551605225,29.100000381469727,-4.5,-9.149999618530273,40.60044479370117,0,
 722972,-0.450927734375,-0.859619140625,-0.24072265625,2.7439024448394775,-2.7439024448394775,2.195122003555298,30.899999618530273,-4.349999904632568,-9.0,40.552520751953125,0,
 722982,-0.445068359375,-0.8603515625,-0.222412109375,3.4146342277526855,-3.7195122241973877,3.262195110321045,30.899999618530273,-4.349999904632568,-9.0,40.16913604736328,0,
 722992,-0.447998046875,-0.858642578125,-0.218505859375,3.932926893234253,-4.146341323852539,3.353658676147461,31.049999237060547,-3.299999952316284,-9.149999618530273,40.40875244140625,0,
 723002,-0.456298828125,-0.836181640625,-0.215087890625,5.121951103210449,-3.7195122241973877,3.3231709003448486,30.299999237060547,-4.050000190734863,-9.149999618530273,40.50459671020508,0,
 723012,-0.457763671875,-0.83251953125,-0.21533203125,5.27439022064209,-4.1768293380737305,1.6463414430618286,29.700000762939453,-4.650000095367432,-14.25,40.40875244140625,0,
 723022,-0.44970703125,-0.830322265625,-0.217041015625,6.036585330963135,-4.329268455505371,0.12195122241973877,29.399999618530273,-3.1500000953674316,-10.5,40.60044479370117,0,
 723032,-0.46484375,-0.828125,-0.2080078125,5.70121955871582,-3.7804877758026123,-1.8902438879013062,30.450000762939453,-4.349999904632568,-10.050000190734863,40.16913604736328,0,
 723042,-0.4560546875,-0.810302734375,-0.19140625,5.731707572937012,-2.103658676147461,-3.9024391174316406,29.399999618530273,-3.9000000953674316,-10.800000190734863,40.3608283996582,0,
 723052,-0.4697265625,-0.8359375,-0.201416015625,5.579268455505371,-0.792682945728302,-5.609755992889404,30.149999618530273,-3.9000000953674316,-11.550000190734863,40.60044479370117,0,
 723062,-0.4658203125,-0.85546875,-0.180419921875,4.2682929039001465,1.1890244483947754,-6.158536911010742,30.299999237060547,-3.75,-12.149999618530273,40.3608283996582,0,
 723072,-0.459716796875,-0.88818359375,-0.15380859375,1.2804877758026123,2.5,-5.365853786468506,30.299999237060547,-3.75,-12.149999618530273,40.21706008911133,0,
 723082,-0.462890625,-0.90380859375,-0.1455078125,-2.7134146690368652,4.5731706619262695,-3.9939024448394775,31.799999237060547,-2.0999999046325684,-10.199999809265137,40.40875244140625,0,
 723092,-0.470947265625,-0.876708984375,-0.169677734375,-4.237804889678955,6.829268455505371,-2.9268293380737305,29.850000381469727,-2.549999952316284,-10.949999809265137,40.3608283996582,0,
 723102,-0.467529296875,-0.8642578125,-0.185302734375,-4.02439022064209,7.439024448394775,-1.8597561120986938,30.75,-4.050000190734863,-9.149999618530273,40.16913604736328,0,
 723112,-0.43798828125,-0.810302734375,-0.24658203125,-3.2012195587158203,6.7682929039001465,-2.103658676147461,30.75,-4.050000190734863,-9.149999618530273,40.50459671020508,0,
 723122,-0.435791015625,-0.7978515625,-0.2666015625,0.9451219439506531,5.4268293380737305,-3.0182926654815674,29.700000762939453,-3.9000000953674316,-10.5,40.40875244140625,0,
 723132,-0.4140625,-0.825439453125,-0.251220703125,5.792683124542236,3.1402440071105957,-4.420732021331787,30.299999237060547,-4.050000190734863,-9.449999809265137,40.21706008911133,0,
 723142,-0.4443359375,-0.88037109375,-0.2275390625,8.963415145874023,-0.15243902802467346,-4.847560882568359,28.799999237060547,-4.5,-9.899999618530273,40.74421310424805,0,
 723152,-0.4423828125,-0.858642578125,-0.198486328125,6.890244007110596,-1.6158536672592163,-3.9634146690368652,28.799999237060547,-4.5,-9.899999618530273,40.50459671020508,0,
 723162,-0.4189453125,-0.943603515625,-0.166748046875,8.414634704589844,-2.1646342277526855,-2.22560977935791,29.399999618530273,-4.650000095367432,-10.800000190734863,40.74421310424805,0,
 723172,-0.452392578125,-0.95556640625,-0.134765625,4.1768293380737305,-3.658536672592163,0.5487805008888245,29.700000762939453,-2.700000047683716,-9.75,40.552520751953125,0,
 723182,-0.468505859375,-0.9423828125,-0.14013671875,-1.8597561120986938,-3.628048896789551,3.170731782913208,28.200000762939453,-5.099999904632568,-10.5,40.40875244140625,0,
 723192,-0.466796875,-0.974853515625,-0.14208984375,-5.731707572937012,-0.9146341681480408,6.8597564697265625,28.200000762939453,-5.099999904632568,-10.5,40.40875244140625,0,
 723202,-0.4775390625,-0.94091796875,-0.1220703125,-11.493903160095215,0.5792682766914368,10.670731544494629,29.399999618530273,-3.9000000953674316,-10.800000190734863,40.552520751953125,0,
 723212,-0.469482421875,-0.906005859375,-0.138671875,-16.463415145874023,3.7195122241973877,14.085366249084473,28.950000762939453,-3.1500000953674316,-12.75,40.60044479370117,0,
 723222,-0.4677734375,-0.8505859375,-0.18017578125,-20.091463088989258,7.347561359405518,16.615854263305664,30.450000762939453,-3.9000000953674316,-11.25,40.60044479370117,0,
 723232,-0.45703125,-0.828125,-0.212646484375,-18.75,9.329268455505371,17.439023971557617,30.450000762939453,-2.25,-9.0,40.16913604736328,0,
 723242,-0.449951171875,-0.79150390625,-0.236083984375,-16.280488967895508,9.756097793579102,16.981708526611328,29.850000381469727,-4.5,-9.449999809265137,40.3608283996582,0,
 723252,-0.438232421875,-0.799560546875,-0.25537109375,-12.256097793579102,8.445121765136719,16.158536911010742,29.100000381469727,-4.949999809265137,-9.899999618530273,40.3608283996582,0,
 723262,-0.425048828125,-0.8203125,-0.271484375,-10.304878234863281,5.9146342277526855,13.20121955871582,30.450000762939453,-5.099999904632568,-9.75,40.552520751953125,0,
 723272,-0.421875,-0.8232421875,-0.2900390625,-9.87804889678955,2.195122003555298,10.518293380737305,31.200000762939453,-5.099999904632568,-9.75,40.60044479370117,0,
 723282,-0.433837890625,-0.804443359375,-0.2744140625,-10.182927131652832,-2.4695122241973877,7.713414669036865,31.200000762939453,-5.099999904632568,-9.75,40.3608283996582,0,
 723292,-0.457763671875,-0.8017578125,-0.25,-9.84756088256836,-6.554878234863281,4.2682929039001465,29.549999237060547,-3.299999952316284,-10.649999618530273,40.60044479370117,0,
 723302,-0.4599609375,-0.83056640625,-0.243408203125,-10.182927131652832,-9.420731544494629,0.6402438879013062,30.899999618530273,-5.849999904632568,-9.0,40.40875244140625,0,
 723312,-0.47021484375,-0.8212890625,-0.2138671875,-12.042683601379395,-11.310976028442383,-2.5,31.049999237060547,-4.050000190734863,-11.699999809265137,40.40875244140625,0,
 723322,-0.4755859375,-0.842529296875,-0.190673828125,-12.682927131652832,-10.792683601379395,-4.512195110321045,31.049999237060547,-4.050000190734863,-11.699999809265137,40.50459671020508,0,
 723332,-0.495849609375,-0.802490234375,-0.191650390625,-14.695122718811035,-8.231707572937012,-6.310975551605225,29.700000762939453,-5.849999904632568,-9.300000190734863,40.16913604736328,0,
 723342,-0.51171875,-0.798828125,-0.1923828125,-12.987805366516113,-3.628048896789551,-6.52439022064209,29.549999237060547,-4.949999809265137,-9.149999618530273,40.3608283996582,0,
 723352,-0.490234375,-0.819580078125,-0.198974609375,-10.792683601379395,1.7073171138763428,-7.134146690368652,29.100000381469727,-5.25,-11.399999618530273,40.40875244140625,0,
 723362,-0.477783203125,-0.821533203125,-0.195556640625,-9.84756088256836,6.189024448394775,-7.286585330963135,29.100000381469727,-5.25,-11.399999618530273,40.07329177856445,0,
 723372,-0.468017578125,-0.8349609375,-0.2109375,-8.87195110321045,9.237805366516113,-7.439024448394775,31.049999237060547,-5.25,-10.199999809265137,40.74421310424805,0,
 723382,-0.455078125,-0.83544921875,-0.228271484375,-8.993902206420898,10.945121765136719,-8.018292427062988,31.049999237060547,-4.949999809265137,-7.949999809265137,40.552520751953125,0,
 723392,-0.43994140625,-0.848876953125,-0.2509765625,-8.62804889678955,11.280488014221191,-7.621951580047607,29.399999618530273,-5.099999904632568,-9.300000190734863,40.40875244140625,0,
 723402,-0.432373046875,-0.861572265625,-0.267578125,-6.5853657722473145,7.1646342277526855,-5.182927131652832,29.399999618530273,-5.099999904632568,-9.300000190734863,40.40875244140625,0,
 723412,-0.427001953125,-0.85693359375,-0.2685546875,-5.304878234863281,4.786585330963135,-2.5609755516052246,30.450000762939453,-4.349999904632568,-8.25,40.3608283996582,0,
 723422,-0.427490234375,-0.884521484375,-0.27197265625,-4.390244007110596,1.7987805604934692,0.792682945728302,32.400001525878906,-5.099999904632568,-12.0,40.21706008911133,0,
 723432,-0.4365234375,-0.889404296875,-0.253662109375,-4.0853657722473145,-0.18292683362960815,4.5731706619262695,29.399999618530273,-4.650000095367432,-9.300000190734863,40.40875244140625,0,
 723442,-0.446044921875,-0.8798828125,-0.2412109375,-2.591463565826416,-1.0060975551605225,7.439024448394775,29.850000381469727,-2.8499999046325684,-8.399999618530273,40.50459671020508,0,
 723452,-0.45458984375,-0.885009765625,-0.219970703125,-1.2804877758026123,-0.09146341681480408,9.969511985778809,29.850000381469727,-2.8499999046325684,-8.399999618530273,40.60044479370117,0,
 723462,-0.4833984375,-0.881103515625,-0.134765625,-0.21341463923454285,3.567073345184326,12.92682933807373,30.75,-4.050000190734863,-8.699999809265137,40.3608283996582,0,
 723472,-0.47509765625,-0.866943359375,-0.119384765625,6.341463565826416,5.884146690368652,15.579268455505371,28.799999237060547,-4.949999809265137,-9.449999809265137,40.40875244140625,0,
 723482,-0.45849609375,-0.898681640625,-0.114013671875,9.969511985778809,6.981707572937012,19.268293380737305,29.549999237060547,-6.0,-9.149999618530273,40.40875244140625,0,
 723492,-0.486328125,-0.92333984375,-0.12060546875,10.457317352294922,8.90243911743164,22.19512176513672,29.549999237060547,-6.0,-9.149999618530273,40.552520751953125,0,
 723502,-0.49560546875,-0.895751953125,-0.153076171875,12.34756088256836,10.762195587158203,24.878049850463867,28.350000381469727,-2.8499999046325684,-9.449999809265137,40.50459671020508,0,
 723512,-0.483642578125,-0.886962890625,-0.17919921875,10.884146690368652,11.981707572937012,26.25,28.950000762939453,-5.400000095367432,-9.0,40.60044479370117,0,
 723522,-0.482666015625,-0.877685546875,-0.212158203125,8.689024925231934,13.292683601379395,27.957317352294922,32.25,-4.5,-12.149999618530273,40.40875244140625,0,
 723532,-0.49755859375,-0.8486328125,-0.207275390625,8.567073822021484,13.353658676147461,28.35365867614746,32.25,-4.5,-12.149999618530273,40.40875244140625,0,
 723542,-0.4501953125,-0.789794921875,-0.226806640625,11.036585807800293,11.52439022064209,28.628049850463867,31.049999237060547,-4.050000190734863,-9.899999618530273,40.50459671020508,0,
 723552,-0.460693359375,-0.8212890625,-0.292236328125,8.993902206420898,10.091464042663574,27.19512176513672,30.899999618530273,-5.099999904632568,-10.5,40.6962890625,0,
 723562,-0.4765625,-0.77392578125,-0.385009765625,9.268292427062988,7.865853786468506,25.060976028442383,31.5,-4.5,-9.149999618530273,40.3608283996582,0,
 723572,-0.47119140625,-0.74365234375,-0.4052734375,7.012195110321045,5.182927131652832,22.774391174316406,31.5,-4.5,-9.149999618530273,40.21706008911133,0,
 723582,-0.46630859375,-0.752685546875,-0.419189453125,6.707317352294922,1.432926893234253,19.237804412841797,30.899999618530273,-3.9000000953674316,-9.300000190734863,40.6962890625,0,
 723592,-0.446533203125,-0.760498046875,-0.418701171875,4.45121955871582,-3.170731782913208,15.335366249084473,30.75,-6.449999809265137,-9.899999618530273,40.552520751953125,0,
 723602,-0.42333984375,-0.750732421875,-0.36865234375,2.9268293380737305,-9.268292427062988,11.79878044128418,32.849998474121094,-5.400000095367432,-10.050000190734863,40.3608283996582,0,
 723612,-0.448974609375,-0.79541015625,-0.332763671875,5.487804889678955,-18.170732498168945,9.481707572937012,32.849998474121094,-5.400000095367432,-10.050000190734863,40.3608283996582,0,
 723622,-0.47607421875,-0.836181640625,-0.294189453125,4.908536911010742,-23.841463088989258,7.439024448394775,30.899999618530273,-5.099999904632568,-10.5,40.21706008911133,0,
 723633,-0.48779296875,-0.828125,-0.28271484375,-0.3048780560493469,-26.158536911010742,5.853658676147461,29.850000381469727,-6.0,-10.649999618530273,40.50459671020508,0,
 723643,-0.504638671875,-0.8017578125,-0.271728515625,-4.054878234863281,-26.310976028442383,5.0,31.799999237060547,-6.0,-11.699999809265137,40.60044479370117,0,
 723653,-0.512451171875,-0.784912109375,-0.237548828125,-5.0,-26.0060977935791,3.7804877758026123,30.299999237060547,-7.199999809265137,-9.149999618530273,40.50459671020508,0,
 723663,-0.531494140625,-0.783935546875,-0.201904296875,-5.762195110321045,-24.573171615600586,1.8597561120986938,30.299999237060547,-7.199999809265137,-9.149999618530273,40.552520751953125,0,
 723673,-0.541015625,-0.7646484375,-0.171142578125,-5.945122241973877,-21.95121955871582,0.5182926654815674,31.799999237060547,-6.449999809265137,-10.949999809265137,40.3608283996582,0,
 723683,-0.55078125,-0.781494140625,-0.150146484375,-4.634146213531494,-19.024391174316406,-0.6402438879013062,31.649999618530273,-6.300000190734863,-10.050000190734863,40.3608283996582,0,
 723693,-0.545654296875,-0.81689453125,-0.150146484375,-1.8292683362960815,-15.304878234863281,-1.0060975551605225,31.649999618530273,-5.400000095367432,-12.0,40.552520751953125,0,
 723703,-0.539794921875,-0.821044921875,-0.12646484375,-3.567073345184326,-10.487805366516113,-0.9451219439506531,31.649999618530273,-5.400000095367432,-12.0,40.552520751953125,0,
 723713,-0.541015625,-0.83837890625,-0.125732421875,-3.628048896789551,-6.79878044128418,-1.3414634466171265,30.299999237060547,-6.900000095367432,-9.899999618530273,40.552520751953125,0,
 723723,-0.510009765625,-0.869140625,-0.11962890625,-3.2012195587158203,-4.817073345184326,-1.4634146690368652,31.950000762939453,-5.400000095367432,-10.050000190734863,40.3608283996582,0,
 723733,-0.5263671875,-0.853759765625,-0.12109375,-7.012195110321045,-3.2926828861236572,-1.4634146690368652,30.75,-5.699999809265137,-9.449999809265137,40.60044479370117,0,
 723743,-0.521728515625,-0.810791015625,-0.149169921875,-8.445121765136719,-2.103658676147461,-2.5,30.75,-5.699999809265137,-9.449999809265137,40.60044479370117,0,
 723753,-0.516357421875,-0.81494140625,-0.192138671875,-8.04878044128418,-0.792682945728302,-2.804877996444702,31.5,-4.949999809265137,-12.449999809265137,40.264984130859375,0,
 723763,-0.5224609375,-0.79541015625,-0.23193359375,-7.560975551605225,0.09146341681480408,-3.6890244483947754,30.149999618530273,-5.849999904632568,-10.800000190734863,40.40875244140625,0,
 723773,-0.50537109375,-0.792236328125,-0.24560546875,-6.79878044128418,1.097561001777649,-4.237804889678955,31.950000762939453,-5.099999904632568,-11.550000190734863,40.21706008911133,0,
 723783,-0.498779296875,-0.829833984375,-0.267333984375,-5.060975551605225,0.24390244483947754,-5.4268293380737305,31.950000762939453,-5.099999904632568,-11.550000190734863,40.40875244140625,0,
 723793,-0.4873046875,-0.852294921875,-0.26708984375,-6.432927131652832,-1.3719512224197388,-4.847560882568359,31.200000762939453,-5.849999904632568,-10.050000190734863,40.6962890625,0,
 723803,-0.461181640625,-0.847900390625,-0.263916015625,-9.268292427062988,-4.969512462615967,-4.146341323852539,30.899999618530273,-4.650000095367432,-10.050000190734863,40.50459671020508,0,
 723813,-0.480712890625,-0.882080078125,-0.270263671875,-10.243902206420898,-8.231707572937012,-3.170731782913208,30.75,-6.449999809265137,-10.199999809265137,40.40875244140625,0,
 723823,-0.50048828125,-0.832275390625,-0.248046875,-14.359756469726562,-9.115854263305664,-2.103658676147461,29.399999618530273,-7.050000190734863,-9.0,40.21706008911133,0,
 723833,-0.5078125,-0.817138671875,-0.22265625,-14.939024925231934,-10.365854263305664,-1.3109756708145142,31.799999237060547,-6.0,-10.649999618530273,40.60044479370117,0,
 723843,-0.5166015625,-0.82177734375,-0.22607421875,-13.993903160095215,-10.579268455505371,-0.3048780560493469,31.5,-6.900000095367432,-10.199999809265137,40.3608283996582,0,
 723853,-0.50830078125,-0.8095703125,-0.2177734375,-13.719512939453125,-10.97560977935791,0.09146341681480408,32.25,-6.0,-10.649999618530273,40.50459671020508,0,
 723863,-0.510009765625,-0.79150390625,-0.200927734375,-10.15243911743164,-9.695121765136719,1.6158536672592163,30.899999618530273,-5.099999904632568,-10.5,40.3608283996582,0,
 723873,-0.517333984375,-0.802490234375,-0.188232421875,-7.9268293380737305,-8.658536911010742,2.4390244483947754,30.899999618530273,-5.099999904632568,-10.5,40.60044479370117,0,
 723883,-0.529541015625,-0.84716796875,-0.193603515625,-8.780488014221191,-7.317073345184326,3.75,31.049999237060547,-5.25,-10.199999809265137,40.50459671020508,0,
 723893,-0.513671875,-0.859375,-0.177001953125,-9.72560977935791,-5.97560977935791,5.487804889678955,30.75,-6.449999809265137,-10.649999618530273,40.50459671020508,0,
 723903,-0.52880859375,-0.822509765625,-0.158447265625,-8.018292427062988,-4.45121955871582,7.22560977935791,33.0,-5.699999809265137,-10.649999618530273,40.3608283996582,0,
 723913,-0.528076171875,-0.859130859375,-0.169921875,-11.006097793579102,-2.378048896789551,8.658536911010742,33.0,-5.699999809265137,-10.649999618530273,40.21706008911133,0,
 723923,-0.524658203125,-0.86279296875,-0.167724609375,-13.993903160095215,-0.18292683362960815,9.908536911010742,31.049999237060547,-6.449999809265137,-10.649999618530273,40.40875244140625,0,
 723933,-0.534423828125,-0.823486328125,-0.1904296875,-15.518293380737305,2.0426828861236572,10.213415145874023,32.400001525878906,-7.5,-12.300000190734863,40.6962890625,0,
 723943,-0.53369140625,-0.812744140625,-0.20263671875,-17.530488967895508,4.542683124542236,9.268292427062988,31.950000762939453,-5.400000095367432,-11.550000190734863,40.552520751953125,0,
 723953,-0.5224609375,-0.788818359375,-0.206787109375,-17.012195587158203,5.5182929039001465,8.536585807800293,31.950000762939453,-5.400000095367432,-11.550000190734863,40.3608283996582,0,
 723963,-0.5009765625,-0.77294921875,-0.208251953125,-16.859756469726562,4.817073345184326,7.347561359405518,30.75,-5.25,-10.949999809265137,40.40875244140625,0,
 723973,-0.49169921875,-0.787353515625,-0.238525390625,-17.530488967895508,3.75,5.8231706619262695,31.799999237060547,-7.650000095367432,-9.899999618530273,40.50459671020508,0,
 723983,-0.4912109375,-0.786865234375,-0.25439453125,-17.68292808532715,2.77439022064209,5.731707572937012,31.950000762939453,-7.5,-10.050000190734863,40.40875244140625,0,
 723993,-0.50537109375,-0.789306640625,-0.255615234375,-17.89634132385254,2.2865853309631348,4.207317352294922,31.950000762939453,-7.5,-10.050000190734863,40.6962890625,0,
 724003,-0.5009765625,-0.813720703125,-0.27587890625,-20.731708526611328,1.25,3.262195110321045,31.649999618530273,-7.5,-10.800000190734863,40.60044479370117,0,
 724013,-0.504638671875,-0.84375,-0.262939453125,-25.18292808532715,0.6707317233085632,2.9573171138763428,31.950000762939453,-7.050000190734863,-10.800000190734863,40.40875244140625,0,
 724023,-0.4794921875,-0.795654296875,-0.225341796875,-27.408536911010742,1.0365853309631348,2.2865853309631348,30.299999237060547,-7.199999809265137,-10.949999809265137,40.60044479370117,0,
 724033,-0.50634765625,-0.80615234375,-0.21533203125,-26.981708526611328,1.3109756708145142,1.5548781156539917,31.5,-3.75,-12.449999809265137,40.40875244140625,0,
 724043,-0.542236328125,-0.7861328125,-0.2177734375,-29.359756469726562,2.0426828861236572,0.4268292784690857,31.5,-3.75,-12.449999809265137,40.40875244140625,0,
 724053,-0.5283203125,-0.761962890625,-0.243896484375,-30.09146499633789,4.115853786468506,-0.6097561120986938,32.849998474121094,-7.050000190734863,-9.75,40.60044479370117,0,
 724063,-0.52490234375,-0.763427734375,-0.283203125,-28.20121955871582,6.036585330963135,-2.22560977935791,32.25,-7.650000095367432,-8.699999809265137,40.3608283996582,0,
 724073,-0.524658203125,-0.73974609375,-0.284423828125,-26.79878044128418,7.317073345184326,-4.695122241973877,32.54999923706055,-7.650000095367432,-10.199999809265137,40.40875244140625,0,
 724083,-0.54638671875,-0.70458984375,-0.29833984375,-26.89024543762207,9.115854263305664,-7.469512462615967,32.54999923706055,-7.650000095367432,-10.199999809265137,40.552520751953125,0,
 724093,-0.568603515625,-0.72412109375,-0.307861328125,-24.05487823486328,11.006097793579102,-10.792683601379395,30.299999237060547,-8.100000381469727,-8.399999618530273,40.50459671020508,0,
 724103,-0.556396484375,-0.72900390625,-0.32373046875,-23.20121955871582,12.042683601379395,-14.603658676147461,30.299999237060547,-7.650000095367432,-8.699999809265137,40.3608283996582,0,
 724113,-0.505859375,-0.767578125,-0.323974609375,-22.012195587158203,11.554878234863281,-16.920732498168945,31.049999237060547,-8.100000381469727,-7.949999809265137,40.21706008911133,0,
 724123,-0.49951171875,-0.774169921875,-0.310791015625,-21.371952056884766,11.554878234863281,-18.719512939453125,31.049999237060547,-8.100000381469727,-7.949999809265137,40.40875244140625,0,
 724133,-0.50439453125,-0.8115234375,-0.289306640625,-17.439023971557617,12.256097793579102,-17.378049850463867,29.399999618530273,-5.400000095367432,-8.550000190734863,40.552520751953125,0,
 724143,-0.385498046875,-0.8837890625,-0.303955078125,-14.29878044128418,15.091464042663574,-14.329268455505371,30.149999618530273,-7.050000190734863,-7.800000190734863,40.60044479370117,0,
 724153,-0.50439453125,-0.7197265625,-0.48193359375,-19.878049850463867,7.1646342277526855,-12.835366249084473,31.5,-6.0,-7.949999809265137,40.264984130859375,0,
 724163,-0.647705078125,-0.76220703125,-0.494873046875,-10.12195110321045,-3.0487804412841797,-12.256097793579102,31.5,-6.0,-7.949999809265137,40.40875244140625,0,
 724173,-0.524169921875,-0.845947265625,-0.357666015625,1.5243902206420898,-0.6097561120986938,-6.25,31.049999237060547,-7.199999809265137,-7.650000095367432,40.3608283996582,0,
 724183,-0.507080078125,-1.051513671875,-0.2451171875,9.817073822021484,-1.2195122241973877,1.1280487775802612,30.899999618530273,-7.5,-6.75,40.50459671020508,0,
 724193,-0.537109375,-0.828125,-0.280029296875,1.1890244483947754,-1.8597561120986938,11.920731544494629,31.049999237060547,-6.449999809265137,-8.399999618530273,40.74421310424805,0,
 724203,-0.52734375,-0.76416015625,-0.295166015625,3.841463565826416,1.9512195587158203,16.524391174316406,31.049999237060547,-6.449999809265137,-8.399999618530273,40.3608283996582,0,
 724213,-0.50146484375,-0.754150390625,-0.27880859375,5.030488014221191,3.445122003555298,14.512195587158203,31.5,-6.900000095367432,-7.199999809265137,40.16913604736328,0,
 724223,-0.500732421875,-0.702392578125,-0.281982421875,4.481707572937012,3.9634146690368652,11.25,31.950000762939453,-7.800000190734863,-7.800000190734863,40.40875244140625,0,
 724233,-0.494873046875,-0.6650390625,-0.306640625,4.756097793579102,5.5182929039001465,5.0,31.200000762939453,-7.800000190734863,-8.25,40.3608283996582,0,
 724243,-0.509765625,-0.66259765625,-0.312744140625,3.9634146690368652,6.463414669036865,-4.420732021331787,31.5,-8.399999618530273,-7.650000095367432,40.50459671020508,0,
 724253,-0.514404296875,-0.6796875,-0.302734375,4.45121955871582,7.530488014221191,-14.02439022064209,31.5,-8.399999618530273,-7.650000095367432,40.50459671020508,0,
 724263,-0.521728515625,-0.734130859375,-0.27734375,5.3353657722473145,10.304878234863281,-21.158536911010742,29.850000381469727,-6.900000095367432,-8.399999618530273,40.3608283996582,0,
 724273,-0.473388671875,-0.822998046875,-0.306396484375,5.0,12.987805366516113,-25.48780632019043,30.299999237060547,-6.0,-7.650000095367432,40.552520751953125,0,
 724283,-0.50830078125,-0.84423828125,-0.3193359375,1.920731782913208,12.07317066192627,-26.03658676147461,30.75,-6.900000095367432,-7.650000095367432,40.50459671020508,0,
 724293,-0.48193359375,-0.935546875,-0.329833984375,3.628048896789551,12.34756088256836,-21.676830291748047,30.75,-6.900000095367432,-7.650000095367432,40.3608283996582,0,
 724303,-0.487060546875,-0.94140625,-0.347900390625,2.8353660106658936,8.993902206420898,-14.57317066192627,31.049999237060547,-7.650000095367432,-6.449999809265137,40.40875244140625,0,
 724313,-0.469482421875,-0.950927734375,-0.35107421875,2.0426828861236572,1.7682926654815674,1.3414634466171265,31.200000762939453,-5.099999904632568,-7.5,40.3608283996582,0,
 724323,-0.46484375,-0.879638671875,-0.348876953125,2.77439022064209,-1.3719512224197388,5.5182929039001465,30.899999618530273,-7.050000190734863,-7.5,40.40875244140625,0,
 724333,-0.469970703125,-0.815673828125,-0.343994140625,3.5060975551605225,-4.1768293380737305,5.0,30.899999618530273,-7.050000190734863,-7.5,40.552520751953125,0,
 724343,-0.47607421875,-0.721435546875,-0.345947265625,5.945122241973877,-5.670732021331787,0.792682945728302,29.850000381469727,-8.100000381469727,-9.149999618530273,40.552520751953125,0,
 724354,-0.448974609375,-0.7353515625,-0.3310546875,5.4268293380737305,-6.890244007110596,-3.7804877758026123,31.649999618530273,-7.050000190734863,-8.550000190734863,40.3608283996582,0,
 724364,-0.47509765625,-0.748779296875,-0.282470703125,3.5060975551605225,-5.487804889678955,-8.20121955871582,31.049999237060547,-5.699999809265137,-6.900000095367432,40.60044479370117,0,
 724374,-0.5068359375,-0.778564453125,-0.2470703125,-0.3048780560493469,-3.445122003555298,-13.140244483947754,31.049999237060547,-5.699999809265137,-6.900000095367432,40.40875244140625,0,
 724384,-0.501708984375,-0.7880859375,-0.25244140625,-1.9817073345184326,-0.8231707215309143,-16.219512939453125,30.149999618530273,-5.400000095367432,-7.050000190734863,40.74421310424805,0,
 724394,-0.492431640625,-0.80322265625,-0.291748046875,-0.9756097793579102,0.9756097793579102,-15.945122718811035,31.200000762939453,-5.400000095367432,-7.050000190734863,40.50459671020508,0,
 724404,-0.490234375,-0.81494140625,-0.320068359375,0.4573170840740204,1.3109756708145142,-15.060976028442383,29.850000381469727,-6.900000095367432,-6.449999809265137,40.40875244140625,0,
 724414,-0.44921875,-0.912353515625,-0.299072265625,-2.7439024448394775,-1.1280487775802612,-10.27439022064209,31.5,-5.25,-8.399999618530273,40.552520751953125,0,
 724424,-0.484619140625,-0.942138671875,-0.3037109375,-5.27439022064209,-2.408536672592163,-3.7804877758026123,30.75,-6.900000095367432,-7.199999809265137,40.552520751953125,0,
 724434,-0.46484375,-0.91650390625,-0.297607421875,-6.067073345184326,-3.445122003555298,2.22560977935791,31.049999237060547,-5.25,-7.949999809265137,40.60044479370117,0,
 724444,-0.4755859375,-0.913818359375,-0.29541015625,-9.29878044128418,-4.817073345184326,5.091463565826416,31.5,-5.699999809265137,-10.649999618530273,40.74421310424805,0,
 724454,-0.477294921875,-0.8779296875,-0.319580078125,-9.664634704589844,-7.22560977935791,8.109756469726562,30.899999618530273,-6.599999904632568,-8.25,40.16913604736328,0,
 724464,-0.46435546875,-0.863525390625,-0.34033203125,-8.810976028442383,-9.085366249084473,9.87804889678955,30.899999618530273,-6.599999904632568,-8.25,40.40875244140625,0,
 724474,-0.472900390625,-0.795654296875,-0.358154296875,-3.3231709003448486,-12.37804889678955,10.609756469726562,30.149999618530273,-7.050000190734863,-7.800000190734863,40.60044479370117,0,
 724484,-0.4755859375,-0.78564453125,-0.318115234375,0.4573170840740204,-14.054878234863281,11.432927131652832,29.100000381469727,-6.900000095367432,-8.399999618530273,40.21706008911133,0,
 724494,-0.486328125,-0.80419921875,-0.2939453125,3.170731782913208,-15.0,12.22560977935791,30.450000762939453,-6.599999904632568,-6.300000190734863,40.50459671020508,0,
 724504,-0.507080078125,-0.78564453125,-0.291259765625,2.6524391174316406,-14.115854263305664,11.40243911743164,30.450000762939453,-6.599999904632568,-6.300000190734863,40.21706008911133,0,
 724514,-0.4755859375,-0.828857421875,-0.35791015625,5.030488014221191,-14.054878234863281,12.408536911010742,31.049999237060547,-6.449999809265137,-7.650000095367432,40.40875244140625,0,
 724524,-0.5126953125,-0.883544921875,-0.359375,8.506097793579102,-16.920732498168945,15.42682933807373,29.700000762939453,-7.5,-6.75,40.40875244140625,0,
 724534,-0.511962890625,-0.89501953125,-0.316162109375,9.390244483947754,-17.865854263305664,20.030488967895508,31.799999237060547,-8.100000381469727,-10.649999618530273,40.74421310424805,0,
 724544,-0.52783203125,-0.873779296875,-0.2783203125,10.030488014221191,-19.176830291748047,24.78658676147461,31.799999237060547,-8.100000381469727,-10.649999618530273,40.552520751953125,0,
 724554,-0.5263671875,-0.806884765625,-0.28466796875,6.7682929039001465,-18.323171615600586,27.865854263305664,29.399999618530273,-6.599999904632568,-11.550000190734863,39.977447509765625,0,
 724564,-0.52783203125,-0.78173828125,-0.25830078125,5.213414669036865,-16.219512939453125,28.628049850463867,32.25,-4.949999809265137,-9.149999618530273,40.21706008911133,0,
 724574,-0.528076171875,-0.712890625,-0.225830078125,1.9817073345184326,-13.59756088256836,25.426830291748047,30.450000762939453,-8.25,-9.0,40.3608283996582,0,
 724584,-0.51953125,-0.64794921875,-0.23095703125,1.0365853309631348,-10.792683601379395,20.88414764404297,30.450000762939453,-8.25,-9.0,40.40875244140625,0,
 724594,-0.501220703125,-0.640380859375,-0.245361328125,3.3231709003448486,-7.1646342277526855,15.091464042663574,31.200000762939453,-6.599999904632568,-8.25,40.6962890625,0,
 724604,-0.48486328125,-0.61865234375,-0.2353515625,3.1097562313079834,-1.7987805604934692,7.591463565826416,31.5,-6.449999809265137,-9.899999618530273,40.16913604736328,0,
 724614,-0.4833984375,-0.587646484375,-0.16796875,2.4695122241973877,4.72560977935791,-1.5548781156539917,31.200000762939453,-7.050000190734863,-8.550000190734863,40.50459671020508,0,
 724624,-0.520263671875,-0.591064453125,-0.104736328125,0.792682945728302,11.432927131652832,-11.768293380737305,31.049999237060547,-8.100000381469727,-8.699999809265137,40.50459671020508,0,
 724634,-0.606201171875,-0.6142578125,-0.14794921875,-5.853658676147461,19.817073822021484,-25.762195587158203,31.049999237060547,-8.100000381469727,-8.699999809265137,40.50459671020508,0,
 724644,-0.6240234375,-0.613037109375,-0.11669921875,-13.170731544494629,33.32316970825195,-39.664634704589844,31.649999618530273,-5.849999904632568,-7.800000190734863,40.6962890625,0,
 724654,-0.61181640625,-0.6875,-0.120849609375,-15.15243911743164,51.89024353027344,-50.30487823486328,31.200000762939453,-7.050000190734863,-9.0,40.21706008911133,0,
 724664,-0.514404296875,-0.875244140625,-0.1728515625,-15.54878044128418,66.00609588623047,-56.92073440551758,31.799999237060547,-5.699999809265137,-9.449999809265137,40.3608283996582,0,
 724674,-0.46435546875,-0.979248046875,-0.265625,-20.823171615600586,70.0,-55.121952056884766,31.799999237060547,-5.699999809265137,-9.449999809265137,40.50459671020508,0,
 724684,-0.435546875,-1.013427734375,-0.37841796875,-21.768293380737305,67.83536529541016,-45.57926940917969,30.299999237060547,-6.0,-6.150000095367432,40.3608283996582,0,
 724694,-0.403076171875,-1.030029296875,-0.453369140625,-16.341463088989258,60.60975646972656,-32.74390411376953,28.799999237060547,-6.0,-7.949999809265137,40.50459671020508,0,
 724704,-0.363525390625,-1.09619140625,-0.52197265625,-6.646341800689697,46.89024353027344,-16.890243530273438,31.649999618530273,-3.450000047683716,-7.5,40.3608283996582,0,
 724714,-0.326171875,-1.119873046875,-0.57568359375,-0.6402438879013062,29.024391174316406,-0.12195122241973877,31.649999618530273,-3.450000047683716,-7.5,40.50459671020508,0,
 724724,-0.31396484375,-1.1083984375,-0.6484375,5.853658676147461,7.408536911010742,18.810976028442383,29.399999618530273,-7.050000190734863,-5.550000190734863,40.40875244140625,0,
 724734,-0.302978515625,-1.173095703125,-0.66357421875,14.603658676147461,-16.585365295410156,37.378047943115234,29.700000762939453,-6.300000190734863,-7.800000190734863,40.40875244140625,0,
 724744,-0.24462890625,-1.056396484375,-0.68212890625,13.689024925231934,-44.817073822021484,50.42683029174805,29.850000381469727,-6.900000095367432,-4.650000095367432,40.40875244140625,0,
 724754,-0.356689453125,-0.759033203125,-0.626953125,13.90243911743164,-67.86585235595703,64.23780822753906,29.850000381469727,-6.900000095367432,-4.650000095367432,40.50459671020508,0,
 724764,-0.52490234375,-0.551025390625,-0.422119140625,21.09756088256836,-74.35975646972656,66.15853881835938,30.75,-6.900000095367432,-5.699999809265137,40.50459671020508,0,
 724774,-0.53173828125,-0.609375,-0.236572265625,21.615854263305664,-62.621952056884766,46.432926177978516,30.75,-6.900000095367432,-9.149999618530273,40.60044479370117,0,
 724784,-0.6220703125,-0.618896484375,-0.13330078125,8.87195110321045,-46.55487823486328,36.585365295410156,32.25,-6.0,-9.149999618530273,40.40875244140625,0,
 724794,-0.631103515625,-0.59033203125,-0.03125,1.1280487775802612,-26.981708526611328,22.713415145874023,32.25,-6.0,-9.149999618530273,40.21706008911133,0,
 724804,-0.565673828125,-0.700439453125,0.125244140625,-13.567073822021484,-7.317073345184326,10.42682933807373,31.649999618530273,-6.300000190734863,-9.300000190734863,40.264984130859375,0,
 724814,-0.570556640625,-0.55712890625,0.203857421875,-14.207317352294922,11.615854263305664,0.09146341681480408,30.149999618530273,-7.050000190734863,-9.300000190734863,40.552520751953125,0,
 724824,-0.672607421875,-0.65478515625,0.03466796875,-25.0,32.59146499633789,-15.182927131652832,30.75,-7.650000095367432,-10.199999809265137,40.3608283996582,0,
 724834,-0.68603515625,-0.47705078125,-0.011474609375,-19.878049850463867,54.48170852661133,-32.07316970825195,30.899999618530273,-7.800000190734863,-8.550000190734863,40.40875244140625,0,
 724844,-0.6328125,-0.37255859375,-0.060791015625,-10.15243911743164,72.13414764404297,-48.68902587890625,30.899999618530273,-7.800000190734863,-8.550000190734863,40.3608283996582,0,
 724854,-0.5625,-0.508544921875,-0.186279296875,-5.792683124542236,80.64024353027344,-59.603660583496094,32.849998474121094,-9.0,-9.300000190734863,40.50459671020508,0,
 724864,-0.46533203125,-0.626953125,-0.340087890625,-0.9146341681480408,82.25609588623047,-65.21341705322266,31.649999618530273,-7.050000190734863,-7.050000190734863,40.60044479370117,0,
 724874,-0.390625,-0.77490234375,-0.495361328125,5.670732021331787,76.00609588623047,-61.98170852661133,30.75,-6.0,-7.199999809265137,40.60044479370117,0,
 724884,-0.35205078125,-0.931640625,-0.605712890625,12.134146690368652,61.09756088256836,-53.414634704589844,30.75,-6.0,-7.199999809265137,40.40875244140625,0,
 724894,-0.266845703125,-1.043701171875,-0.630126953125,16.09756088256836,38.719512939453125,-40.51829528808594,29.850000381469727,-4.949999809265137,-6.449999809265137,40.16913604736328,0,
 724904,-0.271240234375,-1.08837890625,-0.634765625,19.207317352294922,14.420732498168945,-26.55487823486328,29.850000381469727,-6.449999809265137,-5.699999809265137,40.74421310424805,0,
 724914,-0.31787109375,-1.024658203125,-0.620849609375,24.207317352294922,-5.853658676147461,-14.146341323852539,29.100000381469727,-5.699999809265137,-7.650000095367432,40.552520751953125,0,
 724924,-0.33251953125,-0.943115234375,-0.5166015625,29.329269409179688,-20.975610733032227,-5.640244007110596,29.100000381469727,-5.699999809265137,-7.650000095367432,40.3608283996582,0,
 724934,-0.375244140625,-0.94482421875,-0.430419921875,31.067073822021484,-33.44512176513672,1.920731782913208,29.850000381469727,-6.0,-6.449999809265137,40.60044479370117,0,
 724944,-0.429931640625,-0.895263671875,-0.365234375,31.158536911010742,-40.213417053222656,9.02439022064209,30.149999618530273,-5.400000095367432,-3.75,40.3608283996582,0,
 724954,-0.475830078125,-0.844970703125,-0.267333984375,29.420732498168945,-41.7378044128418,12.530488014221191,28.950000762939453,-3.9000000953674316,-9.75,40.40875244140625,0,
 724964,-0.496337890625,-0.8291015625,-0.212890625,26.18902587890625,-37.408538818359375,13.658536911010742,28.950000762939453,-3.9000000953674316,-9.75,40.552520751953125,0,
 724974,-0.51416015625,-0.82568359375,-0.163818359375,22.98780632019043,-30.15243911743164,13.90243911743164,29.399999618530273,-4.650000095367432,-8.550000190734863,40.3608283996582,0,
 724984,-0.551513671875,-0.774658203125,-0.11083984375,18.079269409179688,-22.591463088989258,12.62195110321045,30.149999618530273,-4.650000095367432,-9.0,40.40875244140625,0,
 724994,-0.560546875,-0.812255859375,-0.06884765625,17.89634132385254,-12.804878234863281,9.17682933807373,29.100000381469727,-5.699999809265137,-7.949999809265137,40.07329177856445,0,
 725004,-0.555908203125,-0.8837890625,-0.092041015625,14.72560977935791,-1.9512195587158203,5.579268455505371,29.100000381469727,-5.699999809265137,-7.949999809265137,40.552520751953125,0,
 725014,-0.536865234375,-0.847412109375,-0.154541015625,5.121951103210449,8.353658676147461,3.3231709003448486,32.54999923706055,-4.5,-9.449999809265137,40.60044479370117,0,
 725024,-0.489990234375,-0.848388671875,-0.208740234375,-0.4573170840740204,16.737804412841797,2.4695122241973877,29.850000381469727,-4.5,-7.199999809265137,40.60044479370117,0,
 725034,-0.460205078125,-0.869384765625,-0.26806640625,-3.658536672592163,19.63414764404297,2.22560977935791,30.299999237060547,-5.25,-7.199999809265137,40.60044479370117,0,
 725044,-0.444580078125,-0.8291015625,-0.30810546875,-7.469512462615967,17.591463088989258,2.0426828861236572,31.049999237060547,-4.949999809265137,-7.199999809265137,40.264984130859375,0,
 725054,-0.446044921875,-0.80029296875,-0.34619140625,-6.280488014221191,14.29878044128418,2.195122003555298,31.049999237060547,-4.949999809265137,-7.199999809265137,40.60044479370117,0,
 725064,-0.4228515625,-0.8505859375,-0.373291015625,-1.6463414430618286,11.036585807800293,2.22560977935791,30.149999618530273,-7.050000190734863,-8.25,40.40875244140625,0,
 725074,-0.41650390625,-0.880126953125,-0.386962890625,0.6097561120986938,4.542683124542236,3.47560977935791,30.149999618530273,-3.450000047683716,-6.0,40.3608283996582,0,
 725084,-0.447998046875,-0.8525390625,-0.330810546875,1.737804889678955,-1.432926893234253,6.219512462615967,29.399999618530273,-7.050000190734863,-8.25,40.60044479370117,0,
 725094,-0.47021484375,-0.85888671875,-0.284423828125,5.152439117431641,-4.847560882568359,8.689024925231934,29.399999618530273,-7.050000190734863,-8.25,40.3608283996582,0,
 725104,-0.48095703125,-0.81591796875,-0.26171875,5.792683124542236,-4.847560882568359,11.12804889678955,30.299999237060547,-6.0,-6.900000095367432,40.552520751953125,0,
 725115,-0.48876953125,-0.815673828125,-0.250244140625,7.22560977935791,-3.170731782913208,11.493903160095215,29.700000762939453,-5.400000095367432,-7.050000190734863,40.50459671020508,0,
 725125,-0.510009765625,-0.78076171875,-0.214111328125,6.737804889678955,-0.18292683362960815,10.853658676147461,30.75,-6.900000095367432,-8.699999809265137,40.6962890625,0,
 725135,-0.520751953125,-0.773193359375,-0.205810546875,7.256097793579102,3.9939024448394775,7.9268293380737305,30.75,-6.900000095367432,-8.699999809265137,40.50459671020508,0,
 725145,-0.50048828125,-0.80078125,-0.204345703125,6.829268455505371,8.993902206420898,6.189024448394775,31.049999237060547,-6.0,-6.900000095367432,40.21706008911133,0,
 725155,-0.498779296875,-0.796630859375,-0.2265625,5.54878044128418,12.987805366516113,3.7804877758026123,31.5,-5.25,-8.699999809265137,40.40875244140625,0,
 725165,-0.49072265625,-0.781494140625,-0.256103515625,5.213414669036865,15.213415145874023,2.1341464519500732,30.149999618530273,-5.099999904632568,-9.75,40.40875244140625,0,
 725175,-0.46533203125,-0.82763671875,-0.29541015625,7.134146690368652,16.341463088989258,1.402438998222351,30.149999618530273,-5.099999904632568,-9.75,40.21706008911133,0,
 725185,-0.45703125,-0.79931640625,-0.303955078125,6.890244007110596,15.731707572937012,0.3658536672592163,30.75,-4.949999809265137,-8.399999618530273,40.3608283996582,0,
 725195,-0.449951171875,-0.798828125,-0.33154296875,9.512195587158203,13.536585807800293,-0.12195122241973877,30.299999237060547,-5.25,-7.199999809265137,40.552520751953125,0,
 725205,-0.43798828125,-0.839599609375,-0.33447265625,12.34756088256836,10.70121955871582,-0.27439025044441223,30.75,-5.699999809265137,-7.949999809265137,40.264984130859375,0,
 725215,-0.432373046875,-0.83203125,-0.325439453125,13.262195587158203,6.829268455505371,0.21341463923454285,31.5,-5.699999809265137,-7.650000095367432,40.50459671020508,0,
 725225,-0.458984375,-0.833251953125,-0.31982421875,20.213415145874023,0.27439025044441223,3.932926893234253,30.149999618530273,-5.099999904632568,-7.050000190734863,40.552520751953125,0,
 725235,-0.446044921875,-0.84814453125,-0.313232421875,21.890243530273438,-3.47560977935791,5.365853786468506,29.549999237060547,-6.449999809265137,-6.900000095367432,40.16913604736328,0,
 725245,-0.45263671875,-0.8447265625,-0.304931640625,23.780488967895508,-6.189024448394775,6.432927131652832,29.850000381469727,-5.25,-8.399999618530273,40.264984130859375,0,
 725255,-0.4560546875,-0.81787109375,-0.2861328125,26.18902587890625,-7.347561359405518,7.103658676147461,29.399999618530273,-5.099999904632568,-8.25,40.74421310424805,0,
 725265,-0.474365234375,-0.821044921875,-0.271728515625,27.164634704589844,-7.865853786468506,6.95121955871582,29.399999618530273,-5.099999904632568,-8.25,40.50459671020508,0,
 725275,-0.481689453125,-0.8388671875,-0.241943359375,26.524391174316406,-7.835366249084473,6.7682929039001465,30.75,-4.949999809265137,-8.399999618530273,40.264984130859375,0,
 725285,-0.4873046875,-0.84228515625,-0.22216796875,24.93902587890625,-6.25,7.012195110321045,31.799999237060547,-5.25,-9.149999618530273,40.3608283996582,0,
 725295,-0.48046875,-0.863037109375,-0.18603515625,20.823171615600586,-5.884146690368652,7.682927131652832,30.149999618530273,-5.099999904632568,-8.550000190734863,40.40875244140625,0,
 725305,-0.47998046875,-0.902099609375,-0.186279296875,14.29878044128418,-5.304878234863281,8.292682647705078,30.149999618530273,-5.099999904632568,-8.550000190734863,40.40875244140625,0,
 725315,-0.50927734375,-0.8662109375,-0.185302734375,12.103658676147461,-3.3231709003448486,10.091464042663574,31.049999237060547,-4.949999809265137,-8.399999618530273,40.60044479370117,0,
 725325,-0.5087890625,-0.838623046875,-0.1982421875,12.713415145874023,-1.8292683362960815,11.25,31.049999237060547,-6.0,-8.699999809265137,40.3608283996582,0,
 725335,-0.505126953125,-0.867919921875,-0.20263671875,12.5,-1.2195122241973877,12.682927131652832,31.5,-7.199999809265137,-9.149999618530273,40.3608283996582,0,
 725345,-0.491455078125,-0.846435546875,-0.21240234375,12.77439022064209,-0.9146341681480408,14.207317352294922,31.5,-7.199999809265137,-9.149999618530273,40.3608283996582,0,
 725355,-0.49267578125,-0.8291015625,-0.228515625,14.45121955871582,-0.8841463327407837,14.29878044128418,29.850000381469727,-4.949999809265137,-8.699999809265137,40.60044479370117,0,
 725365,-0.479248046875,-0.832763671875,-0.233642578125,13.810976028442383,-0.9756097793579102,14.420732498168945,33.0,-3.75,-13.199999809265137,40.60044479370117,0,
 725375,-0.480224609375,-0.811279296875,-0.248779296875,15.457317352294922,-1.7682926654815674,12.804878234863281,29.100000381469727,-8.100000381469727,-10.649999618530273,40.60044479370117,0,
 725395,-0.493896484375,-0.791259765625,-0.247314453125,13.353658676147461,-3.079268455505371,8.109756469726562,31.649999618530273,-4.349999904632568,-10.5,40.264984130859375,0,
 725405,-0.4921875,-0.78515625,-0.235107421875,13.170731544494629,-3.2012195587158203,5.182927131652832,30.149999618530273,-5.400000095367432,-9.75,40.552520751953125,0,
 725415,-0.48193359375,-0.8369140625,-0.20947265625,12.134146690368652,-3.932926893234253,2.408536672592163,31.950000762939453,-5.099999904632568,-10.800000190734863,40.50459671020508,0,
 725425,-0.499755859375,-0.84375,-0.196044921875,9.603658676147461,-6.006097793579102,1.25,30.899999618530273,-5.849999904632568,-9.75,40.60044479370117,0,
 725435,-0.502197265625,-0.8447265625,-0.19482421875,7.77439022064209,-6.067073345184326,1.25,31.049999237060547,-4.949999809265137,-9.899999618530273,40.3608283996582,0,
 725445,-0.52490234375,-0.84228515625,-0.193115234375,6.5853657722473145,-5.396341800689697,1.3719512224197388,31.200000762939453,-4.650000095367432,-10.5,40.552520751953125,0,
 725455,-0.51708984375,-0.83642578125,-0.183837890625,6.432927131652832,-3.6890244483947754,2.5,31.049999237060547,-7.199999809265137,-9.449999809265137,40.40875244140625,0,
 725465,-0.503173828125,-0.829833984375,-0.197509765625,7.042683124542236,-2.6219513416290283,2.987804889678955,29.549999237060547,-4.949999809265137,-10.649999618530273,40.6962890625,0,
 725475,-0.50146484375,-0.841796875,-0.20703125,8.170731544494629,-1.6158536672592163,3.628048896789551,29.549999237060547,-4.949999809265137,-10.649999618530273,40.3608283996582,0,
 725485,-0.50927734375,-0.833251953125,-0.2109375,8.384146690368652,-0.9451219439506531,4.5731706619262695,29.850000381469727,-6.0,-10.649999618530273,40.3608283996582,0,
 725495,-0.504638671875,-0.823486328125,-0.204833984375,8.90243911743164,-0.4268292784690857,4.939024448394775,29.700000762939453,-7.050000190734863,-10.5,40.3608283996582,0,
 725505,-0.48681640625,-0.8173828125,-0.195068359375,9.756097793579102,0.0,4.695122241973877,30.899999618530273,-5.099999904632568,-9.300000190734863,40.40875244140625,0,
 725515,-0.484375,-0.817138671875,-0.202392578125,9.817073822021484,-0.6402438879013062,4.0853657722473145,30.899999618530273,-5.099999904632568,-9.300000190734863,40.50459671020508,0,
 725525,-0.48583984375,-0.797119140625,-0.2041015625,9.359756469726562,-1.6463414430618286,2.6524391174316406,30.450000762939453,-5.400000095367432,-10.5,40.60044479370117,0,
 725535,-0.495849609375,-0.781005859375,-0.1904296875,9.420731544494629,-2.195122003555298,0.21341463923454285,28.799999237060547,-5.699999809265137,-9.899999618530273,40.40875244140625,0,
 725545,-0.50439453125,-0.792236328125,-0.172607421875,9.359756469726562,-2.3475611209869385,-2.5,31.200000762939453,-6.300000190734863,-10.050000190734863,40.3608283996582,0,
 725555,-0.479736328125,-0.85546875,-0.16943359375,8.536585807800293,-1.9512195587158203,-4.481707572937012,31.200000762939453,-6.300000190734863,-10.050000190734863,40.40875244140625,0,
 725565,-0.489013671875,-0.88330078125,-0.161865234375,5.487804889678955,-3.445122003555298,-4.2682929039001465,30.299999237060547,-4.949999809265137,-10.649999618530273,40.552520751953125,0,
 725575,-0.508056640625,-0.873046875,-0.162841796875,2.5304877758026123,-4.02439022064209,-2.5609755516052246,29.700000762939453,-4.349999904632568,-9.300000190734863,40.552520751953125,0,
 725585,-0.516845703125,-0.864990234375,-0.16650390625,0.8841463327407837,-2.5,-0.3048780560493469,30.75,-5.699999809265137,-10.949999809265137,40.21706008911133,0,
 725595,-0.522216796875,-0.86474609375,-0.1640625,0.3048780560493469,-0.7621951103210449,1.2195122241973877,30.75,-5.699999809265137,-10.949999809265137,40.40875244140625,0,
 725605,-0.513916015625,-0.855712890625,-0.16357421875,-0.7621951103210449,-0.4268292784690857,2.7134146690368652,29.850000381469727,-5.699999809265137,-9.899999618530273,40.50459671020508,0,
 725615,-0.516357421875,-0.84326171875,-0.168701171875,-1.7987805604934692,1.6158536672592163,3.47560977935791,29.399999618530273,-4.650000095367432,-12.0,40.60044479370117,0,
 725625,-0.509033203125,-0.837646484375,-0.166015625,-2.0426828861236572,2.8353660106658936,4.146341323852539,30.75,-4.050000190734863,-12.149999618530273,40.60044479370117,0,
 725635,-0.517578125,-0.808837890625,-0.168212890625,-3.0182926654815674,3.9024391174316406,4.0853657722473145,30.149999618530273,-5.099999904632568,-9.75,40.552520751953125,0,
 725645,-0.5078125,-0.8125,-0.16943359375,-3.1402440071105957,5.487804889678955,3.6890244483947754,31.799999237060547,-6.0,-10.199999809265137,40.6962890625,0,
 725655,-0.5009765625,-0.811767578125,-0.18798828125,-3.0182926654815674,7.408536911010742,2.6219513416290283,30.75,-5.25,-9.899999618530273,40.50459671020508,0,
 725665,-0.496826171875,-0.80712890625,-0.1943359375,-2.5,6.829268455505371,1.5243902206420898,31.200000762939453,-5.400000095367432,-9.300000190734863,40.552520751953125,0,
 725675,-0.49951171875,-0.822021484375,-0.20654296875,-2.0426828861236572,6.52439022064209,0.6707317233085632,31.649999618530273,-7.800000190734863,-12.75,40.3608283996582,0,
 725685,-0.49560546875,-0.82568359375,-0.198974609375,-2.317073106765747,4.634146213531494,0.5487805008888245,31.649999618530273,-7.800000190734863,-12.75,40.40875244140625,0,
 725695,-0.500732421875,-0.841796875,-0.2001953125,-1.2195122241973877,4.02439022064209,1.25,31.5,-4.949999809265137,-10.649999618530273,40.60044479370117,0,
 725705,-0.503173828125,-0.84228515625,-0.201171875,-0.4878048896789551,3.5365853309631348,2.317073106765747,30.299999237060547,-6.900000095367432,-10.199999809265137,40.3608283996582,0,
 725715,-0.505615234375,-0.84375,-0.192626953125,0.060975611209869385,3.2926828861236572,3.47560977935791,32.849998474121094,-6.300000190734863,-10.5,40.50459671020508,0,
 725725,-0.51318359375,-0.833740234375,-0.180419921875,1.585365891456604,3.658536672592163,4.45121955871582,32.849998474121094,-6.300000190734863,-10.5,40.40875244140625,0,
 725735,-0.513916015625,-0.833984375,-0.187744140625,2.317073106765747,4.695122241973877,5.030488014221191,30.75,-6.0,-11.699999809265137,40.60044479370117,0,
 725745,-0.505126953125,-0.820556640625,-0.175537109375,2.591463565826416,4.817073345184326,5.152439117431641,31.950000762939453,-6.300000190734863,-10.5,40.40875244140625,0,
 725755,-0.520263671875,-0.82275390625,-0.18359375,2.9573171138763428,5.97560977935791,5.884146690368652,31.649999618530273,-5.099999904632568,-10.800000190734863,40.552520751953125,0,
 725765,-0.509033203125,-0.813720703125,-0.190673828125,4.542683124542236,7.408536911010742,5.670732021331787,31.649999618530273,-5.099999904632568,-10.800000190734863,40.552520751953125,0,
 725775,-0.501953125,-0.81103515625,-0.20263671875,4.878048896789551,8.20121955871582,5.152439117431641,31.950000762939453,-5.400000095367432,-13.5,40.07329177856445,0,
 725785,-0.50537109375,-0.792236328125,-0.176513671875,5.3353657722473145,8.932927131652832,4.420732021331787,31.799999237060547,-7.199999809265137,-10.199999809265137,40.50459671020508,0,
 725795,-0.50341796875,-0.77490234375,-0.15087890625,7.347561359405518,8.780488014221191,3.841463565826416,31.799999237060547,-6.900000095367432,-10.649999618530273,40.552520751953125,0,
 725805,-0.489990234375,-0.82958984375,-0.179443359375,5.97560977935791,7.530488014221191,4.054878234863281,31.799999237060547,-6.900000095367432,-10.649999618530273,40.60044479370117,0,
 725815,-0.506103515625,-0.845703125,-0.20068359375,5.27439022064209,7.286585330963135,4.329268455505371,30.299999237060547,-6.900000095367432,-11.399999618530273,40.40875244140625,0,
 725825,-0.501708984375,-0.82421875,-0.2080078125,6.8597564697265625,5.945122241973877,5.396341800689697,30.75,-5.699999809265137,-10.649999618530273,40.07329177856445,0,
 725835,-0.497802734375,-0.836181640625,-0.22509765625,7.012195110321045,4.6646342277526855,5.579268455505371,30.149999618530273,-5.400000095367432,-10.800000190734863,40.40875244140625,0,
 725845,-0.489990234375,-0.811279296875,-0.250732421875,6.097560882568359,2.6219513416290283,5.121951103210449,32.54999923706055,-5.699999809265137,-9.899999618530273,40.74421310424805,0,
 725855,-0.479736328125,-0.800048828125,-0.258544921875,6.036585330963135,-0.7621951103210449,3.8109757900238037,32.54999923706055,-5.699999809265137,-9.899999618530273,40.74421310424805,0,
 725865,-0.486328125,-0.798095703125,-0.239501953125,6.829268455505371,-3.3841464519500732,2.22560977935791,31.5,-6.449999809265137,-9.449999809265137,40.40875244140625,0,
 725875,-0.493896484375,-0.80322265625,-0.218505859375,9.146341323852539,-7.134146690368652,0.792682945728302,30.899999618530273,-3.450000047683716,-11.550000190734863,40.50459671020508,0,
 725886,-0.49658203125,-0.833251953125,-0.196044921875,9.939024925231934,-9.603658676147461,0.4268292784690857,33.0,-7.650000095367432,-10.199999809265137,40.60044479370117,0,
 725896,-0.5048828125,-0.867431640625,-0.172607421875,9.72560977935791,-11.554878234863281,1.1585365533828735,33.0,-7.650000095367432,-10.199999809265137,40.50459671020508,0,
 725906,-0.521728515625,-0.871826171875,-0.14208984375,6.890244007110596,-11.768293380737305,2.378048896789551,31.950000762939453,-5.400000095367432,-12.75,40.40875244140625,0,
 725916,-0.52880859375,-0.8671875,-0.138671875,4.054878234863281,-10.670731544494629,3.5975611209869385,29.100000381469727,-6.449999809265137,-12.449999809265137,40.50459671020508,0,
 725926,-0.538818359375,-0.861083984375,-0.130859375,2.1646342277526855,-8.719511985778809,4.908536911010742,32.25,-6.0,-10.649999618530273,40.3608283996582,0,
 725936,-0.53076171875,-0.83349609375,-0.138427734375,-1.0365853309631348,-6.95121955871582,5.609755992889404,32.25,-6.0,-10.649999618530273,40.50459671020508,0,
 725946,-0.525146484375,-0.82763671875,-0.139892578125,-2.682926893234253,-4.786585330963135,5.152439117431641,31.5,-6.449999809265137,-12.449999809265137,40.40875244140625,0,
 725956,-0.533935546875,-0.81103515625,-0.14599609375,-5.182927131652832,-2.5609755516052246,4.146341323852539,31.5,-6.449999809265137,-10.949999809265137,40.50459671020508,0,
 725966,-0.532958984375,-0.79736328125,-0.153564453125,-5.945122241973877,-0.6707317233085632,2.1646342277526855,31.649999618530273,-7.5,-11.550000190734863,40.40875244140625,0,
 725976,-0.527099609375,-0.79345703125,-0.1474609375,-6.554878234863281,1.8597561120986938,-0.18292683362960815,31.649999618530273,-7.5,-11.550000190734863,40.3608283996582,0,
 725986,-0.52294921875,-0.80419921875,-0.14404296875,-8.079268455505371,3.6890244483947754,-2.22560977935791,32.400001525878906,-9.0,-13.050000190734863,40.60044479370117,0,
 725996,-0.534423828125,-0.79833984375,-0.166748046875,-9.512195587158203,4.6646342277526855,-4.45121955871582,29.850000381469727,-6.449999809265137,-12.149999618530273,40.60044479370117,0,
 726006,-0.52294921875,-0.796630859375,-0.177734375,-9.87804889678955,6.189024448394775,-6.280488014221191,31.950000762939453,-8.25,-11.25,40.3608283996582,0,
 726016,-0.51806640625,-0.792724609375,-0.189453125,-8.780488014221191,7.042683124542236,-7.957317352294922,30.450000762939453,-5.400000095367432,-12.0,40.60044479370117,0,
 726026,-0.510986328125,-0.80419921875,-0.1943359375,-7.134146690368652,7.560975551605225,-9.786585807800293,31.049999237060547,-6.449999809265137,-10.649999618530273,40.3608283996582,0,
 726036,-0.511474609375,-0.81298828125,-0.19140625,-6.219512462615967,7.621951580047607,-10.304878234863281,30.149999618530273,-5.400000095367432,-10.5,40.21706008911133,0,
 726046,-0.509765625,-0.80517578125,-0.1796875,-5.27439022064209,8.109756469726562,-10.70121955871582,30.149999618530273,-5.400000095367432,-9.75,40.3608283996582,0,
 726056,-0.494873046875,-0.811767578125,-0.191650390625,-3.9939024448394775,8.506097793579102,-11.25,31.5,-5.699999809265137,-10.949999809265137,40.60044479370117,0,
 726066,-0.48974609375,-0.803955078125,-0.20556640625,-3.5060975551605225,7.896341800689697,-12.042683601379395,31.5,-5.699999809265137,-10.949999809265137,40.60044479370117,0,
 726076,-0.49072265625,-0.797119140625,-0.21337890625,-2.2865853309631348,6.707317352294922,-12.591464042663574,31.200000762939453,-5.849999904632568,-10.050000190734863,40.025367736816406,0,
 726086,-0.4814453125,-0.811279296875,-0.216796875,-0.7317073345184326,5.365853786468506,-13.353658676147461,32.25,-6.449999809265137,-13.199999809265137,40.60044479370117,0,
 726096,-0.492431640625,-0.8251953125,-0.204833984375,1.1585365533828735,3.4146342277526855,-13.87195110321045,31.200000762939453,-5.400000095367432,-10.050000190734863,40.40875244140625,0,
 726106,-0.4931640625,-0.832275390625,-0.188720703125,1.8902438879013062,2.2865853309631348,-14.420732498168945,31.200000762939453,-5.400000095367432,-10.050000190734863,40.21706008911133,0,
 726116,-0.48974609375,-0.854736328125,-0.188720703125,1.5548781156539917,2.2560975551605225,-13.384146690368652,30.299999237060547,-3.75,-8.699999809265137,40.6962890625,0,
 726126,-0.49169921875,-0.867919921875,-0.188232421875,1.2804877758026123,1.5243902206420898,-12.286585807800293,29.700000762939453,-4.349999904632568,-10.050000190734863,40.50459671020508,0,
 726136,-0.48974609375,-0.8203125,-0.20556640625,1.3719512224197388,1.432926893234253,-9.817073822021484,29.549999237060547,-4.050000190734863,-10.649999618530273,40.6962890625,0,
 726146,-0.48486328125,-0.82373046875,-0.218994140625,7.713414669036865,2.1341464519500732,-6.95121955871582,29.549999237060547,-4.050000190734863,-10.649999618530273,40.3608283996582,0,
 726156,-0.470703125,-0.830810546875,-0.212646484375,9.512195587158203,0.4878048896789551,-7.256097793579102,30.450000762939453,-4.650000095367432,-11.25,40.264984130859375,0,
 726166,-0.4716796875,-0.83251953125,-0.22314453125,10.182927131652832,-2.1646342277526855,-7.1646342277526855,29.700000762939453,-6.599999904632568,-10.5,40.3608283996582,0,
 726176,-0.47412109375,-0.837646484375,-0.203857421875,10.213415145874023,-4.542683124542236,-7.256097793579102,30.450000762939453,-5.099999904632568,-10.800000190734863,40.60044479370117,0,
 726186,-0.47265625,-0.841552734375,-0.197509765625,10.15243911743164,-5.792683124542236,-7.469512462615967,30.450000762939453,-5.099999904632568,-10.800000190734863,40.3608283996582,0,
 726196,-0.480712890625,-0.857666015625,-0.167236328125,7.682927131652832,-5.9146342277526855,-7.560975551605225,29.700000762939453,-3.9000000953674316,-12.300000190734863,40.3608283996582,0,
 726206,-0.4873046875,-0.871826171875,-0.1640625,5.030488014221191,-5.762195110321045,-7.042683124542236,30.899999618530273,-4.349999904632568,-11.25,40.40875244140625,0,
 726216,-0.498779296875,-0.8935546875,-0.140380859375,1.2195122241973877,-4.542683124542236,-6.463414669036865,29.700000762939453,-4.650000095367432,-10.5,40.3608283996582,0,
 726226,-0.50048828125,-0.913818359375,-0.134033203125,-2.865853786468506,-2.9573171138763428,-4.359755992889404,29.850000381469727,-4.050000190734863,-9.899999618530273,40.6962890625,0,
 726236,-0.498046875,-0.90087890625,-0.133544921875,-5.243902683258057,-1.402438998222351,-2.408536672592163,29.850000381469727,-4.050000190734863,-9.899999618530273,40.3608283996582,0,
 726246,-0.498779296875,-0.8857421875,-0.14013671875,-7.012195110321045,0.7317073345184326,-1.3109756708145142,31.049999237060547,-4.050000190734863,-10.649999618530273,40.552520751953125,0,
 726256,-0.4970703125,-0.868408203125,-0.14794921875,-8.506097793579102,2.195122003555298,-0.5487805008888245,30.299999237060547,-5.25,-9.899999618530273,40.552520751953125,0,
 726266,-0.4931640625,-0.874755859375,-0.153564453125,-10.243902206420898,3.1402440071105957,0.7621951103210449,30.450000762939453,-3.9000000953674316,-11.25,40.16913604736328,0,
 726276,-0.48388671875,-0.868408203125,-0.180908203125,-10.243902206420898,3.932926893234253,1.7682926654815674,30.450000762939453,-3.9000000953674316,-11.25,40.3608283996582,0,
 726286,-0.473876953125,-0.852294921875,-0.187255859375,-9.695121765136719,3.841463565826416,2.6524391174316406,31.049999237060547,-1.649999976158142,-13.949999809265137,40.552520751953125,0,
 726296,-0.470947265625,-0.86181640625,-0.1943359375,-9.695121765136719,2.0426828861236572,4.207317352294922,29.700000762939453,-5.400000095367432,-10.5,40.3608283996582,0,
 726306,-0.472412109375,-0.8388671875,-0.199462890625,-9.085366249084473,1.1280487775802612,5.304878234863281,30.450000762939453,-7.5,-10.5,40.50459671020508,0,
 726316,-0.47314453125,-0.855224609375,-0.196533203125,-7.804878234863281,0.4878048896789551,6.6768293380737305,30.450000762939453,-7.5,-10.5,40.552520751953125,0,
 726326,-0.471923828125,-0.85302734375,-0.19287109375,-7.987804889678955,-0.9146341681480408,7.195122241973877,32.849998474121094,-7.050000190734863,-10.050000190734863,40.50459671020508,0,
 726336,-0.484130859375,-0.836669921875,-0.2021484375,-7.621951580047607,-1.1280487775802612,8.140244483947754,30.75,-5.699999809265137,-9.449999809265137,40.40875244140625,0,
 726346,-0.486572265625,-0.832763671875,-0.190673828125,-6.25,-0.9146341681480408,8.993902206420898,30.75,-4.949999809265137,-10.949999809265137,40.40875244140625,0,
 726356,-0.48046875,-0.821044921875,-0.197021484375,-4.878048896789551,-0.4268292784690857,9.542683601379395,30.75,-4.949999809265137,-10.949999809265137,40.60044479370117,0,
 726366,-0.47607421875,-0.81884765625,-0.19775390625,-3.5975611209869385,-0.6402438879013062,9.359756469726562,29.100000381469727,-5.25,-10.199999809265137,40.07329177856445,0,
 726376,-0.48486328125,-0.8037109375,-0.197998046875,-3.75,-1.3109756708145142,8.140244483947754,31.200000762939453,-4.349999904632568,-9.75,40.552520751953125,0,
 726386,-0.49560546875,-0.796142578125,-0.199462890625,-3.5060975551605225,-1.7073171138763428,6.25,30.899999618530273,-4.650000095367432,-10.800000190734863,40.40875244140625,0,
 726396,-0.495849609375,-0.799072265625,-0.195068359375,-2.378048896789551,-1.2195122241973877,3.75,30.899999618530273,-4.650000095367432,-10.800000190734863,40.50459671020508,0,
 726406,-0.507080078125,-0.80615234375,-0.178466796875,-2.1646342277526855,-0.6707317233085632,1.6463414430618286,29.700000762939453,-6.300000190734863,-10.800000190734863,40.3608283996582,0,
 726416,-0.4912109375,-0.83349609375,-0.163330078125,-2.1341464519500732,0.7317073345184326,0.12195122241973877,31.049999237060547,-6.900000095367432,-9.899999618530273,40.21706008911133,0,
 726426,-0.497802734375,-0.858642578125,-0.163330078125,-3.170731782913208,1.585365891456604,0.12195122241973877,30.149999618530273,-5.099999904632568,-10.800000190734863,40.40875244140625,0,
 726436,-0.49560546875,-0.861328125,-0.182373046875,-5.457317352294922,2.804877996444702,1.1585365533828735,31.049999237060547,-5.25,-10.949999809265137,40.552520751953125,0,
 726446,-0.48974609375,-0.853515625,-0.205078125,-5.5182929039001465,3.2926828861236572,2.77439022064209,31.049999237060547,-5.25,-10.949999809265137,40.40875244140625,0,
 726456,-0.484375,-0.869140625,-0.212890625,-4.115853786468506,3.567073345184326,4.878048896789551,31.200000762939453,-5.849999904632568,-10.050000190734863,40.50459671020508,0,
 726466,-0.492431640625,-0.8466796875,-0.205078125,-3.567073345184326,2.8353660106658936,6.615853786468506,29.850000381469727,-3.75,-10.949999809265137,40.264984130859375,0,
 726476,-0.48974609375,-0.843505859375,-0.21826171875,-2.3475611209869385,1.7073171138763428,8.353658676147461,31.200000762939453,-5.400000095367432,-10.5,40.60044479370117,0,
 726486,-0.493896484375,-0.822021484375,-0.20849609375,-1.8597561120986938,1.0060975551605225,9.420731544494629,31.200000762939453,-5.400000095367432,-10.5,40.40875244140625,0,
 726496,-0.490234375,-0.819580078125,-0.20166015625,-0.9756097793579102,0.8231707215309143,9.02439022064209,31.649999618530273,-7.050000190734863,-13.050000190734863,40.552520751953125,0,
 726506,-0.49658203125,-0.80078125,-0.198486328125,-0.3658536672592163,0.6402438879013062,8.231707572937012,32.25,-6.449999809265137,-9.899999618530273,40.3608283996582,0,
 726516,-0.50146484375,-0.798583984375,-0.1923828125,0.8231707215309143,0.5792682766914368,7.012195110321045,31.5,-6.0,-10.649999618530273,40.21706008911133,0,
 726526,-0.4951171875,-0.798095703125,-0.1923828125,1.5243902206420898,1.5243902206420898,5.487804889678955,31.5,-6.0,-10.649999618530273,40.6962890625,0,
 726536,-0.500732421875,-0.784912109375,-0.181884765625,1.920731782913208,2.682926893234253,3.2926828861236572,29.850000381469727,-5.699999809265137,-9.899999618530273,40.50459671020508,0,
 726546,-0.50146484375,-0.788818359375,-0.183349609375,2.103658676147461,3.9024391174316406,1.0060975551605225,30.450000762939453,-5.849999904632568,-10.5,40.264984130859375,0,
 726556,-0.497802734375,-0.784912109375,-0.184326171875,2.2865853309631348,4.634146213531494,-1.3109756708145142,31.950000762939453,-7.050000190734863,-10.800000190734863,40.3608283996582,0,
 726566,-0.486083984375,-0.79541015625,-0.195068359375,1.7682926654815674,5.243902683258057,-3.841463565826416,31.950000762939453,-7.050000190734863,-10.800000190734863,40.6962890625,0,
 726576,-0.49169921875,-0.836181640625,-0.210205078125,1.1890244483947754,4.634146213531494,-4.939024448394775,31.5,-6.0,-9.149999618530273,40.552520751953125,0,
 726586,-0.50048828125,-0.83837890625,-0.2099609375,0.7621951103210449,3.9939024448394775,-5.3353657722473145,30.149999618530273,-5.400000095367432,-9.75,40.40875244140625,0,
 726596,-0.49560546875,-0.84814453125,-0.201904296875,0.5182926654815674,2.896341562271118,-4.756097793579102,31.950000762939453,-5.099999904632568,-13.800000190734863,40.3608283996582,0,
 726616,-0.500732421875,-0.852294921875,-0.193603515625,-0.6707317233085632,3.9634146690368652,-1.7682926654815674,31.200000762939453,-4.650000095367432,-9.75,40.40875244140625,0,
 726626,-0.502685546875,-0.864990234375,-0.1875,-1.585365891456604,5.091463565826416,-0.24390244483947754,31.200000762939453,-7.5,-10.800000190734863,40.50459671020508,0,
 726636,-0.49462890625,-0.865234375,-0.18603515625,-1.402438998222351,6.067073345184326,1.585365891456604,29.549999237060547,-4.5,-9.899999618530273,40.40875244140625,0,
 726646,-0.501708984375,-0.85107421875,-0.1767578125,-0.060975611209869385,7.0731706619262695,4.146341323852539,29.850000381469727,-5.25,-9.899999618530273,40.552520751953125,0,
 726656,-0.501708984375,-0.84716796875,-0.18359375,1.6768293380737305,8.658536911010742,5.487804889678955,29.850000381469727,-5.25,-9.899999618530273,40.16913604736328,0,
 726666,-0.49853515625,-0.82470703125,-0.171142578125,4.969512462615967,9.390244483947754,6.280488014221191,30.450000762939453,-5.099999904632568,-10.5,40.50459671020508,0,
 726676,-0.503662109375,-0.822021484375,-0.171630859375,5.670732021331787,10.365854263305664,6.371951580047607,30.899999618530273,-5.849999904632568,-10.5,40.40875244140625,0,
 726686,-0.499755859375,-0.8134765625,-0.181396484375,7.1646342277526855,10.182927131652832,6.067073345184326,30.75,-4.050000190734863,-9.449999809265137,40.40875244140625,0,
 726696,-0.508056640625,-0.80419921875,-0.18798828125,7.347561359405518,10.945121765136719,4.786585330963135,30.75,-4.050000190734863,-9.449999809265137,40.60044479370117,0,
 726706,-0.489013671875,-0.818115234375,-0.197265625,8.567073822021484,10.762195587158203,4.359755992889404,30.450000762939453,-5.849999904632568,-10.800000190734863,40.264984130859375,0,
 726717,-0.474853515625,-0.823974609375,-0.20947265625,6.920732021331787,9.87804889678955,3.170731782913208,30.75,-4.949999809265137,-9.899999618530273,40.60044479370117,0,
 726727,-0.487548828125,-0.792236328125,-0.211669921875,7.77439022064209,9.45121955871582,2.4390244483947754,30.450000762939453,-6.599999904632568,-9.75,40.3608283996582,0,
 726737,-0.486083984375,-0.797607421875,-0.231201171875,8.719511985778809,8.353658676147461,1.585365891456604,30.450000762939453,-6.599999904632568,-9.75,40.40875244140625,0,
 726747,-0.46923828125,-0.822021484375,-0.24169921875,8.932927131652832,4.878048896789551,1.3414634466171265,31.5,-4.949999809265137,-10.649999618530273,40.50459671020508,0,
 726757,-0.471923828125,-0.82958984375,-0.255615234375,8.841464042663574,1.7987805604934692,1.0060975551605225,32.849998474121094,-5.099999904632568,-9.75,40.16913604736328,0,
 726767,-0.4814453125,-0.809814453125,-0.239501953125,10.365854263305664,-0.12195122241973877,0.4573170840740204,31.049999237060547,-5.25,-10.199999809265137,40.50459671020508,0,
 726777,-0.489013671875,-0.82275390625,-0.20263671875,12.042683601379395,-2.5304877758026123,-0.3353658616542816,30.299999237060547,-4.5,-10.649999618530273,40.50459671020508,0,
 726787,-0.499755859375,-0.84521484375,-0.193359375,12.77439022064209,-3.8719513416290283,-0.6707317233085632,30.899999618530273,-5.849999904632568,-9.75,40.6962890625,0,
 726797,-0.508056640625,-0.85888671875,-0.1796875,12.77439022064209,-4.0853657722473145,0.24390244483947754,29.700000762939453,-3.450000047683716,-11.25,40.3608283996582,0,
 726807,-0.49658203125,-0.84326171875,-0.170166015625,11.981707572937012,-3.1097562313079834,1.5243902206420898,30.450000762939453,-6.300000190734863,-11.550000190734863,39.977447509765625,0,
 726817,-0.5087890625,-0.860107421875,-0.1591796875,11.829268455505371,-1.6463414430618286,1.9512195587158203,31.5,-4.5,-9.149999618530273,40.60044479370117,0,
 726827,-0.510498046875,-0.8349609375,-0.15380859375,8.87195110321045,-0.6402438879013062,1.7987805604934692,31.5,-4.5,-9.149999618530273,40.60044479370117,0,
 726837,-0.5009765625,-0.82763671875,-0.166259765625,7.9268293380737305,1.1890244483947754,1.25,31.649999618530273,-5.400000095367432,-11.550000190734863,40.552520751953125,0,
 726847,-0.498779296875,-0.83154296875,-0.16943359375,7.682927131652832,2.3475611209869385,0.9146341681480408,33.150001525878906,-6.300000190734863,-12.0,40.40875244140625,0,
 726857,-0.499755859375,-0.824462890625,-0.181640625,6.79878044128418,2.9268293380737305,0.7012194991111755,32.400001525878906,-6.599999904632568,-10.800000190734863,40.21706008911133,0,
 726867,-0.49462890625,-0.84814453125,-0.189697265625,7.042683124542236,2.591463565826416,0.4573170840740204,32.400001525878906,-6.599999904632568,-10.800000190734863,40.50459671020508,0,
 726877,-0.486328125,-0.8349609375,-0.193603515625,6.097560882568359,0.9756097793579102,0.4268292784690857,30.899999618530273,-5.099999904632568,-11.550000190734863,40.50459671020508,0,
 726897,-0.494140625,-0.830322265625,-0.194091796875,6.402439117431641,-1.0670732259750366,-0.24390244483947754,31.200000762939453,-5.099999904632568,-9.75,40.50459671020508,0,
 726907,-0.49609375,-0.84423828125,-0.190673828125,6.52439022064209,-2.4390244483947754,-0.27439025044441223,31.200000762939453,-5.099999904632568,-9.75,40.50459671020508,0,
 726917,-0.49169921875,-0.85107421875,-0.17138671875,6.5853657722473145,-3.1097562313079834,-0.030487805604934692,31.649999618530273,-4.650000095367432,-10.800000190734863,40.74421310424805,0,
 726927,-0.494873046875,-0.85205078125,-0.156494140625,5.243902683258057,-3.8719513416290283,0.060975611209869385,31.200000762939453,-5.400000095367432,-11.25,40.50459671020508,0,
 726937,-0.502197265625,-0.851806640625,-0.15234375,2.4695122241973877,-4.0853657722473145,-0.27439025044441223,30.75,-5.699999809265137,-10.949999809265137,40.6962890625,0,
 726947,-0.509521484375,-0.84765625,-0.149658203125,0.24390244483947754,-3.1402440071105957,-0.12195122241973877,30.75,-5.699999809265137,-10.949999809265137,40.6962890625,0,
 726957,-0.505859375,-0.830078125,-0.154296875,-1.6158536672592163,-1.7987805604934692,0.0,31.649999618530273,-5.400000095367432,-10.050000190734863,40.21706008911133,0,
 726967,-0.490234375,-0.8232421875,-0.173095703125,-2.5609755516052246,-0.6707317233085632,-0.4878048896789551,31.799999237060547,-5.699999809265137,-9.449999809265137,40.50459671020508,0,
 726977,-0.48291015625,-0.8203125,-0.18798828125,-3.2926828861236572,-1.1585365533828735,-1.585365891456604,33.0,-6.0,-12.149999618530273,40.40875244140625,0,
 726987,-0.4921875,-0.827880859375,-0.183349609375,-4.634146213531494,-2.408536672592163,-3.567073345184326,32.25,-6.0,-10.199999809265137,40.40875244140625,0,
 726997,-0.48779296875,-0.828125,-0.17431640625,-6.067073345184326,-4.6646342277526855,-5.487804889678955,31.200000762939453,-5.400000095367432,-10.5,40.60044479370117,0,
 727007,-0.4921875,-0.83056640625,-0.1611328125,-7.713414669036865,-5.945122241973877,-7.317073345184326,33.0,-6.0,-13.649999618530273,40.3608283996582,0,
 727017,-0.506103515625,-0.856689453125,-0.139404296875,-9.969511985778809,-6.128048896789551,-8.445121765136719,30.450000762939453,-5.849999904632568,-10.050000190734863,40.3608283996582,0,
 727027,-0.508056640625,-0.88134765625,-0.11767578125,-13.87195110321045,-4.481707572937012,-9.84756088256836,32.400001525878906,-5.849999904632568,-10.5,40.40875244140625,0,
 727037,-0.52685546875,-0.86767578125,-0.115478515625,-18.5060977935791,-2.1646342277526855,-9.29878044128418,32.400001525878906,-5.849999904632568,-10.5,40.21706008911133,0,
 727047,-0.512451171875,-0.871826171875,-0.15673828125,-21.25,1.1280487775802612,-8.567073822021484,30.899999618530273,-5.849999904632568,-9.75,40.07329177856445,0,
 727057,-0.50341796875,-0.87109375,-0.177734375,-21.310976028442383,4.02439022064209,-4.847560882568359,30.899999618530273,-5.099999904632568,-10.5,40.552520751953125,0,
 727067,-0.48828125,-0.8564453125,-0.19921875,-20.030488967895508,3.3841464519500732,-3.3231709003448486,30.75,-5.699999809265137,-9.899999618530273,40.552520751953125,0,
 727077,-0.480712890625,-0.845458984375,-0.21923828125,-18.567073822021484,2.22560977935791,-1.920731782913208,30.75,-5.699999809265137,-9.899999618530273,40.60044479370117,0,
 727087,-0.470703125,-0.8427734375,-0.23046875,-17.10365867614746,-0.18292683362960815,-0.9146341681480408,30.899999618530273,-6.300000190734863,-10.050000190734863,40.60044479370117,0,
 727097,-0.455078125,-0.844970703125,-0.23046875,-15.914634704589844,-2.896341562271118,-0.27439025044441223,31.5,-4.949999809265137,-9.899999618530273,40.264984130859375,0,
 727107,-0.466064453125,-0.824462890625,-0.244384765625,-14.29878044128418,-5.396341800689697,-0.3048780560493469,31.950000762939453,-3.9000000953674316,-12.0,40.60044479370117,0,
 727117,-0.46435546875,-0.815673828125,-0.240234375,-13.20121955871582,-7.682927131652832,-0.9756097793579102,31.950000762939453,-3.9000000953674316,-12.0,40.3608283996582,0,
 727127,-0.47021484375,-0.82568359375,-0.234130859375,-13.109756469726562,-9.908536911010742,-1.9512195587158203,30.149999618530273,-6.599999904632568,-10.050000190734863,40.552520751953125,0,
 727137,-0.486572265625,-0.825927734375,-0.21337890625,-14.908536911010742,-10.792683601379395,-3.9939024448394775,30.899999618530273,-5.099999904632568,-12.0,40.50459671020508,0,
 727147,-0.488037109375,-0.82861328125,-0.2041015625,-16.737804412841797,-11.280488014221191,-5.487804889678955,29.399999618530273,-3.9000000953674316,-10.050000190734863,40.3608283996582,0,
 727157,-0.497314453125,-0.8173828125,-0.18896484375,-17.13414764404297,-9.695121765136719,-7.896341800689697,29.399999618530273,-3.9000000953674316,-10.050000190734863,40.40875244140625,0,
 727167,-0.5029296875,-0.8076171875,-0.155517578125,-17.987804412841797,-7.408536911010742,-9.268292427062988,31.950000762939453,-4.650000095367432,-11.550000190734863,40.6962890625,0,
 727177,-0.515625,-0.7998046875,-0.149658203125,-18.262195587158203,-4.542683124542236,-11.79878044128418,28.950000762939453,-5.099999904632568,-10.800000190734863,40.60044479370117,0,
 727187,-0.51123046875,-0.80224609375,-0.142578125,-18.780488967895508,-1.402438998222351,-13.414634704589844,30.75,-7.199999809265137,-10.649999618530273,40.50459671020508,0,
 727197,-0.5166015625,-0.802001953125,-0.150146484375,-18.90243911743164,2.2560975551605225,-15.396342277526855,30.450000762939453,-5.099999904632568,-10.050000190734863,40.264984130859375,0,
 727207,-0.509521484375,-0.829833984375,-0.1669921875,-19.359756469726562,5.304878234863281,-16.737804412841797,30.450000762939453,-5.099999904632568,-10.050000190734863,40.3608283996582,0,
 727217,-0.495849609375,-0.842041015625,-0.183349609375,-20.30487823486328,7.591463565826416,-16.067073822021484,30.149999618530273,-6.599999904632568,-10.5,40.40875244140625,0,
 727227,-0.487060546875,-0.83935546875,-0.201171875,-20.762195587158203,10.396341323852539,-16.128049850463867,29.549999237060547,-3.299999952316284,-8.399999618530273,40.50459671020508,0,
 727237,-0.47607421875,-0.843994140625,-0.22509765625,-19.817073822021484,12.286585807800293,-15.487805366516113,30.299999237060547,-5.699999809265137,-10.199999809265137,40.21706008911133,0,
 727247,-0.462158203125,-0.803466796875,-0.229248046875,-18.841463088989258,13.445122718811035,-14.939024925231934,30.299999237060547,-5.699999809265137,-10.199999809265137,40.16913604736328,0,
 727257,-0.45556640625,-0.800048828125,-0.259765625,-15.82317066192627,13.90243911743164,-15.27439022064209,29.100000381469727,-6.0,-10.649999618530273,40.40875244140625,0,
 727267,-0.445556640625,-0.8291015625,-0.27197265625,-12.042683601379395,12.804878234863281,-15.945122718811035,31.5,-5.699999809265137,-9.149999618530273,40.50459671020508,0,
 727277,-0.438232421875,-0.80810546875,-0.274169921875,-10.518293380737305,10.42682933807373,-16.341463088989258,28.950000762939453,-4.349999904632568,-9.0,40.50459671020508,0,
 727287,-0.443603515625,-0.808349609375,-0.28271484375,-7.408536911010742,8.506097793579102,-16.585365295410156,28.950000762939453,-4.349999904632568,-9.0,40.50459671020508,0,
 727297,-0.436767578125,-0.84375,-0.268310546875,-3.6890244483947754,6.737804889678955,-17.68292808532715,29.549999237060547,-4.5,-7.949999809265137,40.264984130859375,0,
 727307,-0.4482421875,-0.8359375,-0.249267578125,-2.896341562271118,4.5731706619262695,-17.957317352294922,28.049999237060547,-4.050000190734863,-8.399999618530273,40.40875244140625,0,
 727317,-0.456298828125,-0.833984375,-0.24072265625,-0.9451219439506531,4.237804889678955,-18.414634704589844,28.350000381469727,-4.5,-8.399999618530273,40.40875244140625,0,
 727327,-0.45849609375,-0.833740234375,-0.23291015625,-0.9146341681480408,5.97560977935791,-19.7560977935791,28.350000381469727,-4.5,-8.399999618530273,40.50459671020508,0,
 727337,-0.4658203125,-0.832763671875,-0.221435546875,-1.25,7.896341800689697,-21.067073822021484,28.350000381469727,-3.299999952316284,-8.399999618530273,40.40875244140625,0,
 727347,-0.46484375,-0.816650390625,-0.207763671875,-2.012195110321045,10.731707572937012,-23.475610733032227,28.950000762939453,-6.300000190734863,-9.0,40.50459671020508,0,
 727357,-0.462158203125,-0.805908203125,-0.185791015625,-3.1402440071105957,14.695122718811035,-26.310976028442383,29.850000381469727,-5.25,-9.149999618530273,40.552520751953125,0,
 727367,-0.41943359375,-0.861572265625,-0.181396484375,-5.853658676147461,19.969512939453125,-29.573171615600586,29.850000381469727,-5.25,-9.149999618530273,40.552520751953125,0,
 727377,-0.40234375,-0.962890625,-0.199951171875,-10.609756469726562,22.439023971557617,-29.115854263305664,28.350000381469727,-4.5,-8.699999809265137,40.60044479370117,0,
 727387,-0.403564453125,-0.93603515625,-0.2490234375,-18.475610733032227,21.09756088256836,-25.54878044128418,28.049999237060547,-2.8499999046325684,-7.949999809265137,40.3608283996582,0,
 727397,-0.397216796875,-0.925537109375,-0.280517578125,-20.457317352294922,21.463415145874023,-19.420732498168945,28.950000762939453,-3.1500000953674316,-8.25,40.16913604736328,0,
 727407,-0.38134765625,-0.924072265625,-0.301513671875,-18.59756088256836,19.542682647705078,-14.054878234863281,28.799999237060547,-2.0999999046325684,-6.449999809265137,40.6962890625,0,
 727417,-0.36767578125,-0.889892578125,-0.343017578125,-16.981708526611328,14.87804889678955,-9.634146690368652,28.799999237060547,-2.0999999046325684,-6.449999809265137,40.3608283996582,0,
 727427,-0.36279296875,-0.860595703125,-0.3701171875,-11.554878234863281,9.29878044128418,-4.969512462615967,27.299999237060547,-4.050000190734863,-7.199999809265137,40.552520751953125,0,
 727437,-0.364013671875,-0.83251953125,-0.36376953125,-3.8109757900238037,3.170731782913208,-1.3414634466171265,27.0,-3.1500000953674316,-7.050000190734863,40.552520751953125,0,
 727447,-0.372802734375,-0.842041015625,-0.34375,5.213414669036865,-2.6219513416290283,1.0670732259750366,28.200000762939453,-3.1500000953674316,-7.050000190734863,40.21706008911133,0,
 727457,-0.38916015625,-0.85595703125,-0.310302734375,10.853658676147461,-6.79878044128418,2.7439024448394775,28.200000762939453,-3.1500000953674316,-7.050000190734863,40.3608283996582,0,
 727467,-0.392822265625,-0.86279296875,-0.27392578125,13.59756088256836,-9.207317352294922,3.262195110321045,27.0,-3.1500000953674316,-8.550000190734863,40.60044479370117,0,
 727477,-0.41455078125,-0.84619140625,-0.242919921875,13.140244483947754,-9.664634704589844,2.5609755516052246,28.350000381469727,-4.050000190734863,-8.399999618530273,40.6962890625,0,
 727487,-0.4072265625,-0.878662109375,-0.2158203125,10.914634704589844,-7.835366249084473,1.1280487775802612,28.200000762939453,-5.400000095367432,-8.25,40.3608283996582,0,
 727498,-0.430908203125,-0.877197265625,-0.198486328125,6.310975551605225,-6.189024448394775,0.18292683362960815,28.200000762939453,-5.400000095367432,-8.25,40.552520751953125,0,
 727508,-0.426025390625,-0.87451171875,-0.200927734375,0.7012194991111755,-2.5,-1.5548781156539917,28.049999237060547,-4.050000190734863,-6.449999809265137,40.50459671020508,0,
 727518,-0.421142578125,-0.8818359375,-0.21630859375,-5.762195110321045,2.804877996444702,-1.8902438879013062,29.399999618530273,-4.650000095367432,-9.0,40.552520751953125,0,
 727528,-0.430908203125,-0.864501953125,-0.23681640625,-6.402439117431641,5.304878234863281,-1.737804889678955,29.100000381469727,-2.549999952316284,-7.199999809265137,40.60044479370117,0,
 727538,-0.410888671875,-0.861083984375,-0.260498046875,-5.853658676147461,5.853658676147461,-1.8902438879013062,29.100000381469727,-2.549999952316284,-7.199999809265137,40.16913604736328,0,
 727548,-0.400146484375,-0.85693359375,-0.2724609375,-5.0,5.152439117431641,-1.8902438879013062,27.600000381469727,-2.549999952316284,-7.650000095367432,40.40875244140625,0,
 727558,-0.403076171875,-0.85595703125,-0.281005859375,-3.2012195587158203,3.628048896789551,-1.4939024448394775,28.200000762939453,-4.650000095367432,-7.800000190734863,40.50459671020508,0,
 727568,-0.39453125,-0.845458984375,-0.294189453125,-0.27439025044441223,2.378048896789551,-1.2195122241973877,28.799999237060547,-2.8499999046325684,-7.199999809265137,40.60044479370117,0,
 727578,-0.395263671875,-0.8466796875,-0.28662109375,1.6768293380737305,1.1280487775802612,-1.1585365533828735,28.200000762939453,-3.9000000953674316,-8.550000190734863,40.3608283996582,0,
 727588,-0.391845703125,-0.85693359375,-0.28369140625,3.5365853309631348,-0.8231707215309143,-1.1890244483947754,28.649999618530273,-3.450000047683716,-7.800000190734863,40.16913604736328,0,
 727598,-0.3935546875,-0.853271484375,-0.277587890625,4.329268455505371,-1.6158536672592163,-0.8841463327407837,26.700000762939453,-2.700000047683716,-7.800000190734863,40.07329177856445,0,
 727608,-0.396728515625,-0.851806640625,-0.275146484375,5.091463565826416,-2.3475611209869385,-0.6402438879013062,28.350000381469727,-2.8499999046325684,-7.949999809265137,40.50459671020508,0,
 727618,-0.394287109375,-0.881591796875,-0.256103515625,3.9939024448394775,-3.1097562313079834,-0.15243902802467346,29.100000381469727,-0.15000000596046448,-9.899999618530273,40.21706008911133,0,
 727628,-0.41015625,-0.880859375,-0.25244140625,3.2926828861236572,-2.1341464519500732,0.5792682766914368,29.100000381469727,-0.15000000596046448,-9.899999618530273,40.40875244140625,0,
 727638,-0.4130859375,-0.874267578125,-0.236328125,1.8292683362960815,-1.1280487775802612,0.7317073345184326,28.950000762939453,-3.1500000953674316,-7.5,40.3608283996582,0,
 727648,-0.41259765625,-0.8671875,-0.247802734375,0.4268292784690857,-0.060975611209869385,0.27439025044441223,28.049999237060547,-1.649999976158142,-7.199999809265137,40.3608283996582,0,
 727658,-0.418212890625,-0.859619140625,-0.24365234375,-0.24390244483947754,1.3109756708145142,-0.7317073345184326,28.350000381469727,-4.5,-7.650000095367432,40.552520751953125,0,
 727668,-0.40771484375,-0.85107421875,-0.255615234375,-0.4573170840740204,2.22560977935791,-1.7987805604934692,28.350000381469727,-4.5,-7.650000095367432,40.50459671020508,0,
 727678,-0.416259765625,-0.857177734375,-0.2490234375,-0.8231707215309143,3.353658676147461,-2.987804889678955,27.450000762939453,-3.9000000953674316,-6.75,40.40875244140625,0,
 727688,-0.40966796875,-0.8544921875,-0.241943359375,-1.737804889678955,4.390244007110596,-4.054878234863281,27.450000762939453,-2.700000047683716,-8.25,40.3608283996582,0,
 727698,-0.395751953125,-0.845947265625,-0.25048828125,-2.4695122241973877,5.487804889678955,-5.5182929039001465,29.399999618530273,-3.1500000953674316,-7.050000190734863,40.60044479370117,0,
 727708,-0.394775390625,-0.872314453125,-0.260498046875,-2.804877996444702,6.006097793579102,-6.310975551605225,29.399999618530273,-3.1500000953674316,-7.050000190734863,40.6962890625,0,
 727718,-0.3896484375,-0.88134765625,-0.27734375,-3.7195122241973877,5.945122241973877,-5.853658676147461,26.25,-2.25,-9.300000190734863,40.3608283996582,0,
 727728,-0.3935546875,-0.8798828125,-0.27783203125,-3.3841464519500732,5.4268293380737305,-4.786585330963135,27.75,-3.1500000953674316,-8.25,40.60044479370117,0,
 727738,-0.384033203125,-0.893310546875,-0.2841796875,-2.5609755516052246,4.1768293380737305,-2.77439022064209,28.649999618530273,-3.1500000953674316,-6.75,40.16913604736328,0,
 727748,-0.387939453125,-0.884765625,-0.289794921875,-1.585365891456604,2.378048896789551,-0.5487805008888245,28.649999618530273,-3.1500000953674316,-6.75,40.40875244140625,0,
 727758,-0.3916015625,-0.876708984375,-0.28466796875,-0.09146341681480408,0.8841463327407837,1.3719512224197388,28.350000381469727,-2.549999952316284,-7.199999809265137,40.50459671020508,0,
 727768,-0.38916015625,-0.87060546875,-0.271240234375,1.5243902206420898,-0.3353658616542816,2.4695122241973877,28.049999237060547,-3.299999952316284,-6.900000095367432,40.40875244140625,0,
 727778,-0.399658203125,-0.87109375,-0.268310546875,2.378048896789551,-1.0060975551605225,3.47560977935791,27.299999237060547,-2.8499999046325684,-7.650000095367432,40.50459671020508,0,
 727788,-0.396240234375,-0.85888671875,-0.26123046875,2.5304877758026123,-1.4939024448394775,3.47560977935791,27.600000381469727,-4.050000190734863,-7.199999809265137,40.3608283996582,0,
 727798,-0.402099609375,-0.849609375,-0.2568359375,2.896341562271118,-1.402438998222351,3.628048896789551,27.0,-4.349999904632568,-8.25,40.3608283996582,0,
