timestamp,accl_x,accl_y,accl_z,gyro_x,gyro_y,gyro_z,mag_x,mag_y,mag_z,temp,emg,
 732034,-0.332763671875,-0.918701171875,-0.0087890625,-1.402438998222351,-0.8841463327407837,-4.6646342277526855,24.450000762939453,3.9000000953674316,-15.0,39.11483383178711,0,
 732044,-0.337646484375,-0.918212890625,-0.013671875,-1.432926893234253,0.6707317233085632,-5.945122241973877,25.200000762939453,1.9500000476837158,-15.0,39.11483383178711,0,
 732054,-0.325927734375,-0.92529296875,-0.014892578125,-0.8841463327407837,3.079268455505371,-6.402439117431641,25.200000762939453,1.9500000476837158,-15.0,38.82729721069336,0,
 732064,-0.318603515625,-0.924560546875,-0.023681640625,-0.8231707215309143,4.1768293380737305,-6.402439117431641,27.299999237060547,1.649999976158142,-13.199999809265137,39.30652618408203,0,
 732074,-0.322998046875,-0.92431640625,-0.02734375,0.24390244483947754,4.115853786468506,-6.707317352294922,25.950000762939453,2.700000047683716,-14.25,39.01898956298828,0,
 732084,-0.313720703125,-0.92236328125,-0.032470703125,0.6097561120986938,3.7195122241973877,-6.280488014221191,24.600000381469727,2.0999999046325684,-14.699999809265137,39.2106819152832,0,
 732094,-0.302734375,-0.9267578125,-0.03125,1.7682926654815674,3.0487804412841797,-6.097560882568359,25.649999618530273,3.75,-13.949999809265137,39.162757873535156,0,
 732104,-0.30712890625,-0.9296875,-0.031494140625,2.408536672592163,2.5304877758026123,-5.121951103210449,25.649999618530273,3.75,-13.949999809265137,39.01898956298828,0,
 732114,-0.30712890625,-0.929443359375,-0.03271484375,3.1097562313079834,1.7682926654815674,-4.634146213531494,25.5,3.1500000953674316,-13.5,38.82729721069336,0,
 732124,-0.30615234375,-0.92724609375,-0.034912109375,4.5731706619262695,1.097561001777649,-3.628048896789551,24.0,2.25,-13.050000190734863,39.2106819152832,0,
 732135,-0.30615234375,-0.931884765625,-0.025390625,4.878048896789551,0.4878048896789551,-3.2317073345184326,26.700000762939453,2.25,-13.050000190734863,39.01898956298828,0,
 732145,-0.3115234375,-0.929443359375,-0.027099609375,5.396341800689697,0.21341463923454285,-3.628048896789551,26.700000762939453,2.25,-13.050000190734863,39.162757873535156,0,
 732155,-0.306884765625,-0.9248046875,-0.028076171875,5.4268293380737305,0.09146341681480408,-3.5060975551605225,27.299999237060547,2.8499999046325684,-12.899999618530273,39.01898956298828,0,
 732165,-0.315185546875,-0.918212890625,-0.024658203125,5.792683124542236,0.27439025044441223,-4.695122241973877,26.100000381469727,2.549999952316284,-13.199999809265137,38.92314529418945,0,
 732175,-0.315185546875,-0.9111328125,-0.022705078125,6.6768293380737305,-0.12195122241973877,-6.067073345184326,26.25,3.450000047683716,-15.0,39.11483383178711,0,
 732185,-0.312744140625,-0.920654296875,-0.01708984375,6.920732021331787,-0.396341472864151,-7.896341800689697,26.25,3.450000047683716,-15.0,39.2106819152832,0,
 732195,-0.3076171875,-0.926025390625,-0.00927734375,6.067073345184326,-1.0670732259750366,-9.908536911010742,24.450000762939453,4.650000095367432,-14.550000190734863,39.11483383178711,0,
 732205,-0.3173828125,-0.927001953125,-0.00439453125,4.420732021331787,-1.2195122241973877,-12.286585807800293,24.600000381469727,2.8499999046325684,-14.399999618530273,38.92314529418945,0,
 732215,-0.31494140625,-0.925537109375,-0.005859375,1.737804889678955,-1.097561001777649,-15.304878234863281,25.950000762939453,1.5,-13.800000190734863,39.2106819152832,0,
 732225,-0.321533203125,-0.929443359375,-0.011962890625,1.0060975551605225,-0.27439025044441223,-17.591463088989258,26.25,5.099999904632568,-13.800000190734863,39.11483383178711,0,
 732235,-0.32470703125,-0.936767578125,-0.0185546875,0.6097561120986938,0.7317073345184326,-21.189023971557617,26.549999237060547,3.75,-14.699999809265137,39.2106819152832,0,
 732245,-0.32177734375,-0.92919921875,-0.017578125,-0.3353658616542816,1.9512195587158203,-24.725610733032227,24.149999618530273,0.8999999761581421,-15.899999618530273,39.11483383178711,0,
 732255,-0.312255859375,-0.943359375,-0.0009765625,1.0365853309631348,2.0731706619262695,-28.231708526611328,26.549999237060547,4.050000190734863,-15.899999618530273,38.82729721069336,0,
 732265,-0.322998046875,-0.919189453125,-0.012451171875,0.4878048896789551,2.8353660106658936,-31.79878044128418,25.200000762939453,3.1500000953674316,-15.75,39.11483383178711,0,
 732275,-0.32177734375,-0.932861328125,-0.031982421875,1.8292683362960815,3.5365853309631348,-37.103660583496094,25.200000762939453,3.1500000953674316,-15.75,39.01898956298828,0,
 732285,-0.287353515625,-0.911865234375,-0.0380859375,4.72560977935791,4.878048896789551,-39.69512176513672,25.200000762939453,3.9000000953674316,-14.550000190734863,39.162757873535156,0,
 732295,-0.2783203125,-0.9326171875,-0.03662109375,8.20121955871582,4.603658676147461,-43.01829528808594,22.799999237060547,4.349999904632568,-13.800000190734863,39.01898956298828,0,
 732305,-0.26953125,-0.95654296875,0.0,11.493903160095215,4.390244007110596,-45.42683029174805,23.549999237060547,4.650000095367432,-15.0,38.92314529418945,0,
 732315,-0.265869140625,-0.959716796875,-0.005859375,10.82317066192627,4.237804889678955,-49.908538818359375,23.549999237060547,4.650000095367432,-15.0,39.162757873535156,0,
 732325,-0.271728515625,-0.943603515625,-0.024169921875,11.829268455505371,3.445122003555298,-50.64024353027344,24.899999618530273,5.25,-14.699999809265137,39.2106819152832,0,
 732335,-0.234130859375,-0.938720703125,-0.02294921875,13.932927131652832,4.481707572937012,-51.95122146606445,22.200000762939453,5.25,-13.949999809265137,39.11483383178711,0,
 732345,-0.205078125,-0.955322265625,-0.004638671875,15.792683601379395,4.908536911010742,-51.55487823486328,24.149999618530273,4.050000190734863,-16.200000762939453,39.2106819152832,0,
 732355,-0.178955078125,-0.9404296875,0.016357421875,16.64634132385254,4.756097793579102,-50.45731735229492,22.200000762939453,5.25,-15.149999618530273,38.92314529418945,0,
 732365,-0.164306640625,-0.935546875,0.011962890625,19.45121955871582,3.75,-50.82317352294922,22.200000762939453,3.75,-15.449999809265137,39.01898956298828,0,
 732375,-0.125732421875,-0.931884765625,-0.004638671875,19.878049850463867,1.6768293380737305,-50.7621955871582,22.049999237060547,5.849999904632568,-13.5,39.162757873535156,0,
 732385,-0.11279296875,-0.95263671875,0.014892578125,20.640243530273438,-0.060975611209869385,-45.39634323120117,21.899999618530273,6.900000095367432,-14.399999618530273,38.971065521240234,0,
 732395,-0.11474609375,-0.957275390625,0.021728515625,19.024391174316406,-2.317073106765747,-40.51829528808594,20.399999618530273,6.0,-15.449999809265137,39.11483383178711,0,
 732405,-0.121337890625,-0.94677734375,0.009033203125,17.865854263305664,-5.213414669036865,-37.774391174316406,20.399999618530273,6.0,-15.449999809265137,39.01898956298828,0,
 732415,-0.108154296875,-0.93603515625,-0.002197265625,19.725610733032227,-7.1646342277526855,-34.725608825683594,21.450000762939453,8.100000381469727,-15.449999809265137,39.11483383178711,0,
 732425,-0.09912109375,-0.923828125,0.01220703125,21.64634132385254,-9.817073822021484,-31.707317352294922,20.549999237060547,6.300000190734863,-15.300000190734863,39.2106819152832,0,
 732435,-0.115478515625,-0.95068359375,0.03857421875,24.268293380737305,-12.317073822021484,-27.012195587158203,19.649999618530273,7.199999809265137,-15.449999809265137,39.30652618408203,0,
 732445,-0.122314453125,-0.983642578125,0.050537109375,22.530488967895508,-13.384146690368652,-23.079269409179688,19.649999618530273,7.199999809265137,-15.449999809265137,39.2106819152832,0,
 732465,-0.142333984375,-0.98779296875,0.06591796875,17.80487823486328,-10.518293380737305,-16.859756469726562,19.350000381469727,7.5,-15.0,39.11483383178711,0,
 732475,-0.152099609375,-0.98388671875,0.050048828125,16.463415145874023,-10.54878044128418,-16.920732498168945,19.200000762939453,5.699999809265137,-16.200000762939453,38.971065521240234,0,
 732485,-0.151611328125,-0.982177734375,0.05419921875,16.615854263305664,-10.487805366516113,-16.676830291748047,19.200000762939453,5.699999809265137,-16.200000762939453,39.162757873535156,0,
 732495,-0.142822265625,-0.99609375,0.072265625,15.182927131652832,-8.932927131652832,-15.243903160095215,19.200000762939453,6.0,-16.649999618530273,39.2106819152832,0,
 732505,-0.149169921875,-1.00244140625,0.072998046875,12.5,-8.32317066192627,-14.146341323852539,20.100000381469727,6.599999904632568,-16.049999237060547,39.01898956298828,0,
 732515,-0.140380859375,-1.004638671875,0.0703125,8.719511985778809,-3.75,-11.646341323852539,18.299999237060547,8.25,-17.549999237060547,39.11483383178711,0,
 732525,-0.138427734375,-0.99365234375,0.0654296875,8.689024925231934,-2.317073106765747,-10.487805366516113,18.299999237060547,8.25,-16.799999237060547,39.2106819152832,0,
 732535,-0.134765625,-0.991455078125,0.061279296875,8.04878044128418,-1.25,-9.512195587158203,18.299999237060547,8.25,-16.799999237060547,39.11483383178711,0,
 732545,-0.126708984375,-1.024169921875,0.087158203125,5.396341800689697,-2.378048896789551,-8.658536911010742,20.399999618530273,7.650000095367432,-16.649999618530273,38.971065521240234,0,
 732565,-0.116455078125,-0.971923828125,0.07421875,2.5,-3.5060975551605225,-4.908536911010742,20.399999618530273,8.399999618530273,-17.399999618530273,39.01898956298828,0,
 732575,-0.115234375,-0.966064453125,0.0595703125,2.804877996444702,-2.8353660106658936,-2.195122003555298,20.399999618530273,8.399999618530273,-17.399999618530273,39.2106819152832,0,
 732585,-0.1005859375,-0.9638671875,0.06005859375,3.6890244483947754,-2.195122003555298,-0.5182926654815674,20.100000381469727,7.800000190734863,-16.799999237060547,39.2106819152832,0,
 732595,-0.113525390625,-0.959716796875,0.05322265625,4.45121955871582,-1.5243902206420898,0.3353658616542816,19.649999618530273,7.199999809265137,-16.950000762939453,38.77937698364258,0,
 732605,-0.113037109375,-0.967529296875,0.0654296875,3.628048896789551,-1.4939024448394775,1.25,18.899999618530273,6.900000095367432,-18.450000762939453,39.01898956298828,0,
 732615,-0.118408203125,-0.96435546875,0.08447265625,2.378048896789551,-2.195122003555298,0.060975611209869385,18.899999618530273,6.900000095367432,-18.450000762939453,39.01898956298828,0,
 732625,-0.124267578125,-0.95947265625,0.080810546875,1.0060975551605225,-2.5304877758026123,-0.9146341681480408,18.899999618530273,7.199999809265137,-17.399999618530273,39.2106819152832,0,
 732635,-0.121337890625,-0.947998046875,0.062744140625,0.9451219439506531,-3.0182926654815674,-2.865853786468506,18.899999618530273,7.199999809265137,-16.649999618530273,39.2106819152832,0,
 732645,-0.112548828125,-0.92578125,0.046875,3.7804877758026123,-3.2317073345184326,-4.02439022064209,20.100000381469727,7.800000190734863,-16.5,38.82729721069336,0,
 732655,-0.118896484375,-0.938720703125,0.049072265625,6.493902683258057,-3.932926893234253,-5.152439117431641,19.200000762939453,8.100000381469727,-20.700000762939453,39.35445022583008,0,
 732665,-0.111572265625,-0.9501953125,0.05810546875,6.493902683258057,-3.262195110321045,-4.878048896789551,19.200000762939453,8.100000381469727,-20.700000762939453,39.2106819152832,0,
 732675,-0.115478515625,-0.98779296875,0.090087890625,5.487804889678955,-2.9573171138763428,-3.567073345184326,18.0,7.199999809265137,-18.149999618530273,38.971065521240234,0,
 732685,-0.116455078125,-0.983642578125,0.10498046875,1.9817073345184326,-1.8902438879013062,-1.0670732259750366,19.950000762939453,8.100000381469727,-16.950000762939453,39.162757873535156,0,
 732695,-0.1123046875,-0.989501953125,0.090576171875,-0.3658536672592163,-1.097561001777649,-1.7682926654815674,19.649999618530273,8.850000381469727,-16.950000762939453,39.01898956298828,0,
 732705,-0.1044921875,-0.9697265625,0.078857421875,-1.5243902206420898,-0.6402438879013062,0.3658536672592163,19.649999618530273,8.850000381469727,-16.950000762939453,39.01898956298828,0,
 732715,-0.119384765625,-0.98583984375,0.06591796875,-2.1341464519500732,-0.21341463923454285,1.7682926654815674,18.450000762939453,7.650000095367432,-18.450000762939453,39.2106819152832,0,
 732725,-0.115234375,-0.96923828125,0.0673828125,-3.170731782913208,0.6707317233085632,2.591463565826416,19.049999237060547,9.0,-17.549999237060547,39.11483383178711,0,
 732735,-0.1220703125,-0.971923828125,0.069580078125,-1.6463414430618286,0.3353658616542816,3.5365853309631348,18.899999618530273,9.300000190734863,-19.200000762939453,39.11483383178711,0,
 732745,-0.119384765625,-0.994384765625,0.0859375,-1.1890244483947754,0.21341463923454285,2.77439022064209,18.899999618530273,9.300000190734863,-19.200000762939453,38.92314529418945,0,
 732755,-0.13134765625,-0.9853515625,0.07763671875,-3.7804877758026123,0.15243902802467346,2.408536672592163,21.299999237060547,7.050000190734863,-19.049999237060547,39.2106819152832,0,
 732765,-0.07861328125,-0.942138671875,0.0830078125,-6.341463565826416,0.792682945728302,3.9939024448394775,19.649999618530273,8.100000381469727,-18.149999618530273,39.01898956298828,0,
 732775,-0.11962890625,-0.97802734375,0.06005859375,-4.5731706619262695,-0.6402438879013062,0.396341472864151,19.350000381469727,10.199999809265137,-18.299999237060547,39.2106819152832,0,
 732785,-0.10400390625,-0.95556640625,0.063232421875,-4.756097793579102,-0.8841463327407837,1.1890244483947754,19.799999237060547,7.5,-16.799999237060547,39.2106819152832,0,
 732795,-0.124267578125,-0.960693359375,0.064697265625,-3.9024391174316406,-1.3719512224197388,0.18292683362960815,19.799999237060547,7.5,-16.799999237060547,38.971065521240234,0,
 732805,-0.126953125,-0.9658203125,0.0595703125,-3.353658676147461,-1.3109756708145142,-0.5182926654815674,19.200000762939453,8.399999618530273,-17.700000762939453,39.2106819152832,0,
 732815,-0.116455078125,-0.962158203125,0.06396484375,-2.7134146690368652,-0.6097561120986938,-0.792682945728302,18.0,7.650000095367432,-16.950000762939453,39.2106819152832,0,
 732825,-0.1171875,-0.965576171875,0.070068359375,-1.8597561120986938,-0.4573170840740204,-1.097561001777649,19.950000762939453,7.650000095367432,-19.649999618530273,39.01898956298828,0,
 732835,-0.181884765625,-0.98583984375,0.047607421875,-2.012195110321045,0.21341463923454285,-0.21341463923454285,19.950000762939453,7.650000095367432,-19.649999618530273,39.2106819152832,0,
 732845,-0.099853515625,-0.971435546875,0.070068359375,-2.1341464519500732,2.0731706619262695,-0.12195122241973877,19.950000762939453,8.100000381469727,-17.399999618530273,38.92314529418945,0,
 732855,-0.10693359375,-0.9560546875,0.066162109375,-2.103658676147461,0.8536585569381714,-0.09146341681480408,18.600000381469727,10.199999809265137,-18.75,39.11483383178711,0,
 732865,-0.100830078125,-0.96826171875,0.06787109375,-0.6097561120986938,0.27439025044441223,0.24390244483947754,20.700000762939453,8.100000381469727,-17.399999618530273,39.2106819152832,0,
 732875,-0.098388671875,-0.95556640625,0.059814453125,-0.8536585569381714,-1.25,1.3719512224197388,20.700000762939453,8.100000381469727,-17.399999618530273,38.971065521240234,0,
 732885,-0.105712890625,-0.9423828125,0.052490234375,0.3353658616542816,-2.408536672592163,1.6768293380737305,18.600000381469727,7.5,-16.799999237060547,39.11483383178711,0,
 732896,-0.10986328125,-0.95166015625,0.046630859375,2.6524391174316406,-3.2926828861236572,2.012195110321045,18.299999237060547,6.300000190734863,-16.5,38.971065521240234,0,
 732906,-0.101806640625,-0.951416015625,0.056640625,4.054878234863281,-3.8109757900238037,1.5548781156539917,20.399999618530273,8.399999618530273,-17.399999618530273,39.2106819152832,0,
 732916,-0.1171875,-0.951904296875,0.06298828125,4.695122241973877,-3.932926893234253,1.3414634466171265,19.950000762939453,8.100000381469727,-17.700000762939453,39.01898956298828,0,
 732926,-0.121826171875,-0.9609375,0.06884765625,4.634146213531494,-3.9024391174316406,0.7012194991111755,19.950000762939453,8.100000381469727,-17.700000762939453,38.82729721069336,0,
 732936,-0.121337890625,-0.9599609375,0.073486328125,4.1768293380737305,-3.445122003555298,1.1280487775802612,19.950000762939453,8.100000381469727,-16.950000762939453,39.01898956298828,0,
 732946,-0.1181640625,-0.975341796875,0.08837890625,3.658536672592163,-2.22560977935791,2.378048896789551,19.200000762939453,8.399999618530273,-16.950000762939453,39.01898956298828,0,
 732956,-0.11474609375,-0.978759765625,0.092529296875,1.4634146690368652,-1.3109756708145142,2.378048896789551,19.200000762939453,8.100000381469727,-17.700000762939453,39.11483383178711,0,
 732966,-0.1201171875,-0.978271484375,0.0849609375,-1.1585365533828735,-0.3048780560493469,3.4146342277526855,19.200000762939453,8.100000381469727,-17.700000762939453,39.11483383178711,0,
 732976,-0.11962890625,-0.981689453125,0.081298828125,-2.5304877758026123,-0.21341463923454285,3.353658676147461,19.049999237060547,7.800000190734863,-17.25,39.30652618408203,0,
 732986,-0.114013671875,-0.980224609375,0.07666015625,-2.7134146690368652,-0.7317073345184326,3.5365853309631348,19.049999237060547,7.800000190734863,-17.549999237060547,38.92314529418945,0,
 732996,-0.116943359375,-0.962646484375,0.066162109375,-2.1341464519500732,-1.4939024448394775,3.47560977935791,20.100000381469727,6.300000190734863,-18.0,38.971065521240234,0,
 733006,-0.120361328125,-0.96826171875,0.068603515625,-1.4939024448394775,-1.920731782913208,3.2317073345184326,20.100000381469727,6.300000190734863,-18.0,38.92314529418945,0,
 733016,-0.121337890625,-0.971923828125,0.066650390625,-1.1585365533828735,-2.22560977935791,2.77439022064209,18.899999618530273,7.650000095367432,-17.700000762939453,39.01898956298828,0,
 733026,-0.123046875,-0.9755859375,0.072021484375,-1.4634146690368652,-3.2926828861236572,3.567073345184326,19.799999237060547,7.5,-18.75,39.01898956298828,0,
 733036,-0.1337890625,-0.970458984375,0.0712890625,-0.7012194991111755,-3.9024391174316406,2.1341464519500732,19.200000762939453,8.100000381469727,-17.399999618530273,38.82729721069336,0,
 733046,-0.123291015625,-0.96826171875,0.07080078125,-0.7621951103210449,-4.207317352294922,3.3231709003448486,19.049999237060547,9.0,-19.049999237060547,39.2106819152832,0,
 733056,-0.10693359375,-0.954833984375,0.083251953125,0.5487805008888245,-4.603658676147461,2.896341562271118,19.049999237060547,9.0,-19.049999237060547,39.11483383178711,0,
 733076,-0.12890625,-0.974609375,0.077392578125,-1.1280487775802612,-3.2012195587158203,3.567073345184326,19.049999237060547,6.599999904632568,-16.799999237060547,39.162757873535156,0,
 733086,-0.125,-0.957763671875,0.061767578125,-0.15243902802467346,-2.865853786468506,3.6890244483947754,18.450000762939453,7.199999809265137,-16.200000762939453,38.82729721069336,0,
 733096,-0.12939453125,-0.96826171875,0.072021484375,-0.5487805008888245,-2.804877996444702,3.079268455505371,18.450000762939453,7.199999809265137,-16.200000762939453,39.30652618408203,0,
 733106,-0.122314453125,-0.9609375,0.08203125,-1.3414634466171265,-2.77439022064209,2.103658676147461,19.350000381469727,7.5,-17.549999237060547,39.01898956298828,0,
 733116,-0.12646484375,-0.955322265625,0.07421875,-2.012195110321045,-2.9573171138763428,1.7987805604934692,18.899999618530273,6.900000095367432,-15.899999618530273,39.2106819152832,0,
 733126,-0.151611328125,-0.95166015625,0.06689453125,-2.1646342277526855,-1.737804889678955,1.4634146690368652,20.399999618530273,8.399999618530273,-18.149999618530273,39.162757873535156,0,
 733136,-0.13037109375,-0.9580078125,0.06982421875,-2.103658676147461,-2.4390244483947754,0.9146341681480408,20.399999618530273,8.399999618530273,-18.149999618530273,38.77937698364258,0,
 733146,-0.123046875,-0.960693359375,0.0615234375,-3.170731782913208,-1.6768293380737305,0.6402438879013062,18.450000762939453,6.449999809265137,-18.899999618530273,39.01898956298828,0,
 733156,-0.120361328125,-0.957275390625,0.061767578125,-3.1097562313079834,-1.0365853309631348,0.8231707215309143,18.299999237060547,8.699999809265137,-17.25,39.30652618408203,0,
 733166,-0.124267578125,-0.94677734375,0.0615234375,-3.2317073345184326,-0.27439025044441223,0.9451219439506531,21.0,7.050000190734863,-20.549999237060547,39.01898956298828,0,
 733176,-0.124755859375,-0.951416015625,0.06640625,-2.22560977935791,0.9146341681480408,0.8841463327407837,18.0,6.900000095367432,-19.200000762939453,39.11483383178711,0,
 733186,-0.117431640625,-0.955322265625,0.07177734375,-2.6524391174316406,1.6463414430618286,1.1280487775802612,18.0,6.900000095367432,-19.200000762939453,39.162757873535156,0,
 733196,-0.120849609375,-0.96826171875,0.072265625,-2.103658676147461,1.6463414430618286,1.8292683362960815,19.799999237060547,8.25,-18.0,38.92314529418945,0,
 733206,-0.123046875,-0.966552734375,0.055908203125,-3.079268455505371,0.9756097793579102,1.7073171138763428,18.450000762939453,7.650000095367432,-18.149999618530273,39.2106819152832,0,
 733216,-0.12353515625,-0.96826171875,0.064453125,-2.22560977935791,0.5182926654815674,1.585365891456604,19.799999237060547,5.400000095367432,-17.25,39.162757873535156,0,
 733226,-0.123779296875,-0.982177734375,0.070556640625,-1.9512195587158203,-0.8231707215309143,1.3414634466171265,19.799999237060547,5.400000095367432,-17.25,39.01898956298828,0,
 733236,-0.128173828125,-0.9833984375,0.071533203125,-1.402438998222351,-2.2560975551605225,1.402438998222351,18.899999618530273,7.650000095367432,-18.149999618530273,38.683528900146484,0,
 733246,-0.121826171875,-0.983642578125,0.06591796875,-2.682926893234253,-3.1402440071105957,0.8841463327407837,19.799999237060547,7.5,-16.5,39.162757873535156,0,
 733256,-0.15087890625,-0.962890625,0.059814453125,-2.865853786468506,-4.329268455505371,1.9512195587158203,18.450000762939453,8.100000381469727,-17.399999618530273,39.35445022583008,0,
 733266,-0.127197265625,-0.97607421875,0.05908203125,-1.3719512224197388,-4.45121955871582,1.3414634466171265,18.450000762939453,8.100000381469727,-17.399999618530273,38.971065521240234,0,
 733276,-0.128662109375,-0.97900390625,0.0654296875,-1.3719512224197388,-4.786585330963135,1.7682926654815674,20.399999618530273,6.449999809265137,-17.700000762939453,38.92314529418945,0,
 733286,-0.127197265625,-0.981689453125,0.0751953125,-1.4634146690368652,-4.512195110321045,1.5548781156539917,20.549999237060547,8.25,-16.799999237060547,38.82729721069336,0,
 733296,-0.140380859375,-0.97900390625,0.0703125,-1.8597561120986938,-4.878048896789551,2.1341464519500732,18.299999237060547,7.800000190734863,-19.049999237060547,38.82729721069336,0,
 733306,-0.1259765625,-0.958251953125,0.0673828125,-2.4390244483947754,-4.054878234863281,1.5548781156539917,19.350000381469727,6.300000190734863,-16.799999237060547,39.2106819152832,0,
 733316,-0.131103515625,-0.953857421875,0.06591796875,-1.8597561120986938,-3.5365853309631348,1.3109756708145142,19.350000381469727,6.300000190734863,-16.799999237060547,39.2106819152832,0,
 733326,-0.13330078125,-0.951904296875,0.062744140625,-1.920731782913208,-2.6219513416290283,1.2195122241973877,19.799999237060547,6.300000190734863,-17.25,39.35445022583008,0,
 733336,-0.135986328125,-0.95361328125,0.061279296875,-1.4939024448394775,-1.2804877758026123,1.432926893234253,19.049999237060547,6.599999904632568,-18.75,39.11483383178711,0,
 733346,-0.126953125,-0.951904296875,0.0556640625,-1.097561001777649,0.0,0.792682945728302,19.799999237060547,6.599999904632568,-18.0,39.11483383178711,0,
 733356,-0.131591796875,-0.947998046875,0.060791015625,-0.5487805008888245,0.7317073345184326,0.7621951103210449,19.799999237060547,6.599999904632568,-18.0,38.92314529418945,0,
 733366,-0.1259765625,-0.9521484375,0.070068359375,-0.09146341681480408,1.0365853309631348,0.3353658616542816,20.700000762939453,6.900000095367432,-17.700000762939453,39.11483383178711,0,
 733376,-0.12158203125,-0.954345703125,0.072021484375,-0.3658536672592163,1.1585365533828735,0.060975611209869385,19.649999618530273,7.199999809265137,-18.149999618530273,38.92314529418945,0,
 733386,-0.12890625,-0.947998046875,0.06689453125,-0.4878048896789551,0.9756097793579102,-0.030487805604934692,20.549999237060547,7.050000190734863,-16.799999237060547,38.971065521240234,0,
 733396,-0.1181640625,-0.94921875,0.064697265625,-0.4878048896789551,1.2195122241973877,-0.3353658616542816,20.549999237060547,7.050000190734863,-16.799999237060547,39.2106819152832,0,
 733406,-0.11328125,-0.95556640625,0.059814453125,-0.7621951103210449,0.5182926654815674,-0.3658536672592163,19.950000762939453,7.199999809265137,-18.149999618530273,39.01898956298828,0,
 733416,-0.12255859375,-0.955810546875,0.059814453125,-0.6707317233085632,-0.15243902802467346,0.3658536672592163,18.299999237060547,7.800000190734863,-17.25,39.2106819152832,0,
 733426,-0.120849609375,-0.96435546875,0.062255859375,-0.8231707215309143,-0.396341472864151,1.0365853309631348,19.200000762939453,6.900000095367432,-16.649999618530273,38.82729721069336,0,
 733436,-0.12548828125,-0.96728515625,0.06591796875,-1.2195122241973877,-0.7317073345184326,0.9146341681480408,19.350000381469727,8.25,-18.299999237060547,39.2106819152832,0,
 733446,-0.12939453125,-0.961669921875,0.063232421875,-0.7621951103210449,0.21341463923454285,0.6402438879013062,19.649999618530273,6.449999809265137,-18.149999618530273,39.11483383178711,0,
 733456,-0.131591796875,-0.966552734375,0.0673828125,-1.432926893234253,0.396341472864151,0.060975611209869385,21.450000762939453,6.900000095367432,-16.950000762939453,39.01898956298828,0,
 733466,-0.131103515625,-0.969482421875,0.0732421875,-2.987804889678955,0.8536585569381714,-0.3353658616542816,19.799999237060547,7.050000190734863,-17.549999237060547,39.01898956298828,0,
 733476,-0.13671875,-0.96923828125,0.072998046875,-3.3231709003448486,0.8841463327407837,-0.030487805604934692,21.149999618530273,5.699999809265137,-22.649999618530273,39.2106819152832,0,
 733486,-0.130615234375,-0.971923828125,0.06982421875,-4.329268455505371,1.737804889678955,-0.15243902802467346,21.149999618530273,5.699999809265137,-22.649999618530273,39.01898956298828,0,
 733496,-0.13671875,-0.974365234375,0.0693359375,-4.72560977935791,2.22560977935791,-0.9756097793579102,18.899999618530273,6.449999809265137,-18.149999618530273,39.01898956298828,0,
 733506,-0.1279296875,-0.962890625,0.061279296875,-3.353658676147461,2.317073106765747,-0.9756097793579102,20.549999237060547,6.599999904632568,-17.25,39.2106819152832,0,
 733516,-0.130615234375,-0.95703125,0.05908203125,-2.22560977935791,2.378048896789551,-0.5792682766914368,20.549999237060547,7.800000190734863,-18.0,39.162757873535156,0,
 733526,-0.125,-0.96484375,0.062744140625,-2.9573171138763428,1.6768293380737305,-0.3048780560493469,20.549999237060547,7.800000190734863,-18.0,38.971065521240234,0,
 733536,-0.1162109375,-0.956787109375,0.055419921875,-2.0426828861236572,0.9451219439506531,0.3658536672592163,19.049999237060547,7.5,-18.0,39.35445022583008,0,
 733546,-0.1123046875,-0.95458984375,0.049560546875,-0.6097561120986938,0.24390244483947754,1.3719512224197388,20.549999237060547,8.25,-18.299999237060547,39.11483383178711,0,
 733556,-0.1181640625,-0.961181640625,0.051513671875,0.24390244483947754,0.0,1.9817073345184326,19.200000762939453,6.0,-16.649999618530273,39.01898956298828,0,
 733566,-0.12060546875,-0.959228515625,0.0458984375,1.402438998222351,-0.15243902802467346,1.6463414430618286,21.299999237060547,7.800000190734863,-19.799999237060547,39.2106819152832,0,
 733576,-0.119384765625,-0.951171875,0.047119140625,2.8353660106658936,-0.396341472864151,2.012195110321045,19.649999618530273,7.199999809265137,-20.399999618530273,38.92314529418945,0,
 733586,-0.12548828125,-0.955078125,0.06640625,3.353658676147461,-0.9756097793579102,1.737804889678955,19.200000762939453,6.449999809265137,-17.399999618530273,38.971065521240234,0,
 733596,-0.132080078125,-0.947021484375,0.065673828125,2.0426828861236572,-0.9756097793579102,1.2195122241973877,19.200000762939453,6.900000095367432,-18.149999618530273,39.2106819152832,0,
 733606,-0.13623046875,-0.954833984375,0.068359375,2.1341464519500732,-0.5182926654815674,0.6402438879013062,20.399999618530273,7.199999809265137,-18.149999618530273,39.01898956298828,0,
 733616,-0.132080078125,-0.965087890625,0.070556640625,1.5243902206420898,-0.27439025044441223,-0.27439025044441223,20.399999618530273,7.199999809265137,-18.149999618530273,39.11483383178711,0,
 733626,-0.133056640625,-0.973876953125,0.081298828125,-0.21341463923454285,0.21341463923454285,0.24390244483947754,19.799999237060547,8.699999809265137,-17.549999237060547,38.971065521240234,0,
 733636,-0.13671875,-0.968017578125,0.0791015625,-1.4939024448394775,0.3658536672592163,0.4573170840740204,18.600000381469727,7.050000190734863,-16.049999237060547,39.2106819152832,0,
 733646,-0.1357421875,-0.974365234375,0.064453125,-2.195122003555298,1.1890244483947754,0.12195122241973877,19.649999618530273,8.399999618530273,-16.950000762939453,39.2106819152832,0,
 733656,-0.136474609375,-0.974853515625,0.0673828125,-2.6219513416290283,1.6158536672592163,0.060975611209869385,19.649999618530273,8.399999618530273,-16.950000762939453,38.92314529418945,0,
 733666,-0.129150390625,-0.971923828125,0.062744140625,-2.7439024448394775,2.103658676147461,0.5182926654815674,18.600000381469727,5.849999904632568,-18.299999237060547,39.11483383178711,0,
 733677,-0.125,-0.9658203125,0.065185546875,-2.4390244483947754,1.3109756708145142,0.6097561120986938,19.799999237060547,9.0,-19.049999237060547,38.92314529418945,0,
 733687,-0.126953125,-0.964111328125,0.056884765625,-2.408536672592163,1.402438998222351,1.2195122241973877,21.0,6.599999904632568,-16.799999237060547,39.11483383178711,0,
 733697,-0.1220703125,-0.958251953125,0.05126953125,-2.1341464519500732,1.25,0.8841463327407837,20.399999618530273,7.650000095367432,-16.200000762939453,39.162757873535156,0,
 733707,-0.11865234375,-0.960205078125,0.057861328125,-1.432926893234253,1.1890244483947754,1.3414634466171265,18.0,6.900000095367432,-17.700000762939453,38.971065521240234,0,
 733717,-0.12646484375,-0.9638671875,0.05517578125,-0.4573170840740204,0.4878048896789551,1.6463414430618286,20.399999618530273,6.449999809265137,-16.950000762939453,39.11483383178711,0,
 733727,-0.124267578125,-0.958740234375,0.0615234375,-0.4573170840740204,0.3658536672592163,1.1585365533828735,19.799999237060547,7.050000190734863,-17.549999237060547,38.92314529418945,0,
 733737,-0.12890625,-0.957275390625,0.0654296875,0.24390244483947754,0.27439025044441223,1.0060975551605225,19.799999237060547,6.599999904632568,-15.75,39.11483383178711,0,
 733747,-0.129638671875,-0.958984375,0.0517578125,0.3048780560493469,0.3048780560493469,0.8536585569381714,19.799999237060547,6.599999904632568,-15.75,39.162757873535156,0,
 733757,-0.12744140625,-0.95654296875,0.060546875,0.7621951103210449,-0.3353658616542816,1.1585365533828735,19.350000381469727,7.5,-16.799999237060547,39.35445022583008,0,
 733767,-0.126953125,-0.9609375,0.058837890625,0.8841463327407837,-0.030487805604934692,0.8536585569381714,19.649999618530273,8.100000381469727,-16.950000762939453,39.01898956298828,0,
 733777,-0.131591796875,-0.958740234375,0.054443359375,0.8841463327407837,0.21341463923454285,0.7621951103210449,17.700000762939453,8.850000381469727,-18.149999618530273,38.92314529418945,0,
 733787,-0.1318359375,-0.961181640625,0.065185546875,1.585365891456604,0.09146341681480408,0.6402438879013062,17.700000762939453,8.850000381469727,-18.149999618530273,39.01898956298828,0,
 733797,-0.128662109375,-0.962158203125,0.060791015625,0.6402438879013062,0.7317073345184326,0.6707317233085632,19.049999237060547,6.599999904632568,-17.549999237060547,39.30652618408203,0,
 733807,-0.14013671875,-0.964111328125,0.07275390625,0.4268292784690857,1.0670732259750366,0.3048780560493469,20.399999618530273,6.900000095367432,-16.649999618530273,38.971065521240234,0,
 733817,-0.129150390625,-0.9658203125,0.06591796875,0.4878048896789551,1.402438998222351,0.18292683362960815,19.799999237060547,9.0,-17.25,39.2106819152832,0,
 733827,-0.13330078125,-0.972900390625,0.07373046875,-0.4878048896789551,1.432926893234253,0.3658536672592163,19.799999237060547,9.0,-17.25,38.82729721069336,0,
 733837,-0.130615234375,-0.964599609375,0.06640625,-1.25,1.1585365533828735,-0.3353658616542816,19.799999237060547,5.099999904632568,-16.5,39.2106819152832,0,
 733847,-0.1298828125,-0.968017578125,0.0634765625,-1.0365853309631348,1.6463414430618286,-0.21341463923454285,18.600000381469727,6.599999904632568,-16.799999237060547,39.2106819152832,0,
 733857,-0.13232421875,-0.969970703125,0.056640625,-0.9756097793579102,1.2804877758026123,0.12195122241973877,19.649999618530273,6.0,-18.450000762939453,39.2106819152832,0,
 733867,-0.127685546875,-0.96923828125,0.06005859375,-1.1280487775802612,0.8231707215309143,0.060975611209869385,20.549999237060547,7.800000190734863,-16.799999237060547,39.162757873535156,0,
 733877,-0.125732421875,-0.969970703125,0.067626953125,-0.4268292784690857,0.3353658616542816,0.6097561120986938,20.549999237060547,7.800000190734863,-16.799999237060547,39.01898956298828,0,
 733887,-0.127197265625,-0.96923828125,0.0673828125,-0.6707317233085632,0.09146341681480408,1.4939024448394775,20.700000762939453,6.900000095367432,-20.399999618530273,39.162757873535156,0,
 733897,-0.127197265625,-0.965576171875,0.064697265625,-0.9146341681480408,0.3658536672592163,2.0426828861236572,20.399999618530273,8.100000381469727,-18.149999618530273,39.11483383178711,0,
 733907,-0.131591796875,-0.967529296875,0.068603515625,-1.0060975551605225,0.030487805604934692,2.1341464519500732,19.799999237060547,7.5,-18.299999237060547,39.2106819152832,0,
 733917,-0.140869140625,-0.963134765625,0.064453125,-0.6402438879013062,-0.396341472864151,0.9451219439506531,19.799999237060547,7.5,-18.299999237060547,38.82729721069336,0,
 733927,-0.131591796875,-0.95849609375,0.060546875,-0.4573170840740204,0.4268292784690857,1.0365853309631348,18.899999618530273,8.100000381469727,-17.399999618530273,39.01898956298828,0,
 733937,-0.134033203125,-0.956787109375,0.064208984375,-0.6097561120986938,-0.27439025044441223,0.4878048896789551,19.649999618530273,7.650000095367432,-16.950000762939453,39.162757873535156,0,
 733947,-0.134033203125,-0.94677734375,0.0576171875,0.3353658616542816,0.396341472864151,0.3658536672592163,19.950000762939453,7.650000095367432,-18.899999618530273,39.01898956298828,0,
 733957,-0.126220703125,-0.951904296875,0.0517578125,0.5182926654815674,0.9146341681480408,0.6097561120986938,19.950000762939453,7.650000095367432,-18.899999618530273,38.971065521240234,0,
 733967,-0.1279296875,-0.953369140625,0.05712890625,0.792682945728302,1.432926893234253,0.792682945728302,20.399999618530273,6.900000095367432,-18.149999618530273,38.971065521240234,0,
 733987,-0.12744140625,-0.952392578125,0.069091796875,-0.060975611209869385,2.195122003555298,0.6097561120986938,20.549999237060547,6.300000190734863,-20.25,39.162757873535156,0,
 733997,-0.1279296875,-0.963623046875,0.072021484375,-0.792682945728302,1.5548781156539917,-0.4573170840740204,19.200000762939453,7.199999809265137,-16.950000762939453,39.2106819152832,0,
 734007,-0.135498046875,-0.955078125,0.063232421875,-1.0670732259750366,1.6768293380737305,-0.396341472864151,19.200000762939453,7.199999809265137,-16.950000762939453,39.11483383178711,0,
 734017,-0.131591796875,-0.954345703125,0.058837890625,-0.6097561120986938,2.195122003555298,-0.4268292784690857,19.950000762939453,6.449999809265137,-17.399999618530273,39.01898956298828,0,
 734027,-0.1279296875,-0.961669921875,0.064697265625,-1.0365853309631348,2.591463565826416,-0.4268292784690857,19.950000762939453,7.650000095367432,-16.649999618530273,39.11483383178711,0,
 734037,-0.13037109375,-0.959228515625,0.059814453125,-1.1585365533828735,2.3475611209869385,-0.4268292784690857,21.0,7.050000190734863,-17.25,39.162757873535156,0,
 734047,-0.13818359375,-0.968017578125,0.060791015625,-2.22560977935791,2.2560975551605225,-0.6707317233085632,21.0,7.050000190734863,-17.25,38.92314529418945,0,
 734057,-0.13134765625,-0.96484375,0.063720703125,-2.0426828861236572,2.804877996444702,-0.8536585569381714,19.049999237060547,6.599999904632568,-17.549999237060547,39.2106819152832,0,
 734067,-0.135009765625,-0.971435546875,0.06640625,-2.4390244483947754,2.6524391174316406,-0.21341463923454285,19.950000762939453,6.0,-17.700000762939453,38.77937698364258,0,
 734077,-0.130126953125,-0.9697265625,0.0654296875,-2.987804889678955,2.77439022064209,-0.9451219439506531,19.350000381469727,7.050000190734863,-17.25,38.971065521240234,0,
 734427,-0.136474609375,-0.96337890625,0.072509765625,-1.585365891456604,1.097561001777649,0.24390244483947754,20.399999618530273,7.199999809265137,-16.200000762939453,39.2106819152832,0,
 734437,-0.1318359375,-0.968017578125,0.0703125,-3.2012195587158203,1.8902438879013062,0.6402438879013062,20.399999618530273,7.199999809265137,-16.200000762939453,38.92314529418945,0,
 734447,-0.131103515625,-0.97119140625,0.072265625,-4.390244007110596,1.9512195587158203,0.030487805604934692,20.700000762939453,8.399999618530273,-18.450000762939453,39.2106819152832,0,
 734457,-0.128662109375,-0.962158203125,0.0634765625,-3.9634146690368652,2.1646342277526855,0.4573170840740204,19.950000762939453,7.199999809265137,-18.450000762939453,38.82729721069336,0,
 734468,-0.13720703125,-0.963623046875,0.05859375,-3.170731782913208,2.317073106765747,0.060975611209869385,20.549999237060547,7.800000190734863,-19.049999237060547,38.92314529418945,0,
 734478,-0.131591796875,-0.96044921875,0.056884765625,-2.2865853309631348,2.012195110321045,-0.060975611209869385,20.549999237060547,7.800000190734863,-19.049999237060547,39.11483383178711,0,
 734488,-0.12890625,-0.9580078125,0.047119140625,-1.4634146690368652,1.585365891456604,0.3658536672592163,19.200000762939453,6.900000095367432,-16.950000762939453,39.2106819152832,0,
 734498,-0.127685546875,-0.969970703125,0.0595703125,-0.8841463327407837,1.3414634466171265,0.21341463923454285,20.399999618530273,6.449999809265137,-18.450000762939453,39.11483383178711,0,
 734508,-0.126953125,-0.96728515625,0.056640625,-0.5792682766914368,0.9756097793579102,0.3353658616542816,19.350000381469727,7.050000190734863,-16.799999237060547,38.92314529418945,0,
 734518,-0.12158203125,-0.96435546875,0.0517578125,-0.24390244483947754,0.792682945728302,0.8536585569381714,19.049999237060547,7.050000190734863,-17.25,38.92314529418945,0,
 734528,-0.126220703125,-0.965087890625,0.059326171875,0.4268292784690857,0.6097561120986938,1.1585365533828735,20.700000762939453,7.650000095367432,-16.649999618530273,39.2106819152832,0,
 734538,-0.141357421875,-0.9677734375,0.051025390625,1.6158536672592163,-0.24390244483947754,1.8292683362960815,20.700000762939453,7.199999809265137,-16.950000762939453,38.92314529418945,0,
 734548,-0.129150390625,-0.967529296875,0.058837890625,1.5243902206420898,-0.27439025044441223,2.103658676147461,18.899999618530273,7.650000095367432,-18.149999618530273,39.2106819152832,0,
 734558,-0.1328125,-0.973388671875,0.06103515625,2.1341464519500732,-0.8841463327407837,1.7682926654815674,19.799999237060547,6.599999904632568,-18.75,38.92314529418945,0,
 734568,-0.12451171875,-0.971923828125,0.070068359375,2.1646342277526855,-1.402438998222351,1.920731782913208,19.799999237060547,6.599999904632568,-18.75,39.01898956298828,0,
 734578,-0.12890625,-0.965087890625,0.069091796875,1.0670732259750366,-1.3109756708145142,1.5243902206420898,18.0,7.199999809265137,-16.649999618530273,39.2106819152832,0,
 734588,-0.137939453125,-0.9619140625,0.06982421875,0.396341472864151,-1.0365853309631348,1.4634146690368652,19.649999618530273,7.199999809265137,-16.950000762939453,39.11483383178711,0,
 734598,-0.135986328125,-0.9677734375,0.074462890625,-0.21341463923454285,-0.792682945728302,1.7987805604934692,19.799999237060547,8.699999809265137,-18.0,39.11483383178711,0,
 734608,-0.139892578125,-0.952880859375,0.0654296875,-1.3719512224197388,0.27439025044441223,1.0670732259750366,19.799999237060547,8.699999809265137,-18.0,38.82729721069336,0,
 734618,-0.14306640625,-0.96728515625,0.066650390625,-1.4939024448394775,1.3109756708145142,1.3414634466171265,19.950000762939453,7.650000095367432,-15.899999618530273,38.92314529418945,0,
 734628,-0.139892578125,-0.96533203125,0.07275390625,-1.3109756708145142,1.5548781156539917,1.4939024448394775,19.350000381469727,7.800000190734863,-17.549999237060547,39.2106819152832,0,
 734638,-0.133544921875,-0.962646484375,0.06005859375,-1.7682926654815674,1.432926893234253,0.3658536672592163,18.899999618530273,6.900000095367432,-15.899999618530273,39.162757873535156,0,
 734648,-0.12890625,-0.957763671875,0.064453125,-1.3109756708145142,1.4634146690368652,0.3353658616542816,20.100000381469727,6.300000190734863,-15.75,38.92314529418945,0,
 734658,-0.134521484375,-0.956298828125,0.05322265625,-0.6707317233085632,0.7317073345184326,-0.030487805604934692,18.299999237060547,8.25,-18.299999237060547,39.162757873535156,0,
 734668,-0.1328125,-0.962890625,0.04833984375,-0.4878048896789551,0.3658536672592163,0.0,21.899999618530273,5.699999809265137,-17.399999618530273,39.2106819152832,0,
 734678,-0.1298828125,-0.959228515625,0.058837890625,0.15243902802467346,0.21341463923454285,0.27439025044441223,19.049999237060547,7.800000190734863,-17.549999237060547,39.01898956298828,0,
 734688,-0.130615234375,-0.961181640625,0.065185546875,1.25,0.15243902802467346,0.4268292784690857,20.700000762939453,7.199999809265137,-16.200000762939453,39.01898956298828,0,
 734698,-0.1318359375,-0.96435546875,0.0576171875,1.7073171138763428,-0.5182926654815674,0.792682945728302,20.700000762939453,7.199999809265137,-16.200000762939453,39.2106819152832,0,
 734708,-0.13232421875,-0.96484375,0.0595703125,1.3109756708145142,-0.5792682766914368,0.7317073345184326,19.950000762939453,6.449999809265137,-19.649999618530273,38.683528900146484,0,
 734718,-0.12841796875,-0.9619140625,0.064208984375,1.585365891456604,-0.8841463327407837,1.1585365533828735,19.200000762939453,7.650000095367432,-18.149999618530273,39.162757873535156,0,
 734728,-0.13134765625,-0.96826171875,0.0693359375,1.585365891456604,-1.097561001777649,1.2804877758026123,19.950000762939453,8.850000381469727,-16.950000762939453,39.2106819152832,0,
 734738,-0.1279296875,-0.96044921875,0.06005859375,1.1585365533828735,-1.402438998222351,0.6097561120986938,19.950000762939453,8.850000381469727,-16.950000762939453,39.01898956298828,0,
 734748,-0.135498046875,-0.97412109375,0.06884765625,1.2195122241973877,-0.9451219439506531,1.3109756708145142,20.100000381469727,7.050000190734863,-16.799999237060547,39.01898956298828,0,
 734758,-0.142333984375,-0.96923828125,0.06982421875,0.8231707215309143,-0.792682945728302,1.3109756708145142,19.049999237060547,7.5,-18.75,38.683528900146484,0,
 734768,-0.13720703125,-0.97607421875,0.0771484375,0.3048780560493469,-0.6097561120986938,0.7621951103210449,19.350000381469727,7.050000190734863,-19.049999237060547,38.971065521240234,0,
 734778,-0.144287109375,-0.9677734375,0.0693359375,-0.8841463327407837,0.12195122241973877,0.792682945728302,21.0,7.050000190734863,-18.75,39.11483383178711,0,
 734788,-0.140869140625,-0.963623046875,0.06787109375,-1.6158536672592163,0.396341472864151,0.060975611209869385,19.350000381469727,7.050000190734863,-18.0,38.92314529418945,0,
 734798,-0.139404296875,-0.971923828125,0.065673828125,-2.6524391174316406,1.1890244483947754,-0.3353658616542816,19.799999237060547,6.599999904632568,-17.25,38.92314529418945,0,
 734808,-0.136962890625,-0.9599609375,0.06103515625,-1.8597561120986938,1.3719512224197388,-0.4573170840740204,19.649999618530273,7.199999809265137,-21.450000762939453,39.2106819152832,0,
 734818,-0.132568359375,-0.9580078125,0.059814453125,-1.4634146690368652,0.8841463327407837,-0.27439025044441223,19.950000762939453,8.100000381469727,-17.399999618530273,39.01898956298828,0,
 734828,-0.12841796875,-0.96435546875,0.064208984375,-1.2195122241973877,0.9146341681480408,0.12195122241973877,19.950000762939453,8.100000381469727,-17.399999618530273,39.2106819152832,0,
 734838,-0.134521484375,-0.959716796875,0.061279296875,-0.792682945728302,0.6707317233085632,0.6402438879013062,19.200000762939453,7.199999809265137,-17.399999618530273,39.2106819152832,0,
 734848,-0.132568359375,-0.963134765625,0.059326171875,-0.7317073345184326,0.4573170840740204,1.1280487775802612,19.799999237060547,8.25,-17.549999237060547,38.92314529418945,0,
 734858,-0.13720703125,-0.96435546875,0.06689453125,-0.6097561120986938,0.0,0.5487805008888245,19.200000762939453,9.600000381469727,-17.700000762939453,39.01898956298828,0,
 734868,-0.142578125,-0.956298828125,0.06201171875,0.3353658616542816,-0.060975611209869385,0.5487805008888245,19.200000762939453,9.600000381469727,-17.700000762939453,39.01898956298828,0,
 734878,-0.135498046875,-0.954345703125,0.0703125,0.4878048896789551,-0.3048780560493469,0.4573170840740204,20.100000381469727,7.5,-17.25,38.92314529418945,0,
 734888,-0.135009765625,-0.960693359375,0.0625,0.7012194991111755,-0.3048780560493469,0.4268292784690857,19.200000762939453,7.199999809265137,-18.450000762939453,39.11483383178711,0,
 734898,-0.140625,-0.962890625,0.0615234375,0.4268292784690857,-0.3048780560493469,0.24390244483947754,19.350000381469727,7.5,-18.0,38.92314529418945,0,
 734908,-0.14599609375,-0.96337890625,0.073486328125,-0.15243902802467346,0.4573170840740204,0.6707317233085632,21.75,5.400000095367432,-19.049999237060547,39.01898956298828,0,
 734918,-0.137939453125,-0.970947265625,0.069580078125,-0.5792682766914368,0.6707317233085632,0.792682945728302,20.399999618530273,7.199999809265137,-17.700000762939453,39.11483383178711,0,
 734928,-0.13427734375,-0.970947265625,0.07275390625,-0.9756097793579102,0.9451219439506531,1.097561001777649,19.950000762939453,7.650000095367432,-18.899999618530273,39.162757873535156,0,
 734938,-0.135498046875,-0.9638671875,0.066162109375,-1.097561001777649,0.4268292784690857,0.4573170840740204,19.950000762939453,6.449999809265137,-16.950000762939453,39.11483383178711,0,
 734948,-0.131103515625,-0.960693359375,0.06103515625,-0.8231707215309143,0.6707317233085632,0.7621951103210449,21.149999618530273,8.100000381469727,-17.399999618530273,39.11483383178711,0,
 734958,-0.1396484375,-0.956787109375,0.06689453125,-0.3658536672592163,-0.030487805604934692,0.7012194991111755,21.149999618530273,8.100000381469727,-17.399999618530273,39.30652618408203,0,
 734968,-0.136962890625,-0.960693359375,0.06103515625,0.8536585569381714,-0.5182926654815674,0.21341463923454285,20.100000381469727,6.599999904632568,-16.799999237060547,39.162757873535156,0,
 734978,-0.13671875,-0.96240234375,0.06689453125,0.3353658616542816,-0.396341472864151,0.5792682766914368,20.100000381469727,7.5,-18.0,39.2106819152832,0,
 734988,-0.1376953125,-0.965087890625,0.076171875,0.060975611209869385,-0.18292683362960815,0.27439025044441223,21.149999618530273,8.100000381469727,-18.149999618530273,39.2106819152832,0,
 734998,-0.141845703125,-0.969482421875,0.0693359375,-0.9451219439506531,0.15243902802467346,-0.09146341681480408,21.149999618530273,8.100000381469727,-18.149999618530273,39.01898956298828,0,
 735008,-0.135498046875,-0.96337890625,0.0673828125,-1.6463414430618286,0.6707317233085632,0.4268292784690857,20.100000381469727,9.899999618530273,-19.5,39.2106819152832,0,
 735018,-0.130126953125,-0.9677734375,0.0634765625,-1.9512195587158203,1.25,0.4268292784690857,20.549999237060547,6.599999904632568,-17.549999237060547,38.971065521240234,0,
 735028,-0.139892578125,-0.958984375,0.064697265625,-1.9817073345184326,1.25,0.8536585569381714,20.700000762939453,6.900000095367432,-16.200000762939453,39.162757873535156,0,
 735038,-0.13720703125,-0.96337890625,0.054931640625,-1.5548781156539917,0.9451219439506531,1.1280487775802612,20.100000381469727,7.5,-17.549999237060547,39.11483383178711,0,
 735048,-0.1337890625,-0.965576171875,0.064697265625,-1.5243902206420898,0.3658536672592163,1.1280487775802612,19.049999237060547,7.050000190734863,-17.25,39.01898956298828,0,
 735058,-0.13330078125,-0.958251953125,0.058837890625,-0.9756097793579102,-0.15243902802467346,0.6707317233085632,19.799999237060547,7.050000190734863,-17.25,39.162757873535156,0,
 735068,-0.134033203125,-0.958251953125,0.061767578125,0.0,-0.060975611209869385,1.1890244483947754,19.649999618530273,8.100000381469727,-17.399999618530273,39.162757873535156,0,
 735078,-0.133056640625,-0.962158203125,0.0615234375,0.21341463923454285,-0.396341472864151,1.2804877758026123,19.950000762939453,6.900000095367432,-17.399999618530273,39.01898956298828,0,
 735088,-0.132080078125,-0.9638671875,0.06103515625,0.3658536672592163,-0.6402438879013062,1.1585365533828735,19.950000762939453,6.900000095367432,-17.399999618530273,39.11483383178711,0,
 735098,-0.134765625,-0.96337890625,0.065673828125,0.4878048896789551,-0.5487805008888245,1.2804877758026123,20.549999237060547,7.800000190734863,-17.25,39.01898956298828,0,
 735108,-0.1328125,-0.96484375,0.0673828125,0.09146341681480408,-0.4878048896789551,1.4634146690368652,19.350000381469727,7.5,-18.0,39.01898956298828,0,
 735118,-0.138916015625,-0.969482421875,0.07275390625,-0.7621951103210449,-0.27439025044441223,1.3719512224197388,20.700000762939453,5.699999809265137,-18.149999618530273,39.162757873535156,0,
 735128,-0.137451171875,-0.95849609375,0.0615234375,-1.0365853309631348,-0.18292683362960815,1.4939024448394775,20.700000762939453,5.699999809265137,-18.149999618530273,39.11483383178711,0,
 735138,-0.1376953125,-0.958740234375,0.0625,-1.3414634466171265,0.3353658616542816,1.0670732259750366,18.899999618530273,7.650000095367432,-18.149999618530273,39.2106819152832,0,
 735148,-0.140380859375,-0.95703125,0.05859375,-1.4634146690368652,0.9451219439506531,1.25,20.100000381469727,7.800000190734863,-19.799999237060547,38.683528900146484,0,
 735158,-0.14306640625,-0.954345703125,0.06884765625,-1.1890244483947754,0.792682945728302,1.0060975551605225,19.350000381469727,6.599999904632568,-18.299999237060547,39.11483383178711,0,
 735168,-0.13623046875,-0.9638671875,0.072265625,-1.3719512224197388,1.7682926654815674,0.3658536672592163,19.350000381469727,6.599999904632568,-18.299999237060547,39.2106819152832,0,
 735178,-0.137451171875,-0.9609375,0.063720703125,-1.4634146690368652,1.402438998222351,0.3658536672592163,20.100000381469727,7.800000190734863,-18.0,39.01898956298828,0,
 735188,-0.13427734375,-0.95458984375,0.052978515625,-1.6768293380737305,1.432926893234253,0.15243902802467346,19.049999237060547,6.300000190734863,-17.549999237060547,39.30652618408203,0,
 735198,-0.1328125,-0.954345703125,0.053466796875,-1.3719512224197388,1.432926893234253,0.18292683362960815,19.649999618530273,7.199999809265137,-18.899999618530273,39.01898956298828,0,
 735209,-0.137451171875,-0.956787109375,0.056884765625,-0.7621951103210449,1.3109756708145142,0.0,19.799999237060547,8.699999809265137,-17.549999237060547,39.11483383178711,0,
 735219,-0.13671875,-0.957275390625,0.0576171875,-0.030487805604934692,0.9146341681480408,-0.4573170840740204,19.799999237060547,8.699999809265137,-17.549999237060547,39.2106819152832,0,
 735229,-0.136962890625,-0.9677734375,0.06201171875,0.9756097793579102,0.9756097793579102,-0.030487805604934692,19.049999237060547,6.300000190734863,-16.799999237060547,39.2106819152832,0,
 735239,-0.138916015625,-0.9677734375,0.06201171875,1.0060975551605225,0.27439025044441223,0.09146341681480408,19.950000762939453,6.449999809265137,-18.149999618530273,39.11483383178711,0,
 735249,-0.132568359375,-0.973388671875,0.068603515625,0.7317073345184326,-0.12195122241973877,0.4573170840740204,19.950000762939453,7.199999809265137,-17.399999618530273,39.162757873535156,0,
 735259,-0.1318359375,-0.978271484375,0.062744140625,0.6707317233085632,-0.12195122241973877,0.7621951103210449,19.950000762939453,7.199999809265137,-17.399999618530273,39.01898956298828,0,
 735269,-0.135986328125,-0.970458984375,0.06689453125,0.060975611209869385,0.09146341681480408,1.0670732259750366,19.799999237060547,8.699999809265137,-18.0,38.971065521240234,0,
 735279,-0.142578125,-0.9638671875,0.06689453125,-0.21341463923454285,-0.030487805604934692,0.9451219439506531,19.200000762939453,7.199999809265137,-18.149999618530273,39.11483383178711,0,
 735289,-0.1337890625,-0.960205078125,0.06494140625,-0.4573170840740204,0.3048780560493469,1.432926893234253,19.049999237060547,8.25,-17.25,38.92314529418945,0,
 735299,-0.13525390625,-0.964111328125,0.068115234375,-0.4573170840740204,-0.09146341681480408,1.0060975551605225,19.049999237060547,8.25,-17.25,39.2106819152832,0,
 735309,-0.14404296875,-0.959228515625,0.0673828125,-0.5792682766914368,-0.15243902802467346,0.5792682766914368,18.899999618530273,6.449999809265137,-16.200000762939453,39.162757873535156,0,
 735319,-0.14013671875,-0.955322265625,0.060546875,-0.4573170840740204,0.0,0.396341472864151,18.899999618530273,4.949999809265137,-18.450000762939453,38.971065521240234,0,
 735329,-0.1357421875,-0.96142578125,0.061279296875,-0.4878048896789551,0.030487805604934692,-0.24390244483947754,19.649999618530273,7.199999809265137,-19.200000762939453,39.162757873535156,0,
 735339,-0.1396484375,-0.958251953125,0.0634765625,-0.7012194991111755,0.4268292784690857,-0.15243902802467346,19.799999237060547,7.050000190734863,-17.25,38.82729721069336,0,
 735349,-0.14013671875,-0.954833984375,0.060302734375,-0.6097561120986938,0.7621951103210449,-0.18292683362960815,19.799999237060547,7.050000190734863,-17.25,39.11483383178711,0,
 735359,-0.145751953125,-0.960205078125,0.06005859375,-0.396341472864151,1.0365853309631348,-0.09146341681480408,17.700000762939453,7.650000095367432,-18.899999618530273,39.2106819152832,0,
 735369,-0.134765625,-0.962158203125,0.06787109375,-0.6707317233085632,1.4939024448394775,-0.24390244483947754,20.100000381469727,8.699999809265137,-17.25,39.2106819152832,0,
 735379,-0.142333984375,-0.965087890625,0.0693359375,-0.5792682766914368,1.2804877758026123,0.3353658616542816,19.350000381469727,7.5,-18.75,39.11483383178711,0,
 735389,-0.138916015625,-0.9677734375,0.060302734375,-0.9756097793579102,1.2195122241973877,0.24390244483947754,19.350000381469727,7.5,-18.75,39.01898956298828,0,
 735399,-0.135009765625,-0.96337890625,0.056640625,-0.15243902802467346,0.8231707215309143,0.3658536672592163,19.649999618530273,6.0,-17.399999618530273,39.11483383178711,0,
 735409,-0.128662109375,-0.957763671875,0.06103515625,0.030487805604934692,0.4573170840740204,0.4268292784690857,21.0,7.5,-17.25,38.971065521240234,0,
 735419,-0.137451171875,-0.95654296875,0.05810546875,0.8841463327407837,-0.3658536672592163,0.7317073345184326,20.399999618530273,8.399999618530273,-20.399999618530273,39.2106819152832,0,
 735429,-0.126220703125,-0.962158203125,0.06103515625,1.4634146690368652,-0.6707317233085632,0.5182926654815674,20.399999618530273,8.399999618530273,-20.399999618530273,39.2106819152832,0,
 735439,-0.133056640625,-0.973388671875,0.0634765625,1.4939024448394775,-1.2804877758026123,0.6402438879013062,19.799999237060547,6.599999904632568,-16.5,38.92314529418945,0,
 735449,-0.1416015625,-0.96240234375,0.068603515625,0.396341472864151,-1.5243902206420898,0.7012194991111755,19.049999237060547,7.050000190734863,-19.049999237060547,39.11483383178711,0,
 735459,-0.136474609375,-0.967041015625,0.07373046875,0.27439025044441223,-1.6768293380737305,0.9146341681480408,19.950000762939453,6.449999809265137,-16.950000762939453,39.162757873535156,0,
 735469,-0.145751953125,-0.96484375,0.065185546875,0.030487805604934692,-1.9817073345184326,0.8841463327407837,20.399999618530273,8.399999618530273,-18.899999618530273,39.11483383178711,0,
 735479,-0.140869140625,-0.96826171875,0.063232421875,-0.9451219439506531,-1.7682926654815674,0.6707317233085632,20.399999618530273,8.399999618530273,-18.899999618530273,39.01898956298828,0,
 735489,-0.14404296875,-0.96484375,0.06982421875,-0.15243902802467346,-1.0365853309631348,0.5487805008888245,18.450000762939453,8.850000381469727,-18.149999618530273,38.82729721069336,0,
 735499,-0.138916015625,-0.968017578125,0.070556640625,0.060975611209869385,-0.18292683362960815,-0.030487805604934692,19.950000762939453,7.650000095367432,-16.950000762939453,39.01898956298828,0,
 735509,-0.135009765625,-0.95849609375,0.064453125,-0.3658536672592163,0.18292683362960815,0.3353658616542816,19.200000762939453,6.900000095367432,-17.700000762939453,39.2106819152832,0,
 735519,-0.139892578125,-0.96826171875,0.066650390625,-0.4268292784690857,0.5792682766914368,0.24390244483947754,19.200000762939453,6.900000095367432,-17.700000762939453,39.01898956298828,0,
 735529,-0.135498046875,-0.955078125,0.055908203125,-0.18292683362960815,0.7621951103210449,0.396341472864151,19.200000762939453,8.100000381469727,-19.649999618530273,38.82729721069336,0,
 735539,-0.133056640625,-0.959716796875,0.070556640625,0.4268292784690857,0.8231707215309143,0.4268292784690857,19.350000381469727,7.5,-16.049999237060547,38.971065521240234,0,
 735549,-0.1318359375,-0.955322265625,0.06396484375,-0.3048780560493469,0.3353658616542816,0.4573170840740204,18.899999618530273,7.199999809265137,-17.700000762939453,39.30652618408203,0,
 735559,-0.133056640625,-0.966796875,0.058837890625,-0.18292683362960815,0.4573170840740204,0.8536585569381714,18.899999618530273,7.199999809265137,-17.700000762939453,39.11483383178711,0,
 735569,-0.134033203125,-0.962158203125,0.067138671875,0.3353658616542816,0.09146341681480408,0.792682945728302,19.200000762939453,8.399999618530273,-18.149999618530273,39.11483383178711,0,
 735579,-0.139404296875,-0.9619140625,0.0693359375,0.0,-0.4878048896789551,0.8231707215309143,19.350000381469727,7.800000190734863,-18.0,39.2106819152832,0,
 735589,-0.137939453125,-0.960205078125,0.06640625,-0.18292683362960815,-0.6097561120986938,0.8231707215309143,20.700000762939453,8.100000381469727,-16.950000762939453,38.971065521240234,0,
 735599,-0.140869140625,-0.965087890625,0.072509765625,0.12195122241973877,-0.7621951103210449,0.6402438879013062,19.649999618530273,8.100000381469727,-18.450000762939453,39.2106819152832,0,
 735609,-0.137939453125,-0.9658203125,0.06689453125,-0.6402438879013062,-1.0060975551605225,0.5182926654815674,19.649999618530273,8.100000381469727,-18.450000762939453,39.11483383178711,0,
 735619,-0.14599609375,-0.966064453125,0.0693359375,-1.1585365533828735,-0.792682945728302,0.9451219439506531,19.649999618530273,8.100000381469727,-18.450000762939453,38.92314529418945,0,
 735629,-0.14697265625,-0.965087890625,0.06689453125,-1.0670732259750366,-0.8536585569381714,0.5182926654815674,19.950000762939453,6.449999809265137,-17.399999618530273,39.2106819152832,0,
 735639,-0.144287109375,-0.966064453125,0.0732421875,-1.4634146690368652,-0.27439025044441223,0.9756097793579102,19.799999237060547,7.5,-17.25,38.971065521240234,0,
 735649,-0.142822265625,-0.960693359375,0.06591796875,-1.7682926654815674,0.15243902802467346,0.4573170840740204,19.799999237060547,7.5,-17.25,39.35445022583008,0,
 735659,-0.143310546875,-0.962890625,0.072021484375,-1.4634146690368652,0.4573170840740204,1.3109756708145142,20.100000381469727,9.0,-16.799999237060547,38.971065521240234,0,
 735669,-0.14306640625,-0.96484375,0.06787109375,-1.8292683362960815,0.18292683362960815,1.0365853309631348,19.950000762939453,6.900000095367432,-16.950000762939453,38.92314529418945,0,
 735679,-0.141845703125,-0.95458984375,0.058837890625,-1.3719512224197388,0.7012194991111755,0.8231707215309143,20.399999618530273,8.399999618530273,-16.649999618530273,38.971065521240234,0,
 735689,-0.13623046875,-0.96435546875,0.0625,-0.7621951103210449,0.5487805008888245,1.1585365533828735,20.399999618530273,8.399999618530273,-16.649999618530273,39.2106819152832,0,
 735699,-0.1435546875,-0.955322265625,0.067626953125,-0.9756097793579102,0.3353658616542816,0.5487805008888245,20.549999237060547,6.599999904632568,-18.299999237060547,39.01898956298828,0,
 735709,-0.130859375,-0.951171875,0.0576171875,-0.6402438879013062,0.3048780560493469,0.9146341681480408,19.649999618530273,6.0,-17.700000762939453,39.11483383178711,0,
 735719,-0.132568359375,-0.957763671875,0.061279296875,-0.4878048896789551,-0.09146341681480408,0.4878048896789551,19.950000762939453,8.850000381469727,-17.399999618530273,39.01898956298828,0,
 735729,-0.134765625,-0.9599609375,0.06787109375,-0.7621951103210449,-0.5792682766914368,0.7621951103210449,19.799999237060547,7.050000190734863,-19.049999237060547,38.683528900146484,0,
 735739,-0.14013671875,-0.961181640625,0.06396484375,-0.9146341681480408,-0.3658536672592163,0.9451219439506531,19.200000762939453,6.0,-16.649999618530273,38.971065521240234,0,
 735749,-0.138916015625,-0.957275390625,0.056884765625,-0.7317073345184326,-0.12195122241973877,1.3414634466171265,20.549999237060547,7.050000190734863,-16.799999237060547,39.01898956298828,0,
 735759,-0.13916015625,-0.96240234375,0.068359375,-1.097561001777649,-0.060975611209869385,1.8902438879013062,18.899999618530273,8.399999618530273,-17.700000762939453,39.162757873535156,0,
 735769,-0.146240234375,-0.967529296875,0.06494140625,-1.1890244483947754,0.24390244483947754,1.3719512224197388,21.0,6.599999904632568,-16.5,39.2106819152832,0,
 735779,-0.145263671875,-0.96484375,0.067138671875,-1.585365891456604,0.5487805008888245,0.8841463327407837,21.0,6.599999904632568,-16.5,38.971065521240234,0,
 735789,-0.144775390625,-0.9609375,0.063232421875,-1.402438998222351,0.7317073345184326,0.3658536672592163,19.049999237060547,7.050000190734863,-18.299999237060547,39.30652618408203,0,
 735799,-0.14404296875,-0.963134765625,0.068603515625,-0.9146341681480408,0.8841463327407837,0.6707317233085632,21.149999618530273,7.199999809265137,-17.399999618530273,38.971065521240234,0,
 735809,-0.1435546875,-0.964111328125,0.06201171875,-1.0365853309631348,0.8231707215309143,0.0,21.0,7.050000190734863,-17.25,39.30652618408203,0,
 735819,-0.142822265625,-0.960205078125,0.0595703125,-0.27439025044441223,0.6402438879013062,0.12195122241973877,21.0,7.050000190734863,-17.25,39.2106819152832,0,
 735829,-0.140625,-0.959228515625,0.061279296875,-0.3353658616542816,0.9146341681480408,-0.24390244483947754,22.799999237060547,7.800000190734863,-18.75,38.82729721069336,0,
 735839,-0.132568359375,-0.959228515625,0.059814453125,-0.5182926654815674,1.1280487775802612,0.18292683362960815,19.200000762939453,7.650000095367432,-16.950000762939453,39.2106819152832,0,
 735849,-0.137939453125,-0.95947265625,0.061767578125,-1.1890244483947754,1.6158536672592163,0.7012194991111755,19.350000381469727,7.050000190734863,-19.5,39.11483383178711,0,
 735859,-0.14453125,-0.970703125,0.062255859375,-1.7073171138763428,1.8902438879013062,1.2804877758026123,18.899999618530273,7.199999809265137,-18.149999618530273,39.35445022583008,0,
 735869,-0.14111328125,-0.95556640625,0.05859375,-1.5548781156539917,1.6158536672592163,1.9512195587158203,20.399999618530273,6.900000095367432,-18.149999618530273,39.01898956298828,0,
 735879,-0.135009765625,-0.9638671875,0.064208984375,-0.8841463327407837,1.4634146690368652,2.22560977935791,20.549999237060547,6.300000190734863,-17.25,38.82729721069336,0,
 735889,-0.1435546875,-0.959716796875,0.05859375,-0.9451219439506531,0.7317073345184326,2.378048896789551,19.200000762939453,8.399999618530273,-18.450000762939453,39.11483383178711,0,
 735899,-0.140380859375,-0.957763671875,0.05419921875,-0.27439025044441223,0.15243902802467346,1.3719512224197388,20.399999618530273,8.399999618530273,-17.399999618530273,39.01898956298828,0,
 735910,-0.139404296875,-0.962646484375,0.065673828125,0.6707317233085632,0.12195122241973877,1.3719512224197388,20.399999618530273,8.399999618530273,-17.399999618530273,39.11483383178711,0,
 735920,-0.146728515625,-0.96240234375,0.059814453125,0.7317073345184326,0.09146341681480408,0.5792682766914368,21.0,7.5,-17.549999237060547,39.2106819152832,0,
 735930,-0.1435546875,-0.9658203125,0.06494140625,0.8536585569381714,0.21341463923454285,1.1280487775802612,20.399999618530273,9.300000190734863,-19.200000762939453,38.92314529418945,0,
 735940,-0.141845703125,-0.962158203125,0.065185546875,0.060975611209869385,0.5487805008888245,1.0060975551605225,19.799999237060547,7.050000190734863,-17.549999237060547,38.92314529418945,0,
 735950,-0.139892578125,-0.96826171875,0.06494140625,-0.060975611209869385,0.9451219439506531,1.0670732259750366,19.799999237060547,7.050000190734863,-17.549999237060547,39.35445022583008,0,
 735960,-0.1376953125,-0.97021484375,0.069580078125,-0.6097561120986938,1.4634146690368652,1.7987805604934692,20.100000381469727,6.300000190734863,-16.799999237060547,39.11483383178711,0,
 735970,-0.139892578125,-0.963623046875,0.072021484375,-1.2804877758026123,1.6768293380737305,2.378048896789551,19.350000381469727,6.599999904632568,-18.0,39.01898956298828,0,
 735980,-0.14697265625,-0.95703125,0.062255859375,-2.0731706619262695,1.25,2.0426828861236572,21.149999618530273,6.0,-18.149999618530273,38.971065521240234,0,
 735990,-0.142822265625,-0.9609375,0.06591796875,-2.22560977935791,1.3719512224197388,2.1646342277526855,20.700000762939453,8.100000381469727,-17.399999618530273,39.11483383178711,0,
 736000,-0.14111328125,-0.95947265625,0.06103515625,-1.7987805604934692,0.7317073345184326,1.4634146690368652,19.649999618530273,8.100000381469727,-18.149999618530273,38.92314529418945,0,
 736010,-0.14404296875,-0.956298828125,0.056396484375,-1.5243902206420898,0.5487805008888245,0.8231707215309143,20.100000381469727,6.599999904632568,-17.25,39.11483383178711,0,
 736020,-0.14453125,-0.95654296875,0.05810546875,-1.0060975551605225,0.6707317233085632,1.0365853309631348,21.0,7.5,-18.0,38.971065521240234,0,
 736030,-0.143310546875,-0.9580078125,0.059326171875,-0.396341472864151,1.0365853309631348,0.4878048896789551,19.350000381469727,7.800000190734863,-17.549999237060547,38.77937698364258,0,
 736040,-0.143798828125,-0.958984375,0.06689453125,-0.792682945728302,1.0670732259750366,0.4573170840740204,19.350000381469727,7.800000190734863,-17.549999237060547,39.2106819152832,0,
 736050,-0.135009765625,-0.9599609375,0.05712890625,-1.0365853309631348,1.25,0.4878048896789551,21.75,6.599999904632568,-17.549999237060547,39.35445022583008,0,
 736060,-0.13916015625,-0.96728515625,0.063720703125,-1.0670732259750366,1.25,1.0060975551605225,20.100000381469727,7.050000190734863,-17.25,39.2106819152832,0,
 736070,-0.143798828125,-0.9658203125,0.067138671875,-1.402438998222351,1.7073171138763428,1.5548781156539917,19.350000381469727,7.050000190734863,-18.75,39.30652618408203,0,
 736080,-0.139404296875,-0.962646484375,0.0654296875,-1.6463414430618286,1.7987805604934692,2.4695122241973877,19.350000381469727,7.050000190734863,-18.75,38.92314529418945,0,
 736090,-0.148681640625,-0.97412109375,0.063720703125,-1.6768293380737305,1.4939024448394775,3.1097562313079834,19.649999618530273,7.199999809265137,-17.700000762939453,39.11483383178711,0,
 736100,-0.14453125,-0.966552734375,0.061279296875,-2.2865853309631348,1.3414634466171265,2.591463565826416,20.100000381469727,7.050000190734863,-16.799999237060547,39.2106819152832,0,
 736110,-0.1396484375,-0.962890625,0.061767578125,-2.378048896789551,0.8841463327407837,2.804877996444702,19.799999237060547,7.050000190734863,-16.049999237060547,39.30652618408203,0,
 736120,-0.15087890625,-0.960205078125,0.056640625,-2.012195110321045,0.09146341681480408,2.2560975551605225,19.799999237060547,7.050000190734863,-16.049999237060547,39.11483383178711,0,
 736130,-0.150390625,-0.953369140625,0.0517578125,-1.7987805604934692,-0.060975611209869385,1.8292683362960815,19.799999237060547,5.849999904632568,-17.25,39.11483383178711,0,
 736140,-0.145751953125,-0.959716796875,0.058837890625,-0.9146341681480408,0.0,1.920731782913208,20.549999237060547,7.5,-21.299999237060547,39.2106819152832,0,
 736150,-0.149169921875,-0.9638671875,0.060791015625,-0.7012194991111755,0.5182926654815674,1.432926893234253,21.75,6.300000190734863,-16.5,38.92314529418945,0,
 736160,-0.149658203125,-0.970947265625,0.06982421875,-2.0426828861236572,0.9756097793579102,1.3719512224197388,19.950000762939453,6.0,-14.699999809265137,39.11483383178711,0,
 736170,-0.154296875,-0.96337890625,0.066650390625,-2.804877996444702,1.0365853309631348,1.0060975551605225,19.950000762939453,6.0,-14.699999809265137,39.01898956298828,0,
 736180,-0.14892578125,-0.96728515625,0.062744140625,-2.896341562271118,1.3414634466171265,0.8841463327407837,20.399999618530273,6.0,-18.149999618530273,39.01898956298828,0,
 736190,-0.150390625,-0.955810546875,0.05126953125,-2.0426828861236572,1.8597561120986938,0.3658536672592163,21.0,7.050000190734863,-17.549999237060547,39.2106819152832,0,
 736200,-0.144287109375,-0.958251953125,0.052978515625,-2.012195110321045,1.8597561120986938,0.4573170840740204,21.299999237060547,8.25,-17.25,39.2106819152832,0,
 736210,-0.14599609375,-0.953369140625,0.0498046875,-1.402438998222351,1.4939024448394775,0.0,21.299999237060547,8.25,-17.25,39.2106819152832,0,
 736220,-0.1474609375,-0.96337890625,0.05810546875,-1.6463414430618286,1.8292683362960815,0.18292683362960815,20.100000381469727,6.300000190734863,-16.799999237060547,39.11483383178711,0,
 736230,-0.1435546875,-0.962890625,0.06689453125,-2.4390244483947754,2.012195110321045,0.18292683362960815,21.75,5.849999904632568,-16.799999237060547,39.01898956298828,0,
 736240,-0.149658203125,-0.953857421875,0.04931640625,-1.920731782913208,2.1341464519500732,0.24390244483947754,21.75,8.699999809265137,-20.549999237060547,39.162757873535156,0,
 736250,-0.14697265625,-0.954345703125,0.0556640625,-2.0731706619262695,2.8353660106658936,0.8841463327407837,21.75,8.699999809265137,-20.549999237060547,39.2106819152832,0,
 736260,-0.143310546875,-0.950439453125,0.05224609375,-1.4634146690368652,2.6524391174316406,1.2195122241973877,20.549999237060547,7.5,-17.549999237060547,38.82729721069336,0,
 736270,-0.143798828125,-0.961669921875,0.04833984375,-1.097561001777649,2.4695122241973877,1.7682926654815674,20.399999618530273,7.199999809265137,-16.649999618530273,38.92314529418945,0,
 736280,-0.140625,-0.963623046875,0.060546875,-0.6097561120986938,2.408536672592163,2.77439022064209,21.450000762939453,5.25,-18.149999618530273,39.30652618408203,0,
 736290,-0.148681640625,-0.96923828125,0.064208984375,-1.3109756708145142,0.8231707215309143,1.1585365533828735,19.350000381469727,6.300000190734863,-16.049999237060547,39.2106819152832,0,
 736300,-0.1552734375,-0.961669921875,0.04833984375,0.15243902802467346,0.6097561120986938,0.8536585569381714,19.350000381469727,6.300000190734863,-16.049999237060547,39.35445022583008,0,
 736310,-0.14794921875,-0.951171875,0.04541015625,0.5487805008888245,0.396341472864151,0.9451219439506531,20.549999237060547,5.400000095367432,-16.5,39.162757873535156,0,
 736320,-0.147216796875,-0.97021484375,0.060791015625,0.8231707215309143,-0.4573170840740204,0.8536585569381714,20.549999237060547,7.5,-18.75,39.01898956298828,0,
 736330,-0.155517578125,-0.97412109375,0.0654296875,-0.27439025044441223,-0.396341472864151,1.4634146690368652,21.0,7.050000190734863,-17.549999237060547,39.2106819152832,0,
 736340,-0.151123046875,-0.962646484375,0.055908203125,-0.7317073345184326,-0.3658536672592163,1.0365853309631348,21.0,7.050000190734863,-17.549999237060547,39.01898956298828,0,
 736350,-0.15087890625,-0.965576171875,0.05615234375,-0.3353658616542816,-0.5182926654815674,1.1585365533828735,19.799999237060547,5.400000095367432,-18.0,39.2106819152832,0,
 736360,-0.151123046875,-0.968017578125,0.060302734375,-0.5792682766914368,-0.4573170840740204,1.3719512224197388,19.950000762939453,7.199999809265137,-17.700000762939453,39.2106819152832,0,
 736370,-0.149169921875,-0.95556640625,0.051025390625,-0.7012194991111755,-0.396341472864151,1.920731782913208,19.200000762939453,6.900000095367432,-16.950000762939453,38.82729721069336,0,
 736380,-0.147705078125,-0.958251953125,0.053955078125,0.060975611209869385,0.09146341681480408,2.103658676147461,19.200000762939453,6.900000095367432,-16.950000762939453,39.2106819152832,0,
 736390,-0.154541015625,-0.970458984375,0.064208984375,-0.18292683362960815,0.4268292784690857,2.6219513416290283,20.700000762939453,6.900000095367432,-16.950000762939453,39.11483383178711,0,
 736400,-0.14892578125,-0.96142578125,0.064208984375,-0.9756097793579102,1.1585365533828735,2.9268293380737305,21.149999618530273,6.449999809265137,-16.200000762939453,39.162757873535156,0,
 736410,-0.161376953125,-0.957763671875,0.058837890625,-2.0426828861236572,1.2804877758026123,2.4390244483947754,20.700000762939453,4.949999809265137,-16.200000762939453,39.30652618408203,0,
 736420,-0.154296875,-0.94775390625,0.051513671875,-2.22560977935791,1.7682926654815674,2.012195110321045,21.0,7.800000190734863,-17.25,39.01898956298828,0,
 736430,-0.149169921875,-0.9482421875,0.048095703125,-2.103658676147461,1.9817073345184326,2.2865853309631348,21.0,7.800000190734863,-17.25,39.162757873535156,0,
 736440,-0.151123046875,-0.94873046875,0.055419921875,-1.9512195587158203,1.8902438879013062,2.4695122241973877,19.799999237060547,7.050000190734863,-16.799999237060547,39.35445022583008,0,
 736450,-0.148681640625,-0.964111328125,0.058837890625,-1.8902438879013062,3.170731782913208,2.8353660106658936,19.350000381469727,6.300000190734863,-16.5,39.162757873535156,0,
 736460,-0.153564453125,-0.95361328125,0.046875,-1.5548781156539917,2.3475611209869385,2.5609755516052246,20.100000381469727,7.800000190734863,-16.799999237060547,39.11483383178711,0,
 736470,-0.152099609375,-0.96044921875,0.0546875,-0.7621951103210449,2.3475611209869385,2.317073106765747,20.100000381469727,7.800000190734863,-16.799999237060547,38.92314529418945,0,
 736480,-0.152587890625,-0.96875,0.06591796875,-0.4573170840740204,1.920731782913208,3.445122003555298,20.399999618530273,6.0,-16.950000762939453,39.2106819152832,0,
 736490,-0.151611328125,-0.981201171875,0.065185546875,-1.4634146690368652,1.1280487775802612,3.658536672592163,19.950000762939453,6.900000095367432,-17.399999618530273,39.2106819152832,0,
 736500,-0.14990234375,-0.9990234375,0.07275390625,-1.9512195587158203,0.8536585569381714,5.54878044128418,20.100000381469727,6.300000190734863,-16.799999237060547,39.2106819152832,0,
 736510,-0.148193359375,-1.007080078125,0.0673828125,-4.72560977935791,0.4268292784690857,7.378048896789551,20.100000381469727,6.300000190734863,-16.799999237060547,39.35445022583008,0,
 736520,-0.13330078125,-1.044677734375,0.052490234375,-7.804878234863281,-1.6158536672592163,10.640244483947754,21.149999618530273,6.449999809265137,-16.649999618530273,38.82729721069336,0,
 736530,-0.12158203125,-1.06591796875,0.048583984375,-12.042683601379395,-3.5060975551605225,16.310976028442383,19.200000762939453,4.949999809265137,-18.450000762939453,39.11483383178711,0,
 736540,-0.13720703125,-1.059326171875,0.050537109375,-17.10365867614746,-6.737804889678955,24.878049850463867,21.0,5.849999904632568,-18.299999237060547,38.92314529418945,0,
 736550,-0.147705078125,-1.112060546875,0.050537109375,-20.487804412841797,-7.896341800689697,35.975608825683594,21.0,5.099999904632568,-16.799999237060547,38.92314529418945,0,
 736560,-0.151123046875,-1.111328125,0.03564453125,-21.95121955871582,-10.030488014221191,47.621952056884766,21.0,5.099999904632568,-16.799999237060547,39.450294494628906,0,
 736570,-0.17138671875,-1.103759765625,0.000244140625,-18.689023971557617,-15.640244483947754,57.04268264770508,22.200000762939453,6.0,-15.149999618530273,38.82729721069336,0,
 736580,-0.184326171875,-1.1064453125,0.002685546875,-16.09756088256836,-20.2439022064209,66.28048706054688,21.899999618530273,5.699999809265137,-15.149999618530273,39.01898956298828,0,
 736590,-0.217041015625,-1.139892578125,0.0146484375,-17.68292808532715,-22.621952056884766,76.55487823486328,22.200000762939453,5.699999809265137,-16.950000762939453,39.162757873535156,0,
 736600,-0.26904296875,-1.093505859375,0.034423828125,-28.9939022064209,-22.408536911010742,84.0243911743164,22.200000762939453,5.699999809265137,-16.950000762939453,39.2106819152832,0,
 736610,-0.221435546875,-1.02490234375,0.02294921875,-44.42073440551758,-18.44512176513672,86.85975646972656,24.600000381469727,4.050000190734863,-15.449999809265137,38.92314529418945,0,
 736620,-0.2470703125,-0.95703125,0.03857421875,-49.17683029174805,-17.68292808532715,84.4817123413086,24.899999618530273,4.050000190734863,-15.899999618530273,39.01898956298828,0,
 736630,-0.315673828125,-0.861083984375,-0.021240234375,-65.33536529541016,-11.006097793579102,82.83536529541016,25.950000762939453,3.9000000953674316,-15.300000190734863,39.2106819152832,0,
 736641,-0.400634765625,-0.852294921875,-0.119140625,-95.76219940185547,4.146341323852539,106.31098175048828,25.950000762939453,3.9000000953674316,-15.300000190734863,39.2106819152832,0,
 736651,-0.066650390625,-1.153076171875,0.127685546875,-132.86585998535156,12.317073822021484,126.58536529541016,26.549999237060547,2.0999999046325684,-18.450000762939453,39.11483383178711,0,
 736661,0.102294921875,-1.015625,0.341796875,-127.1036605834961,-13.140244483947754,111.03659057617188,26.100000381469727,2.8499999046325684,-15.149999618530273,38.92314529418945,0,
 736671,-0.19189453125,-0.678955078125,0.15869140625,-91.21951293945312,-16.341463088989258,99.84756469726562,26.100000381469727,1.649999976158142,-14.399999618530273,39.11483383178711,0,
 736681,-0.033203125,-0.763427734375,0.01953125,-75.79268646240234,-5.121951103210449,134.02439880371094,26.850000381469727,-1.350000023841858,-12.449999809265137,39.01898956298828,0,
 736691,-0.026611328125,-0.87353515625,-0.049072265625,-78.41463470458984,-6.341463565826416,152.6829376220703,26.850000381469727,-1.350000023841858,-12.449999809265137,38.971065521240234,0,
 736701,-0.091064453125,-0.686767578125,-0.16943359375,-56.95122146606445,-10.396341323852539,161.31097412109375,29.100000381469727,-0.44999998807907104,-12.149999618530273,39.162757873535156,0,
 736711,-0.20263671875,-0.521240234375,-0.246826171875,-20.94512176513672,-7.743902683258057,167.22561645507812,29.549999237060547,-1.350000023841858,-13.199999809265137,39.01898956298828,0,
 736721,-0.37255859375,-0.560546875,-0.2666015625,10.030488014221191,-8.963415145874023,159.81707763671875,30.149999618530273,-0.75,-12.300000190734863,39.2106819152832,0,
 736731,-1.638916015625,-3.3583984375,-0.777587890625,-143.6280517578125,38.871952056884766,33.10975646972656,30.149999618530273,-0.75,-12.300000190734863,38.971065521240234,0,
 736741,-1.388427734375,-0.107666015625,-0.790283203125,-88.6280517578125,-52.713417053222656,-38.84146499633789,31.649999618530273,-3.1500000953674316,-13.050000190734863,39.2106819152832,0,
 736751,-1.44287109375,0.59033203125,0.211669921875,28.109756469726562,7.0731706619262695,75.03048706054688,31.200000762939453,-2.25,-15.300000190734863,39.11483383178711,0,
 736761,-0.380615234375,-0.50390625,-0.35595703125,56.7378044128418,-29.664634704589844,40.79268264770508,32.849998474121094,-4.650000095367432,-12.0,38.63560485839844,0,
 736771,-0.273681640625,-0.968017578125,-0.14599609375,-7.195122241973877,-2.804877996444702,21.64634132385254,32.849998474121094,-4.650000095367432,-12.0,39.2106819152832,0,
 736781,-0.369140625,-0.58251953125,-0.110595703125,-23.53658676147461,-3.170731782913208,24.23780632019043,31.799999237060547,-3.75,-13.199999809265137,39.35445022583008,0,
 736791,-0.08056640625,-0.555908203125,0.01806640625,-8.841464042663574,-4.207317352294922,4.542683124542236,31.200000762939453,-3.9000000953674316,-12.0,39.2106819152832,0,
 736801,-0.220458984375,-0.685302734375,0.103271484375,14.634146690368652,-15.670732498168945,-9.542683601379395,31.950000762939453,-5.099999904632568,-13.050000190734863,39.11483383178711,0,
 736811,-0.595458984375,-0.8017578125,-0.082763671875,5.54878044128418,-23.018293380737305,-11.25,31.950000762939453,-5.400000095367432,-12.75,39.01898956298828,0,
 736821,-0.86376953125,-0.718505859375,-0.096923828125,-11.890244483947754,-15.182927131652832,-10.243902206420898,31.950000762939453,-5.400000095367432,-12.75,39.162757873535156,0,
 736831,-0.730712890625,-0.621337890625,0.006591796875,-10.640244483947754,-2.6219513416290283,-22.591463088989258,32.54999923706055,-4.949999809265137,-13.949999809265137,39.2106819152832,0,
 736841,-0.616943359375,-0.74267578125,0.032470703125,6.6768293380737305,0.21341463923454285,-26.341463088989258,32.849998474121094,-4.349999904632568,-13.050000190734863,38.92314529418945,0,
 736851,-0.5341796875,-0.892333984375,0.01708984375,15.579268455505371,6.402439117431641,-18.35365867614746,32.25,-4.5,-12.149999618530273,39.2106819152832,0,
 736861,-0.525146484375,-0.891357421875,-0.023681640625,20.54878044128418,6.371951580047607,-23.5060977935791,32.25,-4.5,-12.149999618530273,38.92314529418945,0,
 736871,-0.522216796875,-0.891357421875,-0.033447265625,31.463415145874023,8.810976028442383,-26.829269409179688,31.5,-4.050000190734863,-15.449999809265137,39.11483383178711,0,
 736881,-0.52783203125,-0.92138671875,-0.0693359375,38.719512939453125,11.554878234863281,-27.2560977935791,31.5,-3.75,-13.949999809265137,39.162757873535156,0,
 736891,-0.5234375,-0.95849609375,-0.0849609375,40.182926177978516,11.707317352294922,-32.34756088256836,31.5,-3.299999952316284,-13.949999809265137,39.01898956298828,0,
 736901,-0.488525390625,-0.930419921875,-0.087890625,33.44512176513672,11.280488014221191,-39.26829528808594,31.5,-3.299999952316284,-13.949999809265137,39.11483383178711,0,
 736911,-0.446044921875,-0.873291015625,-0.09814453125,25.609756469726562,10.579268455505371,-45.121952056884766,30.899999618530273,-2.25,-14.550000190734863,38.92314529418945,0,
 736921,-0.46240234375,-0.9384765625,-0.2451171875,18.414634704589844,7.378048896789551,-48.04878234863281,29.549999237060547,-3.299999952316284,-12.899999618530273,39.162757873535156,0,
 736931,-0.5224609375,-0.739501953125,-0.149169921875,-1.2195122241973877,12.256097793579102,-43.567073822021484,29.549999237060547,-3.299999952316284,-13.949999809265137,38.971065521240234,0,
 736941,-0.146240234375,-0.497802734375,-0.068115234375,-50.853660583496094,27.2560977935791,-32.560977935791016,31.799999237060547,-2.8499999046325684,-13.949999809265137,38.92314529418945,0,
 736951,0.279052734375,-0.9619140625,0.056884765625,-54.14634323120117,15.97560977935791,18.323171615600586,31.799999237060547,-2.8499999046325684,-13.949999809265137,39.162757873535156,0,
 736961,-0.0400390625,-1.464111328125,0.0302734375,-18.90243911743164,7.012195110321045,17.164634704589844,31.950000762939453,-3.9000000953674316,-16.5,38.82729721069336,0,
 736971,-0.09375,-1.058349609375,0.024169921875,-66.4024429321289,-17.713415145874023,-6.25,28.950000762939453,-2.700000047683716,-12.75,39.11483383178711,0,
 736981,0.109375,-0.608154296875,-0.068115234375,-73.01829528808594,2.1646342277526855,46.64634323120117,30.149999618530273,-3.1500000953674316,-14.25,39.11483383178711,0,
 736991,0.01171875,-0.471435546875,-0.104248046875,-37.621952056884766,-1.0365853309631348,74.29878234863281,30.149999618530273,-3.1500000953674316,-14.25,39.2106819152832,0,
 737001,-0.148193359375,-0.697509765625,-0.2158203125,3.0487804412841797,-7.469512462615967,88.32317352294922,30.75,-4.949999809265137,-10.949999809265137,39.01898956298828,0,
 737011,-0.336181640625,-0.716064453125,-0.225830078125,12.530488014221191,-1.7073171138763428,106.18902587890625,30.149999618530273,-5.099999904632568,-12.0,38.92314529418945,0,
 737021,-0.88818359375,-0.655517578125,-0.36328125,13.75,-0.3353658616542816,98.2317123413086,33.599998474121094,-4.650000095367432,-12.300000190734863,39.162757873535156,0,
 737031,-3.52490234375,-1.544921875,0.69287109375,306.3414611816406,71.03659057617188,81.76829528808594,33.599998474121094,-4.650000095367432,-12.300000190734863,39.30652618408203,0,
 737041,-1.054443359375,0.638916015625,-0.04931640625,-110.33536529541016,-6.432927131652832,-89.0243911743164,31.799999237060547,-5.25,-11.699999809265137,38.971065521240234,0,
 737051,-0.8173828125,-0.707763671875,-0.322021484375,-36.09756088256836,-40.54878234863281,-34.817073822021484,31.950000762939453,-5.400000095367432,-12.0,38.971065521240234,0,
 737061,-0.37451171875,-0.804443359375,-0.136962890625,63.567073822021484,-21.067073822021484,-22.317073822021484,32.400001525878906,-3.9000000953674316,-15.75,38.971065521240234,0,
 737071,-0.206787109375,-1.38623046875,-0.379150390625,49.93902587890625,-7.195122241973877,9.634146690368652,32.25,-4.949999809265137,-13.649999618530273,39.2106819152832,0,
 737081,-0.3251953125,-0.9931640625,-0.19189453125,36.006099700927734,-14.542683601379395,-6.920732021331787,32.25,-4.949999809265137,-13.649999618530273,39.2106819152832,0,
 737091,-0.31103515625,-1.183837890625,-0.16845703125,27.10365867614746,-18.658536911010742,-13.963415145874023,30.899999618530273,-4.650000095367432,-12.300000190734863,39.2106819152832,0,
 737101,-0.396240234375,-1.10302734375,-0.109375,21.463415145874023,-13.841464042663574,-21.676830291748047,31.799999237060547,-5.699999809265137,-15.449999809265137,39.01898956298828,0,
 737111,-0.6337890625,-1.08935546875,-0.02880859375,5.670732021331787,-2.804877996444702,-18.9939022064209,32.25,-4.050000190734863,-12.899999618530273,39.11483383178711,0,
 737121,-0.659423828125,-0.916015625,0.112548828125,-4.969512462615967,-4.695122241973877,-28.93292808532715,32.25,-4.050000190734863,-12.899999618530273,39.35445022583008,0,
 737131,-0.7802734375,-0.787841796875,0.114990234375,1.3414634466171265,-4.695122241973877,-44.908538818359375,31.799999237060547,-3.75,-14.399999618530273,39.30652618408203,0,
 737141,-0.773193359375,-0.786865234375,0.107421875,-2.0426828861236572,2.6219513416290283,-46.463417053222656,30.75,-3.75,-12.449999809265137,39.2106819152832,0,
 737151,-0.717529296875,-0.739013671875,0.056396484375,-0.3353658616542816,11.67682933807373,-43.628047943115234,30.75,-3.299999952316284,-13.199999809265137,39.01898956298828,0,
 737161,-0.572509765625,-0.665771484375,0.024169921875,13.47560977935791,15.640244483947754,-43.01829528808594,30.75,-3.299999952316284,-13.199999809265137,39.01898956298828,0,
 737171,-0.43310546875,-0.715576171875,-0.010986328125,6.79878044128418,26.341463088989258,-62.713417053222656,31.049999237060547,-2.549999952316284,-12.899999618530273,39.01898956298828,0,
 737181,0.453369140625,-0.394287109375,0.167236328125,-6.920732021331787,5.853658676147461,-82.46951293945312,30.299999237060547,-1.350000023841858,-15.149999618530273,39.2106819152832,0,
 737191,-0.985595703125,-0.326904296875,0.039306640625,32.225608825683594,39.35975646972656,-62.43902587890625,31.5,-3.299999952316284,-14.399999618530273,39.01898956298828,0,
 737201,-0.2431640625,-0.478271484375,-0.158203125,44.908538818359375,2.3475611209869385,-70.36585235595703,29.399999618530273,-1.9500000476837158,-13.5,38.82729721069336,0,
 737211,-0.41455078125,-1.0947265625,-0.33349609375,33.658538818359375,11.52439022064209,-57.34756088256836,29.399999618530273,-1.9500000476837158,-13.5,39.2106819152832,0,
 737221,-0.052001953125,-0.932373046875,-0.14794921875,21.58536720275879,-0.7621951103210449,-49.5121955871582,28.649999618530273,-1.9500000476837158,-13.5,39.2106819152832,0,
 737231,-0.027587890625,-1.0078125,-0.21484375,6.7682929039001465,-7.22560977935791,-35.94512176513672,28.950000762939453,-1.0499999523162842,-13.800000190734863,39.11483383178711,0,
 737241,0.008056640625,-1.05419921875,-0.219482421875,0.12195122241973877,-8.079268455505371,-11.09756088256836,28.649999618530273,-1.5,-14.550000190734863,39.11483383178711,0,
 737251,-0.080322265625,-1.080078125,-0.132080078125,8.932927131652832,-15.853658676147461,2.378048896789551,28.649999618530273,-1.5,-14.550000190734863,38.92314529418945,0,
 737261,-0.210693359375,-1.120849609375,-0.093994140625,15.914634704589844,-25.274391174316406,15.945122718811035,28.649999618530273,0.0,-14.25,38.82729721069336,0,
 737271,-0.327392578125,-1.08935546875,-0.0517578125,3.2012195587158203,-24.573171615600586,29.39024543762207,28.799999237060547,-1.649999976158142,-13.949999809265137,39.2106819152832,0,
 737281,-0.365966796875,-1.0146484375,-0.002685546875,-8.90243911743164,-18.109756469726562,39.725608825683594,29.850000381469727,-0.44999998807907104,-13.949999809265137,38.971065521240234,0,
 737291,-0.442138671875,-0.981201171875,0.037109375,-10.365854263305664,-15.762195587158203,44.32926940917969,29.850000381469727,-0.44999998807907104,-13.949999809265137,39.2106819152832,0,
 737301,-0.489990234375,-0.916015625,0.138427734375,-8.140244483947754,-14.359756469726562,45.335365295410156,31.049999237060547,-1.350000023841858,-13.949999809265137,38.971065521240234,0,
 737311,-0.536865234375,-0.903564453125,0.12646484375,-1.402438998222351,-14.695122718811035,41.82926940917969,29.700000762939453,-2.25,-12.300000190734863,39.2106819152832,0,
 737321,-0.568359375,-0.91162109375,0.06396484375,4.146341323852539,-13.109756469726562,34.756099700927734,29.100000381469727,-0.8999999761581421,-15.449999809265137,39.11483383178711,0,
 737331,-0.561279296875,-0.915771484375,0.002685546875,5.579268455505371,-8.32317066192627,27.5,28.350000381469727,-2.549999952316284,-14.699999809265137,39.2106819152832,0,
 737341,-0.581787109375,-0.896484375,-0.052001953125,3.658536672592163,-4.634146213531494,18.871952056884766,28.350000381469727,-2.549999952316284,-14.699999809265137,39.2106819152832,0,
 737351,-0.578125,-0.860595703125,-0.05908203125,2.987804889678955,0.6097561120986938,8.262195587158203,30.899999618530273,-1.5,-15.0,38.92314529418945,0,
 737361,-0.57861328125,-0.82861328125,-0.048583984375,2.195122003555298,3.658536672592163,-1.2195122241973877,30.450000762939453,-3.9000000953674316,-14.550000190734863,39.2106819152832,0,
 737372,-0.592529296875,-0.802490234375,-0.0537109375,0.060975611209869385,5.365853786468506,-7.22560977935791,28.200000762939453,-1.0499999523162842,-15.0,39.2106819152832,0,
 737382,-0.62353515625,-0.78662109375,-0.042724609375,-2.5304877758026123,5.731707572937012,-12.134146690368652,28.200000762939453,-1.0499999523162842,-15.0,39.01898956298828,0,
 737392,-0.591552734375,-0.7841796875,-0.048095703125,-5.945122241973877,5.731707572937012,-16.585365295410156,31.049999237060547,-1.350000023841858,-15.899999618530273,39.11483383178711,0,
 737402,-0.495849609375,-0.809814453125,-0.04931640625,-7.682927131652832,5.70121955871582,-24.512195587158203,28.799999237060547,-0.8999999761581421,-15.449999809265137,39.01898956298828,0,
 737412,-0.42919921875,-0.796875,-0.06396484375,-8.810976028442383,4.29878044128418,-31.25,30.299999237060547,-1.649999976158142,-14.699999809265137,39.11483383178711,0,
 737422,-0.379638671875,-0.764892578125,-0.070068359375,-6.95121955871582,3.5365853309631348,-34.32926940917969,30.299999237060547,-1.649999976158142,-14.699999809265137,39.11483383178711,0,
 737432,-0.333740234375,-0.7685546875,-0.048583984375,-0.792682945728302,5.396341800689697,-34.085365295410156,29.399999618530273,-2.25,-14.550000190734863,39.2106819152832,0,
 737442,-0.287841796875,-0.787353515625,-0.0380859375,4.390244007110596,7.560975551605225,-35.70122146606445,28.649999618530273,-1.9500000476837158,-13.050000190734863,39.11483383178711,0,
 737452,-0.25830078125,-0.814697265625,-0.041748046875,7.77439022064209,7.560975551605225,-37.92683029174805,29.100000381469727,0.44999998807907104,-13.649999618530273,38.92314529418945,0,
 737462,-0.271484375,-0.80126953125,-0.02197265625,7.896341800689697,7.1646342277526855,-36.463417053222656,28.799999237060547,-1.350000023841858,-15.149999618530273,39.162757873535156,0,
 737472,-0.2763671875,-0.79052734375,-0.0068359375,6.981707572937012,7.9268293380737305,-34.35975646972656,28.799999237060547,-1.350000023841858,-15.149999618530273,39.11483383178711,0,
 737482,-0.3017578125,-0.821044921875,-0.01123046875,4.817073345184326,8.567073822021484,-33.44512176513672,29.399999618530273,0.30000001192092896,-14.25,38.683528900146484,0,
 737492,-0.318603515625,-0.822021484375,-0.024658203125,1.2804877758026123,9.45121955871582,-34.48170852661133,28.200000762939453,-0.30000001192092896,-15.0,39.2106819152832,0,
 737502,-0.32373046875,-0.78515625,-0.03857421875,-2.0426828861236572,11.25,-37.34756088256836,28.950000762939453,-0.75,-15.300000190734863,39.2106819152832,0,
 737512,-0.337158203125,-0.80419921875,-0.050537109375,0.6402438879013062,12.896341323852539,-39.664634704589844,28.950000762939453,-0.75,-15.300000190734863,39.162757873535156,0,
 737522,-0.347412109375,-0.856689453125,-0.04736328125,2.012195110321045,15.82317066192627,-45.70122146606445,27.75,1.5,-12.75,39.2106819152832,0,
 737532,-0.337890625,-0.900146484375,-0.048828125,3.1097562313079834,15.914634704589844,-46.98170852661133,29.700000762939453,0.75,-13.5,39.30652618408203,0,
 737542,-0.35546875,-0.954345703125,-0.0478515625,5.0,13.75,-48.414634704589844,28.200000762939453,1.0499999523162842,-14.25,39.01898956298828,0,
 737552,-0.39501953125,-1.00341796875,-0.044189453125,4.420732021331787,12.65243911743164,-47.74390411376953,28.200000762939453,1.0499999523162842,-14.25,38.92314529418945,0,
 737562,-0.404052734375,-1.05859375,-0.05859375,5.304878234863281,13.018293380737305,-41.463417053222656,25.5,1.0499999523162842,-15.0,39.162757873535156,0,
 737572,-0.381591796875,-1.112548828125,-0.056396484375,6.6768293380737305,11.95121955871582,-34.664634704589844,28.200000762939453,2.25,-15.75,39.162757873535156,0,
 737582,-0.359130859375,-1.1875,-0.04833984375,4.207317352294922,8.87195110321045,-25.30487823486328,25.649999618530273,2.8499999046325684,-15.149999618530273,39.2106819152832,0,
 737592,-0.348876953125,-1.209716796875,-0.05615234375,2.5,4.542683124542236,-14.17682933807373,25.5,1.5,-14.25,39.01898956298828,0,
 737602,-0.33984375,-1.20751953125,-0.051025390625,2.2865853309631348,-1.097561001777649,-1.9512195587158203,25.5,1.5,-14.25,39.2106819152832,0,
 737612,-0.346923828125,-1.2275390625,-0.053955078125,1.7073171138763428,-7.286585330963135,11.067073822021484,24.75,3.1500000953674316,-13.800000190734863,39.2106819152832,0,
 737622,-0.367431640625,-1.241455078125,-0.067626953125,1.097561001777649,-12.591464042663574,22.83536720275879,25.649999618530273,2.0999999046325684,-13.199999809265137,39.2106819152832,0,
 737632,-0.373779296875,-1.205810546875,-0.068603515625,1.1280487775802612,-15.70121955871582,32.9878044128418,26.100000381469727,1.350000023841858,-16.950000762939453,39.2106819152832,0,
 737642,-0.38818359375,-1.1689453125,-0.040771484375,-1.7682926654815674,-17.042682647705078,39.42073440551758,26.100000381469727,1.350000023841858,-16.950000762939453,38.92314529418945,0,
 737652,-0.406982421875,-1.110595703125,-0.022216796875,-4.542683124542236,-17.926830291748047,41.79878234863281,27.450000762939453,2.25,-18.0,39.2106819152832,0,
 737662,-0.432373046875,-1.040771484375,-0.02099609375,-7.865853786468506,-15.762195587158203,40.853660583496094,27.600000381469727,0.15000000596046448,-18.899999618530273,39.2106819152832,0,
 737672,-0.4169921875,-0.955322265625,-0.026123046875,-8.231707572937012,-13.140244483947754,39.42073440551758,26.700000762939453,2.700000047683716,-15.0,39.11483383178711,0,
 737682,-0.37060546875,-0.8076171875,-0.025146484375,-7.5,-11.12804889678955,36.7378044128418,26.700000762939453,2.700000047683716,-15.0,39.11483383178711,0,
 737692,-0.329833984375,-0.755615234375,-0.0224609375,-5.243902683258057,-10.091464042663574,33.871952056884766,26.700000762939453,0.75,-13.800000190734863,39.11483383178711,0,
 737702,-0.2880859375,-0.699462890625,-0.030029296875,-3.170731782913208,-9.512195587158203,29.78658676147461,27.299999237060547,-0.15000000596046448,-14.399999618530273,39.11483383178711,0,
 737712,-0.218505859375,-0.6728515625,-0.057373046875,0.5182926654815674,-9.817073822021484,23.780488967895508,28.200000762939453,0.30000001192092896,-15.0,39.450294494628906,0,
 737722,-0.132080078125,-0.624755859375,-0.15625,1.432926893234253,-10.396341323852539,17.225610733032227,27.450000762939453,1.0499999523162842,-15.300000190734863,39.11483383178711,0,
 737732,-0.161376953125,-0.63720703125,-0.337158203125,-3.9939024448394775,-8.658536911010742,14.72560977935791,27.75,-0.75,-13.800000190734863,39.2106819152832,0,
 737742,0.052001953125,-0.99658203125,-0.166259765625,-33.99390411376953,-0.21341463923454285,36.76829528808594,27.299999237060547,1.350000023841858,-13.199999809265137,38.971065521240234,0,
 737752,0.320068359375,-0.93603515625,0.187255859375,-81.49390411376953,17.5,67.83536529541016,28.049999237060547,0.44999998807907104,-15.149999618530273,38.92314529418945,0,
 737762,-0.02783203125,-0.848388671875,0.14453125,-72.1036605834961,-7.1646342277526855,55.60975646972656,27.450000762939453,-2.700000047683716,-13.5,39.30652618408203,0,
 737772,0.031494140625,-0.681884765625,0.215576171875,-74.11585235595703,-13.841464042663574,37.774391174316406,27.450000762939453,-2.700000047683716,-13.5,39.35445022583008,0,
 737782,-0.063232421875,-0.609130859375,0.1318359375,-67.74390411376953,-7.1646342277526855,71.43292999267578,28.049999237060547,-2.549999952316284,-13.199999809265137,39.30652618408203,0,
 737792,-0.225830078125,-0.44384765625,-0.03076171875,-60.97561264038086,-3.567073345184326,88.14024353027344,29.850000381469727,-1.649999976158142,-12.449999809265137,38.92314529418945,0,
 737802,-0.3720703125,-0.48046875,-0.18017578125,-34.57316970825195,0.6402438879013062,94.32926940917969,30.75,-2.8499999046325684,-13.649999618530273,39.01898956298828,0,
 737812,-0.549560546875,-0.6484375,-0.2314453125,-6.341463565826416,11.036585807800293,99.57317352294922,30.75,-2.8499999046325684,-13.649999618530273,39.2106819152832,0,
 737822,-2.73388671875,-2.16064453125,1.064453125,324.05487060546875,46.524391174316406,111.55487823486328,29.549999237060547,-2.0999999046325684,-13.199999809265137,38.92314529418945,0,
 737832,-1.37451171875,0.997802734375,-0.128662109375,-147.40853881835938,4.115853786468506,-98.07926940917969,31.5,-2.549999952316284,-12.449999809265137,39.30652618408203,0,
 737842,-0.594970703125,-0.363525390625,0.12255859375,43.871952056884766,-12.195121765136719,-64.96951293945312,30.75,-3.75,-12.75,38.92314529418945,0,
 737852,-0.458740234375,-1.080078125,0.13525390625,68.9024429321289,23.170732498168945,-11.554878234863281,30.75,-3.75,-11.399999618530273,39.11483383178711,0,
 737862,0.03466796875,-1.58837890625,-0.5654296875,37.8658561706543,23.414634704589844,16.189023971557617,30.899999618530273,-0.75,-12.300000190734863,39.450294494628906,0,
 737872,-0.156982421875,-1.134033203125,-0.294189453125,-0.060975611209869385,15.060976028442383,55.0,29.549999237060547,-3.299999952316284,-12.449999809265137,39.2106819152832,0,
 737882,-0.260986328125,-1.00634765625,-0.242919921875,12.256097793579102,3.8109757900238037,57.68292999267578,29.100000381469727,-5.099999904632568,-14.25,39.2106819152832,0,
 737892,-0.279052734375,-1.145751953125,-0.179931640625,30.70121955871582,-4.847560882568359,54.20731735229492,29.100000381469727,-3.75,-12.149999618530273,38.971065521240234,0,
 737902,-0.5322265625,-0.933837890625,-0.20947265625,9.57317066192627,-14.115854263305664,55.73170852661133,29.100000381469727,-3.75,-12.149999618530273,39.30652618408203,0,
 737912,-0.5419921875,-0.68359375,-0.14990234375,1.0365853309631348,-14.57317066192627,61.524391174316406,31.649999618530273,-3.9000000953674316,-12.300000190734863,38.971065521240234,0,
 737922,-0.624267578125,-0.801513671875,-0.141845703125,14.054878234863281,-23.68902587890625,56.158538818359375,31.799999237060547,-2.0999999046325684,-12.449999809265137,39.2106819152832,0,
 737932,-0.6748046875,-0.84814453125,-0.100341796875,14.146341323852539,-28.780488967895508,42.560977935791016,32.54999923706055,-4.5,-12.899999618530273,39.01898956298828,0,
 737942,-0.728759765625,-0.8505859375,-0.11181640625,6.432927131652832,-27.5,32.0121955871582,32.54999923706055,-4.5,-12.899999618530273,38.77937698364258,0,
 737952,-0.64794921875,-0.779296875,-0.093994140625,3.353658676147461,-18.20121955871582,17.2560977935791,31.049999237060547,-2.8499999046325684,-13.649999618530273,39.162757873535156,0,
 737962,-0.458251953125,-0.2236328125,0.001953125,9.817073822021484,-11.40243911743164,1.2195122241973877,32.25,-4.050000190734863,-12.149999618530273,39.2106819152832,0,
 737972,-0.624267578125,-0.603759765625,0.04931640625,8.780488014221191,17.621952056884766,-24.512195587158203,33.150001525878906,-2.700000047683716,-16.799999237060547,39.2106819152832,0,
 737982,-0.73974609375,-0.4521484375,0.09619140625,21.55487823486328,-0.5792682766914368,-55.39634323120117,33.150001525878906,-2.700000047683716,-16.799999237060547,38.971065521240234,0,
 737992,-0.69921875,-0.904296875,-0.102783203125,21.341463088989258,10.091464042663574,-59.603660583496094,33.150001525878906,-2.700000047683716,-16.799999237060547,39.01898956298828,0,
 738002,-0.388916015625,-0.761474609375,-0.139404296875,33.04878234863281,9.87804889678955,-53.07926940917969,33.29999923706055,-5.25,-13.949999809265137,39.2106819152832,0,
 738012,-0.428955078125,-0.96728515625,-0.161376953125,25.091463088989258,15.0,-50.335365295410156,30.899999618530273,-3.450000047683716,-14.25,39.2106819152832,0,
 738022,-0.33251953125,-1.031494140625,-0.1337890625,15.15243911743164,11.859756469726562,-46.7378044128418,30.899999618530273,-3.450000047683716,-14.25,39.11483383178711,0,
 738032,-0.2392578125,-0.97998046875,-0.10986328125,11.95121955871582,5.609755992889404,-41.006099700927734,30.899999618530273,-3.450000047683716,-14.25,38.92314529418945,0,
 738042,-0.20703125,-0.90771484375,-0.123779296875,15.97560977935791,2.5609755516052246,-32.0121955871582,29.700000762939453,-4.349999904632568,-14.550000190734863,39.2106819152832,0,
 738052,-0.218505859375,-0.943115234375,-0.128662109375,11.890244483947754,-0.792682945728302,-22.10365867614746,30.450000762939453,-3.1500000953674316,-13.649999618530273,39.11483383178711,0,
 738062,-0.281494140625,-0.90625,-0.106201171875,6.036585330963135,-1.2195122241973877,-14.146341323852539,30.450000762939453,-3.1500000953674316,-12.0,39.2106819152832,0,
 738072,-0.2900390625,-0.837646484375,-0.09912109375,5.70121955871582,-2.4390244483947754,-7.22560977935791,30.450000762939453,-3.1500000953674316,-12.0,39.11483383178711,0,
 738082,-0.305908203125,-0.837646484375,-0.10107421875,6.79878044128418,-5.9146342277526855,-1.7987805604934692,30.899999618530273,0.0,-15.300000190734863,38.82729721069336,0,
 738092,-0.309326171875,-0.81201171875,-0.052001953125,10.731707572937012,-10.12195110321045,1.3414634466171265,29.700000762939453,-2.25,-16.049999237060547,39.2106819152832,0,
 738102,-0.327880859375,-0.831298828125,-0.034423828125,10.42682933807373,-12.560976028442383,4.02439022064209,30.899999618530273,-1.9500000476837158,-15.0,39.01898956298828,0,
 738112,-0.359375,-0.820068359375,-0.073974609375,9.664634704589844,-11.40243911743164,5.8231706619262695,30.899999618530273,-1.9500000476837158,-15.0,38.971065521240234,0,
 738122,-0.376220703125,-0.79833984375,-0.106689453125,8.414634704589844,-10.213415145874023,5.9146342277526855,31.5,-3.75,-14.399999618530273,39.162757873535156,0,
 738132,-0.370849609375,-0.777099609375,-0.150634765625,7.22560977935791,-9.268292427062988,2.77439022064209,30.299999237060547,-1.9500000476837158,-13.800000190734863,38.92314529418945,0,
 738142,-0.3740234375,-0.793212890625,-0.157958984375,3.567073345184326,-8.32317066192627,-2.4695122241973877,29.850000381469727,-2.8499999046325684,-14.699999809265137,39.2106819152832,0,
 738152,-0.44482421875,-0.812255859375,-0.22265625,-12.682927131652832,-3.2926828861236572,-5.365853786468506,29.850000381469727,-2.8499999046325684,-14.699999809265137,38.971065521240234,0,
 738163,-0.255859375,-0.941162109375,0.048828125,-44.57317352294922,7.77439022064209,-1.0060975551605225,29.850000381469727,-2.8499999046325684,-14.699999809265137,39.2106819152832,0,
 738173,-0.261962890625,-0.88330078125,0.220458984375,-65.8536605834961,6.219512462615967,10.70121955871582,30.149999618530273,0.0,-12.300000190734863,39.11483383178711,0,
 738183,-0.309814453125,-0.8828125,0.309814453125,-56.524391174316406,-6.7682929039001465,-2.9268293380737305,30.899999618530273,-4.650000095367432,-13.5,38.92314529418945,0,
 738193,-0.12109375,-0.9658203125,0.213623046875,-54.39024353027344,-4.695122241973877,11.95121955871582,30.899999618530273,-4.650000095367432,-13.5,39.11483383178711,0,
 738213,-0.43310546875,-0.76611328125,-0.18017578125,-42.530487060546875,17.865854263305664,78.41463470458984,30.75,-2.8499999046325684,-12.449999809265137,39.2106819152832,0,
 738223,-0.16748046875,-2.094970703125,1.39892578125,85.45732116699219,3.9939024448394775,122.71341705322266,31.200000762939453,-5.099999904632568,-12.75,39.11483383178711,0,
 738233,-2.036376953125,-0.962158203125,-0.507080078125,-109.4817123413086,-32.835365295410156,31.0060977935791,30.899999618530273,-3.450000047683716,-12.0,38.82729721069336,0,
 738243,-0.196533203125,-0.38720703125,-0.29541015625,-57.59146499633789,48.719512939453125,15.335366249084473,30.899999618530273,-3.450000047683716,-12.0,39.11483383178711,0,
 738253,-0.529541015625,-0.546630859375,-0.026123046875,50.82317352294922,-1.4939024448394775,58.29268264770508,30.899999618530273,-1.0499999523162842,-11.25,39.11483383178711,0,
 738263,-0.27294921875,-1.44287109375,-0.483154296875,78.38414764404297,-9.268292427062988,73.99390411376953,31.799999237060547,-4.050000190734863,-11.699999809265137,39.30652618408203,0,
 738273,-0.417724609375,-1.23876953125,-0.397216796875,55.03049087524414,-13.04878044128418,83.29268646240234,31.049999237060547,-3.75,-12.899999618530273,39.2106819152832,0,
 738283,-0.244140625,-0.933349609375,-0.30859375,27.10365867614746,-10.853658676147461,62.560977935791016,31.049999237060547,-3.75,-12.899999618530273,38.82729721069336,0,
 738293,-0.27587890625,-0.713134765625,-0.1767578125,24.542682647705078,-14.542683601379395,35.73170852661133,31.049999237060547,-3.75,-12.899999618530273,39.11483383178711,0,
 738303,-0.270751953125,-0.62939453125,-0.128173828125,23.9939022064209,-16.859756469726562,8.993902206420898,32.25,-5.25,-12.449999809265137,39.162757873535156,0,
 738313,-0.569580078125,-0.55908203125,-0.15185546875,10.12195110321045,-26.067073822021484,-4.969512462615967,33.0,-5.25,-12.899999618530273,39.2106819152832,0,
 738323,-0.652099609375,-0.3759765625,-0.143310546875,-29.45121955871582,-21.64634132385254,-6.036585330963135,33.0,-5.25,-12.899999618530273,39.450294494628906,0,
 738333,-0.405517578125,-0.475341796875,0.10498046875,-53.38414764404297,-18.38414764404297,5.5182929039001465,33.0,-5.25,-12.899999618530273,38.971065521240234,0,
 738343,-0.387451171875,-0.800048828125,0.118896484375,-43.2621955871582,-26.0060977935791,1.8597561120986938,31.799999237060547,-4.949999809265137,-13.649999618530273,39.2106819152832,0,
 738353,-0.2734375,-0.8154296875,0.065185546875,-39.725608825683594,-23.963415145874023,-8.20121955871582,32.54999923706055,-4.949999809265137,-11.699999809265137,39.01898956298828,0,
 738363,-0.046142578125,-0.721435546875,0.0947265625,-27.560976028442383,-7.103658676147461,20.487804412841797,32.54999923706055,-4.949999809265137,-11.699999809265137,39.11483383178711,0,
 738373,-0.173828125,-0.968017578125,0.069580078125,8.292682647705078,0.6402438879013062,54.69512176513672,32.54999923706055,-4.949999809265137,-11.699999809265137,39.2106819152832,0,
 738383,-0.403564453125,-0.91796875,-0.046142578125,10.27439022064209,5.54878044128418,81.09756469726562,35.400001525878906,-6.599999904632568,-13.949999809265137,39.11483383178711,0,
 738393,-2.402587890625,-0.927734375,0.3916015625,176.03659057617188,47.256099700927734,75.0,34.04999923706055,-5.25,-11.699999809265137,39.30652618408203,0,
 738403,-1.34814453125,-0.778076171875,0.21240234375,-50.274391174316406,-8.841464042663574,-17.10365867614746,32.849998474121094,-3.450000047683716,-13.050000190734863,39.2106819152832,0,
 738413,-0.6552734375,-0.1484375,-0.606201171875,-5.396341800689697,9.29878044128418,33.23170852661133,32.849998474121094,-3.450000047683716,-13.050000190734863,39.2106819152832,0,
 738423,-0.4658203125,-1.006591796875,-0.388427734375,83.99390411376953,-4.603658676147461,28.93292808532715,34.5,-3.450000047683716,-13.050000190734863,39.11483383178711,0,
 738433,-0.322509765625,-1.306884765625,-0.45751953125,25.060976028442383,-6.615853786468506,46.09756088256836,32.25,-8.100000381469727,-15.449999809265137,39.11483383178711,0,
 738443,-0.16796875,-1.18798828125,-0.28759765625,2.317073106765747,-20.914634704589844,40.121952056884766,34.650001525878906,-6.599999904632568,-14.25,39.30652618408203,0,
 738453,-0.298583984375,-0.975341796875,-0.170654296875,-0.21341463923454285,-25.213415145874023,30.85365867614746,34.650001525878906,-6.599999904632568,-14.25,39.01898956298828,0,
 738463,-0.520751953125,-0.8974609375,-0.15966796875,-9.45121955871582,-22.408536911010742,27.19512176513672,35.25,-6.599999904632568,-14.25,39.162757873535156,0,
 738473,-0.67138671875,-0.744140625,-0.066162109375,-7.134146690368652,-24.359756469726562,20.33536720275879,35.099998474121094,-7.5,-15.300000190734863,39.11483383178711,0,
 738483,-0.942138671875,-0.639892578125,-0.041748046875,8.658536911010742,-21.219512939453125,-9.17682933807373,36.150001525878906,-3.9000000953674316,-16.5,38.92314529418945,0,
 738493,-1.03662109375,-0.751708984375,-0.0654296875,11.79878044128418,-4.1768293380737305,-35.335365295410156,36.150001525878906,-3.9000000953674316,-16.5,39.11483383178711,0,
 738503,-0.90478515625,-0.7783203125,-0.02587890625,15.914634704589844,10.518293380737305,-49.603660583496094,36.150001525878906,-3.9000000953674316,-16.5,39.30652618408203,0,
 738513,-0.770263671875,-0.754150390625,0.010986328125,32.92683029174805,21.463415145874023,-67.7743911743164,33.900001525878906,-7.5,-14.550000190734863,39.162757873535156,0,
 738523,-0.744140625,-0.892822265625,0.045654296875,29.725610733032227,34.78658676147461,-95.42683410644531,32.849998474121094,-7.050000190734863,-16.5,38.82729721069336,0,
 738533,-0.69970703125,-0.97265625,0.0,-1.7073171138763428,46.95122146606445,-109.8780517578125,33.75,-6.900000095367432,-14.399999618530273,39.01898956298828,0,
 738543,-0.687255859375,-0.603515625,0.161376953125,-66.1280517578125,56.28049087524414,-85.09146881103516,33.75,-6.900000095367432,-14.399999618530273,39.2106819152832,0,
 738553,-0.129150390625,0.224853515625,0.412841796875,-48.01829528808594,12.92682933807373,-4.786585330963135,32.400001525878906,-6.599999904632568,-13.050000190734863,39.30652618408203,0,
 738563,0.075927734375,0.170166015625,0.376708984375,27.530488967895508,-24.268293380737305,35.73170852661133,31.5,-6.0,-13.949999809265137,39.162757873535156,0,
 738573,-0.33349609375,-0.974365234375,0.158447265625,-7.682927131652832,-25.48780632019043,25.33536720275879,33.0,-6.0,-13.949999809265137,38.92314529418945,0,
 738583,-0.380859375,-1.382080078125,-0.113525390625,-53.07926940917969,-4.0853657722473145,16.128049850463867,33.0,-6.0,-13.949999809265137,39.162757873535156,0,
 738593,-0.097412109375,-0.603271484375,-0.38037109375,-29.7560977935791,11.189024925231934,13.079268455505371,31.799999237060547,-6.449999809265137,-13.949999809265137,39.30652618408203,0,
 738603,0.121826171875,-0.843017578125,-0.3486328125,12.34756088256836,24.7560977935791,22.774391174316406,33.29999923706055,-8.399999618530273,-13.199999809265137,39.01898956298828,0,
 738613,0.25390625,-0.921630859375,-0.144775390625,15.243903160095215,23.20121955871582,34.39024353027344,33.75,-7.199999809265137,-13.199999809265137,39.162757873535156,0,
 738623,0.217041015625,-0.770751953125,-0.17626953125,-9.969511985778809,7.439024448394775,49.14634323120117,33.75,-7.199999809265137,-13.199999809265137,38.82729721069336,0,
 738633,0.039794921875,-0.764892578125,-0.246337890625,-12.408536911010742,-11.006097793579102,69.63414764404297,33.0,-7.650000095367432,-12.899999618530273,39.2106819152832,0,
 738643,-0.42431640625,-0.857421875,-0.356689453125,-2.804877996444702,-24.329269409179688,77.16463470458984,34.650001525878906,-7.800000190734863,-13.050000190734863,39.01898956298828,0,
 738653,-2.392822265625,-1.93310546875,-0.439697265625,-8.567073822021484,-18.658536911010742,74.1463394165039,34.349998474121094,-7.050000190734863,-13.5,38.971065521240234,0,
 738663,-2.461669921875,-0.63427734375,-0.199462890625,-62.3780517578125,79.17683410644531,-61.34146499633789,34.95000076293945,-6.900000095367432,-13.949999809265137,39.2106819152832,0,
 738673,-2.0849609375,1.01513671875,1.114990234375,-166.52439880371094,-48.658538818359375,-113.29268646240234,34.95000076293945,-6.900000095367432,-13.949999809265137,38.971065521240234,0,
 738683,-0.66064453125,-0.6064453125,-0.320556640625,2.8353660106658936,-14.969512939453125,-0.5182926654815674,33.150001525878906,-7.800000190734863,-13.5,38.971065521240234,0,
 738693,-0.405029296875,-1.853515625,-0.27685546875,81.5243911743164,-24.45121955871582,12.317073822021484,33.150001525878906,-7.5,-15.300000190734863,39.2106819152832,0,
 738703,-0.29345703125,-1.542236328125,-0.309326171875,48.780487060546875,-8.20121955871582,27.59146499633789,34.04999923706055,-7.650000095367432,-13.199999809265137,38.92314529418945,0,
 738713,-0.162841796875,-1.027099609375,-0.2255859375,17.987804412841797,-7.804878234863281,17.408536911010742,34.04999923706055,-7.650000095367432,-13.199999809265137,39.2106819152832,0,
 738723,-0.33837890625,-1.017822265625,-0.2197265625,28.53658676147461,-9.756097793579102,10.030488014221191,34.5,-8.100000381469727,-13.199999809265137,38.82729721069336,0,
 738733,-0.4140625,-0.966064453125,-0.00634765625,13.445122718811035,-0.4878048896789551,-1.737804889678955,33.29999923706055,-5.25,-13.949999809265137,39.01898956298828,0,
 738743,-0.2978515625,-0.643798828125,0.2119140625,-33.01829528808594,0.9146341681480408,7.286585330963135,33.599998474121094,-7.050000190734863,-13.800000190734863,38.971065521240234,0,
 738753,-0.68701171875,-0.5703125,0.242919921875,-36.40243911743164,-16.79878044128418,14.329268455505371,33.599998474121094,-7.050000190734863,-13.800000190734863,39.11483383178711,0,
 738763,-0.873779296875,-0.509765625,0.19921875,-40.79268264770508,-21.280488967895508,5.54878044128418,34.650001525878906,-6.300000190734863,-13.050000190734863,39.30652618408203,0,
 738773,-0.884521484375,-0.386962890625,0.029296875,-37.5,-9.17682933807373,2.0426828861236572,34.5,-8.850000381469727,-13.949999809265137,38.971065521240234,0,
 738783,-0.744140625,-0.56787109375,0.04443359375,1.3719512224197388,11.310976028442383,1.0365853309631348,33.75,-7.650000095367432,-13.649999618530273,39.162757873535156,0,
 738793,-0.698974609375,-0.97021484375,0.0029296875,35.24390411376953,18.44512176513672,-10.640244483947754,34.650001525878906,-7.5,-17.549999237060547,39.01898956298828,0,
 738803,-0.71337890625,-1.009765625,-0.0146484375,30.213415145874023,21.890243530273438,-28.963415145874023,34.650001525878906,-7.5,-17.549999237060547,39.450294494628906,0,
 738813,0.423095703125,-0.611083984375,0.12841796875,9.146341323852539,45.914634704589844,-76.06707763671875,33.599998474121094,-8.25,-13.050000190734863,39.01898956298828,0,
 738823,-0.960205078125,-0.292236328125,0.032470703125,12.07317066192627,22.5,-86.76829528808594,32.400001525878906,-5.849999904632568,-12.300000190734863,38.82729721069336,0,
 738833,-0.786376953125,-0.693603515625,-0.076416015625,41.280487060546875,39.756099700927734,-99.7256088256836,33.29999923706055,-5.699999809265137,-13.949999809265137,39.11483383178711,0,
 738843,-0.72021484375,-0.803466796875,-0.087890625,29.78658676147461,33.628047943115234,-107.92683410644531,33.29999923706055,-5.699999809265137,-13.949999809265137,39.2106819152832,0,
 738853,-0.532470703125,-0.746337890625,-0.09033203125,18.658536911010742,33.01829528808594,-99.54268646240234,31.5,-4.050000190734863,-13.649999618530273,39.2106819152832,0,
 738863,-0.49365234375,-0.83935546875,-0.082275390625,21.067073822021484,20.0,-93.99390411376953,31.049999237060547,-4.5,-14.699999809265137,39.01898956298828,0,
 738873,-0.376953125,-0.91552734375,-0.1630859375,10.762195587158203,14.268293380737305,-87.92683410644531,30.450000762939453,-4.349999904632568,-13.800000190734863,39.11483383178711,0,
 738883,-0.42431640625,-1.09326171875,-0.265869140625,8.62804889678955,1.3414634466171265,-67.2256088256836,30.450000762939453,-4.349999904632568,-13.800000190734863,39.2106819152832,0,
 738893,-0.379150390625,-1.1875,-0.263427734375,5.213414669036865,-1.097561001777649,-63.719512939453125,30.899999618530273,0.0,-15.75,39.35445022583008,0,
 738903,-0.399169921875,-1.152587890625,-0.250732421875,-2.012195110321045,6.036585330963135,-54.63414764404297,29.399999618530273,-2.25,-12.300000190734863,39.2106819152832,0,
 738914,-0.334716796875,-0.941162109375,-0.276611328125,10.792683601379395,11.09756088256836,-40.82317352294922,29.700000762939453,-2.25,-13.5,38.82729721069336,0,
 738924,-0.172607421875,-0.8232421875,-0.12548828125,29.29878044128418,2.0731706619262695,-26.615854263305664,29.549999237060547,-2.0999999046325684,-12.149999618530273,39.2106819152832,0,
 738934,-0.18310546875,-0.957275390625,-0.1025390625,30.18292808532715,-4.634146213531494,-15.42682933807373,29.549999237060547,-2.0999999046325684,-12.149999618530273,39.11483383178711,0,
 738944,-0.226318359375,-1.01513671875,-0.097412109375,19.725610733032227,-9.390244483947754,-6.189024448394775,30.450000762939453,-1.9500000476837158,-12.75,39.2106819152832,0,
 738954,-0.258056640625,-0.923583984375,-0.090576171875,20.518293380737305,-12.835366249084473,1.25,31.200000762939453,-2.700000047683716,-13.050000190734863,39.01898956298828,0,
 738964,-0.3017578125,-0.89208984375,-0.11865234375,22.164634704589844,-12.92682933807373,7.347561359405518,27.75,-2.700000047683716,-14.25,38.92314529418945,0,
 738974,-0.327880859375,-0.91796875,-0.107421875,15.97560977935791,-11.219511985778809,10.853658676147461,27.75,-2.700000047683716,-14.25,39.2106819152832,0,
 738984,-0.335693359375,-0.90625,-0.088623046875,7.9268293380737305,-8.140244483947754,12.012195587158203,29.100000381469727,-3.299999952316284,-13.949999809265137,39.2106819152832,0,
 738994,-0.31884765625,-0.860107421875,-0.07568359375,6.189024448394775,-5.945122241973877,11.768293380737305,29.549999237060547,-0.8999999761581421,-15.899999618530273,39.01898956298828,0,
 739004,-0.337646484375,-0.823486328125,-0.0732421875,7.560975551605225,-4.6646342277526855,9.87804889678955,31.200000762939453,-3.1500000953674316,-15.300000190734863,39.2106819152832,0,
 739014,-0.3505859375,-0.8203125,-0.071533203125,7.286585330963135,-2.0731706619262695,8.384146690368652,31.200000762939453,-3.1500000953674316,-15.300000190734863,39.01898956298828,0,
 739024,-0.3564453125,-0.81689453125,-0.052001953125,4.115853786468506,-0.9451219439506531,8.20121955871582,30.299999237060547,-2.0999999046325684,-14.399999618530273,39.162757873535156,0,
 739034,-0.34375,-0.817626953125,-0.011474609375,0.6097561120986938,-3.2926828861236572,7.835366249084473,29.700000762939453,-2.25,-14.550000190734863,39.2106819152832,0,
 739044,-0.4150390625,-0.8291015625,0.04296875,-2.6524391174316406,-7.591463565826416,5.97560977935791,30.299999237060547,-1.649999976158142,-14.399999618530273,39.162757873535156,0,
 739054,-0.484375,-0.84619140625,0.020751953125,-4.969512462615967,-10.213415145874023,3.262195110321045,29.549999237060547,-2.549999952316284,-13.949999809265137,39.11483383178711,0,
 739064,-0.6025390625,-0.902587890625,-0.011474609375,-3.6890244483947754,-10.914634704589844,-0.8841463327407837,29.549999237060547,-2.549999952316284,-13.949999809265137,39.01898956298828,0,
 739074,-0.66162109375,-0.91552734375,-0.00927734375,-5.792683124542236,-7.103658676147461,-5.152439117431641,29.700000762939453,-3.1500000953674316,-14.25,39.01898956298828,0,
 739084,-0.685791015625,-0.83447265625,0.004150390625,-10.884146690368652,-1.7987805604934692,-8.87195110321045,30.899999618530273,-2.700000047683716,-14.550000190734863,38.92314529418945,0,
 739094,-0.642578125,-0.79296875,0.02099609375,-9.481707572937012,3.3231709003448486,-11.432927131652832,29.850000381469727,-1.350000023841858,-14.699999809265137,39.2106819152832,0,
 739104,-0.5712890625,-0.865478515625,0.0126953125,-3.841463565826416,4.481707572937012,-14.512195587158203,29.850000381469727,-1.350000023841858,-14.699999809265137,39.01898956298828,0,
