timestamp,accl_x,accl_y,accl_z,gyro_x,gyro_y,gyro_z,mag_x,mag_y,mag_z,temp,emg,
 955883,-0.256591796875,-0.926025390625,-0.119873046875,9.054878234863281,-11.036585807800293,16.981708526611328,21.899999618530273,5.699999809265137,-10.949999809265137,39.977447509765625,0,
 955893,-0.268310546875,-0.93212890625,-0.102783203125,7.195122241973877,-6.067073345184326,14.603658676147461,24.0,5.099999904632568,-9.0,39.450294494628906,0,
 955903,-0.257080078125,-0.9521484375,-0.08544921875,3.5975611209869385,-0.6707317233085632,12.012195587158203,21.899999618530273,3.299999952316284,-9.449999809265137,39.689910888671875,0,
 955913,-0.251953125,-0.96142578125,-0.10498046875,-2.6219513416290283,2.865853786468506,9.02439022064209,21.899999618530273,3.299999952316284,-9.449999809265137,39.64198684692383,0,
 955923,-0.2421875,-0.950927734375,-0.118896484375,-7.560975551605225,5.609755992889404,6.890244007110596,21.149999618530273,3.75,-8.699999809265137,39.64198684692383,0,
 955933,-0.244140625,-0.935302734375,-0.137939453125,-10.365854263305664,7.987804889678955,5.5182929039001465,23.549999237060547,3.9000000953674316,-7.5,39.83367919921875,0,
 955943,-0.218505859375,-0.98876953125,-0.13623046875,-10.060976028442383,8.841464042663574,4.146341323852539,22.200000762939453,3.299999952316284,-9.449999809265137,39.450294494628906,0,
 955953,-0.21240234375,-0.951171875,-0.1455078125,-14.02439022064209,7.987804889678955,5.3353657722473145,22.200000762939453,3.299999952316284,-9.449999809265137,39.737831115722656,0,
 955963,-0.252685546875,-0.9111328125,-0.158935546875,-13.780488014221191,7.591463565826416,7.682927131652832,22.799999237060547,4.349999904632568,-10.5,39.737831115722656,0,
 955973,-0.2451171875,-0.92041015625,-0.163818359375,1.585365891456604,9.329268455505371,15.182927131652832,23.100000381469727,2.8499999046325684,-9.449999809265137,39.737831115722656,0,
 955983,-0.223388671875,-0.930908203125,-0.180419921875,9.695121765136719,9.268292427062988,19.08536720275879,22.200000762939453,4.5,-9.149999618530273,39.64198684692383,0,
 955993,-0.215087890625,-1.010986328125,-0.150634765625,7.1646342277526855,7.987804889678955,21.189023971557617,23.25,1.5,-10.050000190734863,39.64198684692383,0,
 956003,-0.238525390625,-0.953857421875,-0.176513671875,10.884146690368652,6.5853657722473145,22.98780632019043,23.549999237060547,4.349999904632568,-9.0,39.64198684692383,0,
 956013,-0.211181640625,-0.995361328125,-0.13916015625,6.615853786468506,4.2682929039001465,24.024391174316406,24.450000762939453,1.5,-9.0,39.689910888671875,0,
 956023,-0.247802734375,-0.95458984375,-0.150390625,5.121951103210449,3.4146342277526855,23.414634704589844,22.799999237060547,2.700000047683716,-8.550000190734863,39.737831115722656,0,
 956033,-0.23486328125,-0.9599609375,-0.15625,0.7621951103210449,2.5304877758026123,20.762195587158203,24.0,2.700000047683716,-9.0,39.64198684692383,0,
 956043,-0.238037109375,-0.92578125,-0.1728515625,-1.7682926654815674,0.21341463923454285,18.231708526611328,24.0,2.700000047683716,-9.0,39.737831115722656,0,
 956053,-0.239501953125,-0.924072265625,-0.20263671875,-4.420732021331787,-1.6463414430618286,14.29878044128418,22.5,3.450000047683716,-9.300000190734863,39.546142578125,0,
 956063,-0.252685546875,-0.88427734375,-0.214599609375,-3.3231709003448486,-1.920731782913208,10.182927131652832,24.899999618530273,2.549999952316284,-9.449999809265137,39.64198684692383,0,
 956073,-0.241455078125,-0.850830078125,-0.203369140625,2.4390244483947754,-2.6219513416290283,6.829268455505371,24.0,2.700000047683716,-10.050000190734863,39.737831115722656,0,
 956083,-0.2578125,-0.852783203125,-0.196044921875,7.9268293380737305,-3.0487804412841797,3.628048896789551,24.0,2.700000047683716,-10.050000190734863,39.450294494628906,0,
 956093,-0.26953125,-0.8837890625,-0.174072265625,9.634146690368652,-3.079268455505371,1.0365853309631348,25.200000762939453,1.0499999523162842,-11.550000190734863,39.546142578125,0,
 956103,-0.269775390625,-0.90966796875,-0.147216796875,8.780488014221191,-3.445122003555298,-0.3658536672592163,24.450000762939453,3.1500000953674316,-9.0,39.88159942626953,0,
 956113,-0.27197265625,-0.932373046875,-0.135986328125,7.9268293380737305,-2.865853786468506,-0.9146341681480408,23.399999618530273,1.649999976158142,-9.149999618530273,39.689910888671875,0,
 956123,-0.2626953125,-0.97021484375,-0.1357421875,5.396341800689697,-2.408536672592163,0.3353658616542816,23.399999618530273,1.649999976158142,-9.149999618530273,39.83367919921875,0,
 956133,-0.27734375,-1.00048828125,-0.130126953125,2.2865853309631348,-2.1646342277526855,1.7682926654815674,24.75,2.25,-8.550000190734863,39.64198684692383,0,
 956143,-0.275634765625,-0.971923828125,-0.12255859375,-1.9817073345184326,-0.12195122241973877,3.2012195587158203,24.450000762939453,2.25,-9.300000190734863,39.546142578125,0,
 956153,-0.25927734375,-0.967529296875,-0.12451171875,-4.45121955871582,1.1585365533828735,5.030488014221191,23.850000381469727,2.549999952316284,-9.449999809265137,39.689910888671875,0,
 956163,-0.26025390625,-0.9443359375,-0.141845703125,-6.829268455505371,0.9451219439506531,5.9146342277526855,26.700000762939453,2.700000047683716,-8.25,39.689910888671875,0,
 956173,-0.262939453125,-0.929443359375,-0.168212890625,-7.1646342277526855,0.18292683362960815,6.219512462615967,26.700000762939453,2.700000047683716,-8.25,39.64198684692383,0,
 956183,-0.247802734375,-0.916748046875,-0.176025390625,-5.792683124542236,-0.18292683362960815,6.371951580047607,24.899999618530273,1.350000023841858,-12.449999809265137,39.450294494628906,0,
 956193,-0.251708984375,-0.916015625,-0.18994140625,-3.2012195587158203,-1.5243902206420898,5.731707572937012,24.75,1.0499999523162842,-10.800000190734863,39.450294494628906,0,
 956203,-0.267333984375,-0.90966796875,-0.1494140625,-0.6707317233085632,-2.591463565826416,5.792683124542236,24.149999618530273,2.8499999046325684,-9.149999618530273,39.450294494628906,0,
 956213,-0.27099609375,-0.96435546875,-0.1357421875,1.6768293380737305,-2.9268293380737305,5.243902683258057,24.149999618530273,2.8499999046325684,-9.149999618530273,39.546142578125,0,
 956223,-0.282470703125,-0.9375,-0.139404296875,-1.7682926654815674,-2.682926893234253,4.72560977935791,23.25,3.450000047683716,-10.050000190734863,39.64198684692383,0,
 956233,-0.28076171875,-0.93798828125,-0.143798828125,-2.0731706619262695,-1.9512195587158203,4.72560977935791,23.850000381469727,2.0999999046325684,-7.949999809265137,39.30652618408203,0,
 956243,-0.286376953125,-0.938232421875,-0.146728515625,-2.682926893234253,-0.5792682766914368,4.542683124542236,24.899999618530273,2.0999999046325684,-9.899999618530273,39.689910888671875,0,
 956253,-0.277099609375,-0.970947265625,-0.1376953125,-3.079268455505371,0.4268292784690857,4.72560977935791,24.899999618530273,2.0999999046325684,-9.899999618530273,39.83367919921875,0,
 956263,-0.288818359375,-0.959228515625,-0.11376953125,-6.371951580047607,0.4878048896789551,4.6646342277526855,24.0,2.700000047683716,-9.75,39.64198684692383,0,
 956273,-0.28955078125,-1.021484375,-0.12255859375,-9.57317066192627,0.18292683362960815,3.932926893234253,24.899999618530273,2.8499999046325684,-9.899999618530273,39.49821853637695,0,
 956283,-0.284423828125,-0.92041015625,-0.13330078125,-19.207317352294922,2.3475611209869385,1.5243902206420898,24.149999618530273,2.0999999046325684,-8.399999618530273,39.49821853637695,0,
 956293,-0.256103515625,-0.903564453125,-0.140869140625,-18.38414764404297,2.8353660106658936,0.396341472864151,24.149999618530273,2.0999999046325684,-8.399999618530273,39.546142578125,0,
 956303,-0.260498046875,-0.880126953125,-0.137939453125,-18.109756469726562,0.7621951103210449,-1.4634146690368652,23.25,1.9500000476837158,-9.300000190734863,39.737831115722656,0,
 956313,-0.23876953125,-0.888671875,-0.16455078125,-18.109756469726562,-1.3414634466171265,-3.8109757900238037,24.75,1.0499999523162842,-9.0,39.64198684692383,0,
 956323,-0.21630859375,-0.888916015625,-0.196533203125,-17.65243911743164,-5.487804889678955,-5.5182929039001465,24.149999618530273,1.350000023841858,-9.449999809265137,39.689910888671875,0,
 956333,-0.23388671875,-0.854736328125,-0.21728515625,-16.09756088256836,-11.12804889678955,-6.52439022064209,23.25,1.0499999523162842,-9.300000190734863,39.450294494628906,0,
 956343,-0.211669921875,-0.859375,-0.2431640625,-11.189024925231934,-12.896341323852539,-6.310975551605225,23.25,1.0499999523162842,-9.300000190734863,39.64198684692383,0,
 956353,-0.2265625,-0.891357421875,-0.25,-2.3475611209869385,-17.65243911743164,-4.756097793579102,24.450000762939453,3.9000000953674316,-7.800000190734863,39.546142578125,0,
 956364,-0.25439453125,-0.92431640625,-0.25048828125,4.695122241973877,-21.280488967895508,-3.8719513416290283,24.0,4.349999904632568,-10.5,39.689910888671875,0,
 956374,-0.274658203125,-0.9248046875,-0.220947265625,8.384146690368652,-23.963415145874023,-2.77439022064209,22.5,2.700000047683716,-9.0,39.64198684692383,0,
 956384,-0.26953125,-0.975341796875,-0.173583984375,12.896341323852539,-23.68902587890625,-0.030487805604934692,22.5,2.700000047683716,-9.0,39.546142578125,0,
 956394,-0.297119140625,-0.9951171875,-0.110595703125,11.707317352294922,-23.079269409179688,2.8353660106658936,24.600000381469727,2.8499999046325684,-9.899999618530273,39.689910888671875,0,
 956404,-0.322021484375,-0.978759765625,-0.078857421875,7.591463565826416,-20.15243911743164,5.27439022064209,23.850000381469727,2.0999999046325684,-9.449999809265137,39.689910888671875,0,
 956414,-0.34423828125,-0.96435546875,-0.056640625,4.542683124542236,-15.15243911743164,7.530488014221191,24.899999618530273,1.649999976158142,-7.949999809265137,39.546142578125,0,
 956424,-0.335693359375,-0.9638671875,-0.051513671875,0.6707317233085632,-9.237805366516113,8.506097793579102,24.899999618530273,1.649999976158142,-7.949999809265137,39.977447509765625,0,
 956434,-0.30322265625,-0.940673828125,-0.053466796875,-7.591463565826416,-3.3841464519500732,6.981707572937012,24.450000762939453,2.25,-9.300000190734863,39.689910888671875,0,
 956444,-0.314453125,-0.888916015625,-0.085693359375,-5.609755992889404,-2.4695122241973877,5.640244007110596,24.600000381469727,2.549999952316284,-9.449999809265137,39.546142578125,0,
 956454,-0.3115234375,-0.882080078125,-0.072265625,-4.115853786468506,-2.103658676147461,3.9939024448394775,24.0,1.5,-9.300000190734863,39.977447509765625,0,
 956464,-0.30029296875,-0.928955078125,-0.099853515625,-7.317073345184326,-3.628048896789551,0.6097561120986938,24.450000762939453,1.9500000476837158,-9.300000190734863,39.689910888671875,0,
 956474,-0.2841796875,-0.890380859375,-0.136962890625,-2.6524391174316406,-1.737804889678955,-1.8902438879013062,24.450000762939453,1.9500000476837158,-9.300000190734863,39.49821853637695,0,
 956484,-0.252197265625,-0.765380859375,-0.1396484375,13.140244483947754,-4.756097793579102,-0.27439025044441223,24.600000381469727,2.549999952316284,-9.149999618530273,39.64198684692383,0,
 956494,-0.236083984375,-1.2060546875,-0.08642578125,-12.591464042663574,-4.420732021331787,1.8597561120986938,23.549999237060547,0.30000001192092896,-9.300000190734863,39.689910888671875,0,
 956504,-0.243408203125,-0.995849609375,-0.1513671875,-10.091464042663574,2.3475611209869385,5.4268293380737305,26.549999237060547,2.0999999046325684,-10.649999618530273,39.546142578125,0,
 956514,-0.263427734375,-0.969970703125,-0.2236328125,-1.4634146690368652,8.719511985778809,12.560976028442383,26.549999237060547,2.0999999046325684,-10.649999618530273,39.83367919921875,0,
 956524,-0.278076171875,-1.115478515625,-0.04248046875,-12.682927131652832,9.786585807800293,15.365854263305664,24.450000762939453,2.25,-10.050000190734863,39.49821853637695,0,
 956534,-0.361328125,-0.9853515625,-0.01953125,-11.79878044128418,13.75,17.530488967895508,25.950000762939453,1.5,-9.0,39.450294494628906,0,
 956544,-0.3779296875,-0.838134765625,-0.004638671875,8.536585807800293,20.609756469726562,21.341463088989258,25.350000381469727,2.0999999046325684,-10.649999618530273,39.737831115722656,0,
 956554,-0.467041015625,-0.906005859375,-0.010498046875,13.414634704589844,35.54878234863281,26.524391174316406,25.350000381469727,2.0999999046325684,-10.649999618530273,39.689910888671875,0,
 956564,-0.451904296875,-0.924072265625,-0.02001953125,16.40243911743164,47.34756088256836,28.93292808532715,24.899999618530273,0.8999999761581421,-11.399999618530273,39.450294494628906,0,
 956574,-0.39306640625,-0.839111328125,0.032958984375,30.64024543762207,53.32317352294922,29.45121955871582,25.5,0.75,-8.25,39.546142578125,0,
 956584,-0.414794921875,-0.884765625,0.03173828125,35.30487823486328,59.969512939453125,26.43292808532715,25.350000381469727,1.649999976158142,-10.199999809265137,39.64198684692383,0,
 956594,-0.275390625,-0.903076171875,-0.0458984375,33.38414764404297,58.2621955871582,24.817073822021484,25.350000381469727,1.649999976158142,-10.199999809265137,39.546142578125,0,
 956604,-0.23291015625,-0.835693359375,-0.130126953125,26.4939022064209,52.5,18.109756469726562,25.200000762939453,0.75,-13.050000190734863,39.83367919921875,0,
 956614,-0.213134765625,-0.944091796875,-0.250244140625,30.762195587158203,45.914634704589844,12.560976028442383,25.200000762939453,0.30000001192092896,-9.75,39.64198684692383,0,
 956624,-0.202880859375,-0.811767578125,-0.298828125,26.0060977935791,44.78658676147461,7.286585330963135,26.100000381469727,2.0999999046325684,-8.699999809265137,39.64198684692383,0,
 956634,-0.196533203125,-0.848876953125,-0.40234375,30.0,45.3658561706543,0.27439025044441223,24.600000381469727,0.8999999761581421,-9.449999809265137,39.689910888671875,0,
 956644,-0.127685546875,-0.88916015625,-0.33056640625,31.219512939453125,40.121952056884766,-5.030488014221191,24.600000381469727,0.8999999761581421,-9.449999809265137,39.88159942626953,0,
 956654,-0.207275390625,-0.7802734375,-0.461181640625,29.54268455505371,31.73780632019043,-13.231707572937012,24.450000762939453,1.9500000476837158,-9.0,39.689910888671875,0,
 956664,-0.148193359375,-0.847412109375,-0.458251953125,33.32316970825195,28.170732498168945,-17.957317352294922,25.200000762939453,0.0,-11.25,39.64198684692383,0,
 956674,-0.2236328125,-1.1240234375,-0.4921875,35.70122146606445,15.0,-16.890243530273438,24.75,0.75,-10.050000190734863,39.546142578125,0,
 956684,-0.261962890625,-0.9814453125,-0.445068359375,10.609756469726562,-0.3658536672592163,-14.207317352294922,24.75,0.75,-10.050000190734863,39.546142578125,0,
 956694,-0.22265625,-0.81396484375,-0.359375,10.97560977935791,-10.670731544494629,-9.695121765136719,25.200000762939453,2.25,-9.75,39.689910888671875,0,
 956704,-0.17138671875,-1.018310546875,-0.211181640625,32.34756088256836,-20.487804412841797,-7.103658676147461,25.200000762939453,2.700000047683716,-13.5,39.689910888671875,0,
 956714,-0.2509765625,-1.13525390625,-0.117431640625,29.512195587158203,-25.94512176513672,-0.5792682766914368,24.600000381469727,1.350000023841858,-9.899999618530273,39.64198684692383,0,
 956724,-0.33203125,-1.015625,-0.0556640625,12.896341323852539,-24.84756088256836,2.3475611209869385,24.600000381469727,1.350000023841858,-9.899999618530273,39.35445022583008,0,
 956734,-0.40283203125,-1.033447265625,0.007568359375,12.07317066192627,-18.20121955871582,5.9146342277526855,23.549999237060547,1.0499999523162842,-11.550000190734863,39.689910888671875,0,
 956744,-0.424072265625,-0.928466796875,0.0380859375,4.390244007110596,-7.530488014221191,8.75,23.850000381469727,3.75,-10.199999809265137,39.64198684692383,0,
 956754,-0.432373046875,-0.896728515625,0.075439453125,4.0853657722473145,4.02439022064209,11.036585807800293,24.149999618530273,2.0999999046325684,-9.899999618530273,39.737831115722656,0,
 956764,-0.42578125,-0.89892578125,0.047119140625,3.0487804412841797,13.87195110321045,10.731707572937012,23.549999237060547,3.1500000953674316,-10.5,39.546142578125,0,
 956774,-0.3671875,-0.88330078125,0.0009765625,-2.0731706619262695,20.33536720275879,6.432927131652832,23.549999237060547,3.1500000953674316,-10.5,39.49821853637695,0,
 956784,-0.314208984375,-0.838623046875,-0.114013671875,-7.591463565826416,23.414634704589844,0.7621951103210449,24.600000381469727,2.0999999046325684,-11.699999809265137,39.689910888671875,0,
 956794,-0.279541015625,-0.804443359375,-0.21728515625,-6.128048896789551,24.908536911010742,-4.695122241973877,25.200000762939453,1.9500000476837158,-10.050000190734863,39.64198684692383,0,
 956804,-0.2119140625,-0.87255859375,-0.255615234375,1.6463414430618286,21.43292808532715,-10.670731544494629,24.75,3.9000000953674316,-11.550000190734863,39.64198684692383,0,
 956814,-0.181884765625,-0.812255859375,-0.25927734375,3.628048896789551,8.90243911743164,-16.310976028442383,24.75,3.9000000953674316,-11.550000190734863,39.64198684692383,0,
 956824,-0.2060546875,-0.750244140625,-0.317138671875,11.95121955871582,-6.5853657722473145,-21.981708526611328,24.450000762939453,2.25,-10.800000190734863,39.546142578125,0,
 956834,-0.1884765625,-0.839111328125,-0.317138671875,30.518293380737305,-16.43292808532715,-25.94512176513672,24.600000381469727,2.549999952316284,-9.149999618530273,39.35445022583008,0,
 956844,-0.1455078125,-0.992919921875,-0.2666015625,40.30487823486328,-25.365854263305664,-26.920732498168945,24.75,2.25,-10.5,39.64198684692383,0,
 956854,-0.1357421875,-1.101806640625,-0.198974609375,36.310977935791016,-34.63414764404297,-26.341463088989258,24.75,2.25,-10.5,39.64198684692383,0,
 956864,-0.163330078125,-1.197021484375,-0.201171875,21.73780632019043,-43.932926177978516,-22.591463088989258,22.799999237060547,3.9000000953674316,-12.0,39.737831115722656,0,
 956874,-0.168212890625,-1.127197265625,-0.0673828125,4.817073345184326,-50.0,-16.64634132385254,24.0,2.700000047683716,-12.75,39.83367919921875,0,
 956884,-0.243408203125,-1.06103515625,-0.03125,-13.109756469726562,-48.353660583496094,-3.0182926654815674,23.399999618530273,2.8499999046325684,-12.449999809265137,39.737831115722656,0,
 956894,-0.27001953125,-1.0,0.000732421875,-16.737804412841797,-43.780487060546875,2.378048896789551,23.399999618530273,2.8499999046325684,-12.449999809265137,39.737831115722656,0,
 956904,-0.3359375,-0.97412109375,0.008544921875,-15.030488014221191,-38.38414764404297,6.067073345184326,24.600000381469727,3.75,-13.199999809265137,39.737831115722656,0,
 956914,-0.372802734375,-0.939453125,0.0556640625,-13.993903160095215,-33.44512176513672,7.77439022064209,26.100000381469727,1.350000023841858,-13.649999618530273,39.546142578125,0,
 956924,-0.374755859375,-0.916748046875,0.046630859375,-12.896341323852539,-26.676830291748047,8.536585807800293,25.350000381469727,2.8499999046325684,-11.399999618530273,39.64198684692383,0,
 956934,-0.38037109375,-0.866943359375,0.0380859375,-9.359756469726562,-20.823171615600586,7.22560977935791,24.0,3.450000047683716,-13.050000190734863,39.64198684692383,0,
 956944,-0.360107421875,-0.88720703125,0.001953125,-8.109756469726562,-15.335366249084473,3.9634146690368652,24.0,3.450000047683716,-13.050000190734863,39.689910888671875,0,
 956954,-0.345458984375,-0.85107421875,-0.02197265625,-4.390244007110596,-10.945121765136719,0.12195122241973877,25.350000381469727,2.8499999046325684,-11.399999618530273,39.689910888671875,0,
 956964,-0.32421875,-0.88330078125,-0.04736328125,-4.2682929039001465,-8.384146690368652,-5.060975551605225,25.350000381469727,2.8499999046325684,-12.149999618530273,39.450294494628906,0,
 956974,-0.29248046875,-0.892578125,-0.064208984375,-4.908536911010742,-7.408536911010742,-9.45121955871582,24.450000762939453,3.1500000953674316,-12.0,39.689910888671875,0,
 956984,-0.3095703125,-0.854736328125,-0.09423828125,-2.0426828861236572,-6.25,-15.27439022064209,24.450000762939453,3.1500000953674316,-12.0,39.64198684692383,0,
 956994,-0.273193359375,-0.8798828125,-0.109130859375,-0.030487805604934692,-6.52439022064209,-18.90243911743164,24.899999618530273,2.0999999046325684,-11.699999809265137,39.546142578125,0,
 957004,-0.266845703125,-0.899658203125,-0.11767578125,2.804877996444702,-8.170731544494629,-20.121952056884766,24.0,3.1500000953674316,-12.300000190734863,39.689910888671875,0,
 957014,-0.250732421875,-0.947998046875,-0.099365234375,2.4390244483947754,-9.29878044128418,-18.963415145874023,25.5,1.9500000476837158,-14.550000190734863,39.64198684692383,0,
 957024,-0.255126953125,-0.979248046875,-0.082275390625,4.02439022064209,-9.481707572937012,-14.390244483947754,25.5,1.9500000476837158,-14.550000190734863,39.689910888671875,0,
 957034,-0.27587890625,-0.977294921875,-0.07470703125,7.195122241973877,-6.890244007110596,-8.567073822021484,22.799999237060547,2.25,-12.0,39.64198684692383,0,
 957044,-0.30126953125,-0.98779296875,-0.047119140625,9.57317066192627,-2.591463565826416,-1.402438998222351,22.5,1.5,-13.050000190734863,39.546142578125,0,
 957054,-0.31591796875,-1.051025390625,-0.0322265625,11.310976028442383,4.695122241973877,5.213414669036865,22.799999237060547,4.650000095367432,-12.300000190734863,39.88159942626953,0,
 957064,-0.293701171875,-1.019287109375,-0.02783203125,3.5365853309631348,10.396341323852539,8.87195110321045,23.850000381469727,2.549999952316284,-13.649999618530273,39.30652618408203,0,
 957074,-0.27734375,-0.9599609375,-0.039794921875,-3.0182926654815674,13.59756088256836,11.920731544494629,23.850000381469727,2.549999952316284,-13.649999618530273,39.689910888671875,0,
 957084,-0.264404296875,-0.947998046875,-0.0556640625,-3.2926828861236572,14.085366249084473,12.77439022064209,23.399999618530273,3.75,-12.149999618530273,39.737831115722656,0,
 957094,-0.2421875,-0.919921875,-0.059326171875,-4.939024448394775,13.018293380737305,11.554878234863281,23.549999237060547,3.9000000953674316,-12.75,39.689910888671875,0,
 957104,-0.238525390625,-0.881103515625,-0.080078125,-6.310975551605225,9.817073822021484,8.59756088256836,23.399999618530273,3.299999952316284,-12.149999618530273,39.689910888671875,0,
 957114,-0.247802734375,-0.892822265625,-0.110107421875,-5.304878234863281,6.310975551605225,4.695122241973877,23.399999618530273,3.299999952316284,-12.149999618530273,39.450294494628906,0,
 957124,-0.25634765625,-0.8681640625,-0.13623046875,-5.457317352294922,3.7804877758026123,-0.8231707215309143,23.850000381469727,2.8499999046325684,-12.899999618530273,39.64198684692383,0,
 957134,-0.260498046875,-0.858642578125,-0.133544921875,-2.6219513416290283,2.4390244483947754,-5.5182929039001465,24.149999618530273,2.549999952316284,-12.899999618530273,39.64198684692383,0,
 957144,-0.26416015625,-0.8779296875,-0.11572265625,1.9817073345184326,1.402438998222351,-9.207317352294922,23.100000381469727,2.8499999046325684,-12.449999809265137,39.64198684692383,0,
 957154,-0.29150390625,-0.90869140625,-0.1123046875,5.487804889678955,0.792682945728302,-13.079268455505371,23.100000381469727,2.8499999046325684,-12.449999809265137,39.689910888671875,0,
 957164,-0.276611328125,-0.9375,-0.090087890625,7.256097793579102,0.5487805008888245,-15.091464042663574,23.549999237060547,2.700000047683716,-13.050000190734863,39.64198684692383,0,
 957175,-0.312744140625,-0.9541015625,-0.095947265625,8.109756469726562,1.5548781156539917,-16.371952056884766,22.799999237060547,2.700000047683716,-12.0,39.450294494628906,0,
 957185,-0.3310546875,-0.911376953125,-0.11572265625,5.457317352294922,5.5182929039001465,-17.317073822021484,24.450000762939453,2.700000047683716,-12.0,39.49821853637695,0,
 957195,-0.263916015625,-0.916015625,-0.072509765625,6.829268455505371,9.756097793579102,-20.609756469726562,24.450000762939453,2.700000047683716,-12.0,39.64198684692383,0,
 957205,-0.2216796875,-0.942138671875,-0.0400390625,9.87804889678955,8.963415145874023,-22.225610733032227,23.100000381469727,3.299999952316284,-12.899999618530273,39.546142578125,0,
 957215,-0.244384765625,-0.95556640625,-0.0458984375,9.84756088256836,6.890244007110596,-22.65243911743164,23.850000381469727,5.699999809265137,-14.699999809265137,39.546142578125,0,
 957225,-0.25048828125,-0.97802734375,-0.0615234375,6.981707572937012,6.7682929039001465,-22.2560977935791,22.200000762939453,4.949999809265137,-11.699999809265137,39.737831115722656,0,
 957235,-0.24365234375,-0.96142578125,-0.068603515625,4.29878044128418,8.75,-21.128049850463867,23.549999237060547,3.9000000953674316,-13.050000190734863,39.737831115722656,0,
 957245,-0.239013671875,-0.96533203125,-0.072265625,4.0853657722473145,9.359756469726562,-20.579269409179688,23.549999237060547,3.9000000953674316,-13.050000190734863,39.689910888671875,0,
 957255,-0.232177734375,-0.965576171875,-0.081787109375,3.8719513416290283,9.57317066192627,-19.878049850463867,22.5,3.9000000953674316,-12.75,39.689910888671875,0,
 957265,-0.215576171875,-0.94140625,-0.097412109375,4.207317352294922,8.414634704589844,-19.969512939453125,23.100000381469727,3.299999952316284,-12.149999618530273,39.546142578125,0,
 957275,-0.21337890625,-0.931396484375,-0.111083984375,5.487804889678955,6.920732021331787,-20.121952056884766,21.0,3.9000000953674316,-12.75,39.35445022583008,0,
 957285,-0.2490234375,-0.939697265625,-0.127197265625,9.542683601379395,5.9146342277526855,-21.219512939453125,21.0,3.9000000953674316,-12.75,39.88159942626953,0,
 957295,-0.212158203125,-0.903564453125,-0.11572265625,10.091464042663574,4.695122241973877,-21.310976028442383,21.899999618530273,5.699999809265137,-13.949999809265137,39.450294494628906,0,
 957305,-0.2099609375,-0.886474609375,-0.10205078125,15.457317352294922,3.5060975551605225,-25.762195587158203,22.5,5.400000095367432,-11.550000190734863,39.737831115722656,0,
 957315,-0.185546875,-0.929931640625,-0.0703125,21.128049850463867,3.262195110321045,-27.10365867614746,22.649999618530273,4.949999809265137,-13.649999618530273,39.35445022583008,0,
 957325,-0.19482421875,-0.93896484375,-0.05224609375,24.14634132385254,1.6463414430618286,-29.268293380737305,22.649999618530273,4.949999809265137,-13.649999618530273,39.64198684692383,0,
 957335,-0.2041015625,-0.97509765625,-0.04150390625,25.48780632019043,1.3719512224197388,-30.48780632019043,20.549999237060547,6.300000190734863,-12.75,39.64198684692383,0,
 957345,-0.2060546875,-0.979736328125,-0.019775390625,19.512195587158203,2.7134146690368652,-32.13414764404297,21.75,6.300000190734863,-13.050000190734863,39.83367919921875,0,
 957355,-0.19970703125,-0.9912109375,-0.015869140625,17.13414764404297,3.5365853309631348,-31.676830291748047,21.450000762939453,6.449999809265137,-14.399999618530273,39.546142578125,0,
 957365,-0.196044921875,-1.010986328125,-0.007568359375,12.804878234863281,4.420732021331787,-30.914634704589844,19.950000762939453,6.0,-12.449999809265137,39.737831115722656,0,
 957375,-0.17578125,-1.00830078125,-0.009521484375,9.085366249084473,4.512195110321045,-29.573171615600586,20.399999618530273,6.449999809265137,-12.449999809265137,39.88159942626953,0,
 957385,-0.168212890625,-1.00634765625,-0.024169921875,6.036585330963135,4.756097793579102,-26.615854263305664,21.899999618530273,8.100000381469727,-14.699999809265137,39.64198684692383,0,
 957395,-0.157958984375,-1.00537109375,-0.031005859375,4.72560977935791,4.481707572937012,-23.871952056884766,20.399999618530273,8.100000381469727,-15.449999809265137,39.88159942626953,0,
 957405,-0.14697265625,-0.995361328125,-0.033935546875,3.9634146690368652,3.2926828861236572,-21.219512939453125,19.799999237060547,5.400000095367432,-13.5,39.737831115722656,0,
 957415,-0.13671875,-0.9833984375,-0.0419921875,4.115853786468506,2.195122003555298,-17.469512939453125,19.799999237060547,5.400000095367432,-13.5,39.689910888671875,0,
 957425,-0.134521484375,-0.98486328125,-0.046142578125,5.243902683258057,0.6707317233085632,-14.695122718811035,19.350000381469727,4.650000095367432,-13.800000190734863,39.546142578125,0,
 957435,-0.13623046875,-0.966796875,-0.05615234375,7.743902683258057,-0.6097561120986938,-12.469512939453125,19.350000381469727,5.400000095367432,-12.75,39.64198684692383,0,
 957445,-0.1376953125,-0.9716796875,-0.04541015625,9.329268455505371,-1.3719512224197388,-9.84756088256836,19.649999618530273,6.900000095367432,-13.649999618530273,39.64198684692383,0,
 957455,-0.141845703125,-0.975830078125,-0.0439453125,10.091464042663574,-2.012195110321045,-8.231707572937012,19.649999618530273,6.900000095367432,-13.649999618530273,39.35445022583008,0,
 957465,-0.15283203125,-0.980224609375,-0.0439453125,10.182927131652832,-2.3475611209869385,-7.804878234863281,20.549999237060547,6.300000190734863,-13.050000190734863,39.546142578125,0,
 957475,-0.151123046875,-0.991455078125,-0.03173828125,5.487804889678955,-2.408536672592163,-4.542683124542236,20.700000762939453,4.949999809265137,-13.649999618530273,39.49821853637695,0,
 957485,-0.156494140625,-1.010986328125,-0.013916015625,1.9512195587158203,-0.9756097793579102,-7.804878234863281,18.899999618530273,6.449999809265137,-13.649999618530273,39.64198684692383,0,
 957495,-0.123779296875,-0.888671875,-0.030517578125,10.457317352294922,-0.7012194991111755,-6.79878044128418,18.899999618530273,6.449999809265137,-13.649999618530273,39.64198684692383,0,
 957505,-0.142822265625,-1.00439453125,0.00830078125,12.865854263305664,-1.6463414430618286,-7.256097793579102,19.350000381469727,4.650000095367432,-14.550000190734863,39.35445022583008,0,
 957515,-0.15234375,-0.967529296875,-0.005615234375,8.567073822021484,-1.25,-6.128048896789551,19.350000381469727,6.300000190734863,-15.0,39.64198684692383,0,
 957525,-0.14990234375,-0.98681640625,-0.005615234375,6.8597564697265625,-0.5487805008888245,-5.579268455505371,20.100000381469727,4.650000095367432,-16.5,39.737831115722656,0,
 957535,-0.141845703125,-0.972900390625,-0.0048828125,3.8719513416290283,0.4268292784690857,-5.3353657722473145,19.799999237060547,6.300000190734863,-13.5,39.64198684692383,0,
 957545,-0.13037109375,-0.9609375,-0.016845703125,1.920731782913208,0.8841463327407837,-4.542683124542236,19.799999237060547,6.300000190734863,-13.5,39.689910888671875,0,
 957555,-0.13330078125,-0.95947265625,-0.028076171875,1.585365891456604,1.1585365533828735,-4.115853786468506,18.600000381469727,7.800000190734863,-13.800000190734863,39.450294494628906,0,
 957565,-0.121826171875,-0.946533203125,-0.018798828125,1.097561001777649,1.25,-3.5975611209869385,18.299999237060547,7.050000190734863,-14.550000190734863,39.546142578125,0,
 957575,-0.117431640625,-0.951416015625,-0.02490234375,2.4695122241973877,0.396341472864151,-2.8353660106658936,19.049999237060547,5.400000095367432,-14.25,39.64198684692383,0,
 957585,-0.12548828125,-0.9619140625,-0.02734375,3.3231709003448486,-0.09146341681480408,-2.3475611209869385,19.049999237060547,5.400000095367432,-14.25,39.546142578125,0,
 957595,-0.130615234375,-0.966552734375,-0.0205078125,3.1402440071105957,-0.6097561120986938,-1.2195122241973877,19.049999237060547,7.050000190734863,-13.5,39.49821853637695,0,
 957605,-0.129638671875,-0.97314453125,-0.016357421875,3.567073345184326,-1.0670732259750366,-0.792682945728302,19.049999237060547,6.599999904632568,-12.300000190734863,39.450294494628906,0,
 957615,-0.13037109375,-0.97314453125,-0.015625,3.5060975551605225,-1.3109756708145142,-0.15243902802467346,19.049999237060547,5.849999904632568,-13.050000190734863,39.64198684692383,0,
 957625,-0.1376953125,-0.9755859375,-0.0205078125,3.262195110321045,-1.7073171138763428,0.24390244483947754,19.049999237060547,5.849999904632568,-13.050000190734863,39.49821853637695,0,
 957635,-0.134521484375,-0.975830078125,-0.01513671875,2.591463565826416,-1.432926893234253,0.6402438879013062,21.0,7.050000190734863,-14.550000190734863,39.64198684692383,0,
 957645,-0.14208984375,-0.983642578125,-0.009765625,2.2865853309631348,-1.0060975551605225,0.9756097793579102,19.950000762939453,7.199999809265137,-12.899999618530273,39.35445022583008,0,
 957655,-0.137451171875,-0.985595703125,-0.00634765625,1.097561001777649,-0.12195122241973877,1.25,17.850000381469727,7.800000190734863,-14.25,39.35445022583008,0,
 957665,-0.138427734375,-0.980224609375,-0.009521484375,-0.3048780560493469,0.4268292784690857,1.0670732259750366,19.649999618530273,7.650000095367432,-13.949999809265137,39.737831115722656,0,
 957675,-0.138427734375,-0.981689453125,-0.004638671875,-1.432926893234253,0.5182926654815674,1.6768293380737305,19.799999237060547,6.599999904632568,-13.800000190734863,39.689910888671875,0,
 957685,-0.1357421875,-0.9677734375,-0.014404296875,-2.7134146690368652,0.4878048896789551,1.5548781156539917,18.600000381469727,7.050000190734863,-12.75,39.689910888671875,0,
 957695,-0.134521484375,-0.961669921875,-0.023193359375,-2.378048896789551,0.4878048896789551,1.5548781156539917,18.600000381469727,5.849999904632568,-14.25,39.737831115722656,0,
 957705,-0.130859375,-0.961669921875,-0.026123046875,-2.378048896789551,-0.030487805604934692,1.7682926654815674,19.350000381469727,6.300000190734863,-13.800000190734863,39.49821853637695,0,
 957725,-0.131591796875,-0.9599609375,-0.019775390625,-0.8231707215309143,-0.4268292784690857,2.4695122241973877,19.950000762939453,7.650000095367432,-13.949999809265137,39.64198684692383,0,
 957735,-0.13671875,-0.94970703125,-0.022705078125,-0.5182926654815674,-0.15243902802467346,2.195122003555298,20.399999618530273,6.0,-15.149999618530273,39.83367919921875,0,
 957745,-0.13330078125,-0.96484375,-0.0126953125,0.3658536672592163,0.3658536672592163,2.408536672592163,21.450000762939453,6.0,-13.949999809265137,39.64198684692383,0,
 957755,-0.13916015625,-0.96875,-0.014404296875,-0.12195122241973877,0.7317073345184326,2.2865853309631348,21.450000762939453,6.0,-13.949999809265137,39.64198684692383,0,
 957765,-0.14208984375,-0.97216796875,-0.01123046875,-0.6402438879013062,1.25,2.2560975551605225,18.899999618530273,8.399999618530273,-13.949999809265137,39.64198684692383,0,
 957775,-0.144775390625,-0.975341796875,-0.01513671875,-1.5548781156539917,1.097561001777649,2.1646342277526855,19.049999237060547,6.599999904632568,-14.550000190734863,39.83367919921875,0,
 957785,-0.140380859375,-0.967041015625,-0.019287109375,-2.195122003555298,1.3414634466171265,1.4939024448394775,18.0,7.199999809265137,-13.199999809265137,39.737831115722656,0,
 957795,-0.147216796875,-0.971435546875,-0.0224609375,-2.1646342277526855,1.0060975551605225,0.9451219439506531,18.0,7.199999809265137,-13.199999809265137,39.30652618408203,0,
 957805,-0.140380859375,-0.967529296875,-0.020263671875,-1.7682926654815674,1.6768293380737305,0.24390244483947754,19.649999618530273,7.650000095367432,-13.949999809265137,39.737831115722656,0,
 957815,-0.145751953125,-0.97265625,-0.021240234375,-1.3719512224197388,1.4634146690368652,0.24390244483947754,19.799999237060547,6.300000190734863,-12.75,39.546142578125,0,
 957825,-0.14599609375,-0.96923828125,-0.021240234375,-1.5243902206420898,1.3719512224197388,0.3048780560493469,18.299999237060547,7.050000190734863,-16.049999237060547,39.30652618408203,0,
 957835,-0.13671875,-0.966796875,-0.01806640625,-1.4634146690368652,1.432926893234253,0.3353658616542816,19.950000762939453,5.699999809265137,-16.200000762939453,39.88159942626953,0,
 957845,-0.137939453125,-0.96435546875,-0.02294921875,-0.8841463327407837,1.3109756708145142,0.8536585569381714,19.950000762939453,5.699999809265137,-16.200000762939453,39.49821853637695,0,
 957855,-0.13623046875,-0.96435546875,-0.023681640625,-1.0060975551605225,0.396341472864151,0.6402438879013062,19.350000381469727,7.5,-13.5,39.49821853637695,0,
 957865,-0.133544921875,-0.95849609375,-0.02685546875,0.3048780560493469,0.21341463923454285,0.9146341681480408,19.950000762939453,7.199999809265137,-13.949999809265137,39.88159942626953,0,
 957875,-0.138671875,-0.96728515625,-0.024169921875,-0.12195122241973877,-0.24390244483947754,0.8841463327407837,19.950000762939453,6.449999809265137,-14.399999618530273,39.689910888671875,0,
 957885,-0.136474609375,-0.95556640625,-0.02197265625,-0.15243902802467346,-0.15243902802467346,0.8536585569381714,19.950000762939453,6.449999809265137,-14.399999618530273,39.64198684692383,0,
 957895,-0.140869140625,-0.968994140625,-0.0126953125,-0.6707317233085632,0.09146341681480408,1.0670732259750366,20.549999237060547,6.599999904632568,-13.5,39.546142578125,0,
 957905,-0.139892578125,-0.9677734375,-0.01513671875,-0.9451219439506531,0.7317073345184326,1.1280487775802612,18.450000762939453,6.449999809265137,-13.949999809265137,39.737831115722656,0,
 957916,-0.142333984375,-0.96630859375,-0.0224609375,-1.2804877758026123,0.7317073345184326,0.5792682766914368,19.350000381469727,7.5,-13.5,39.64198684692383,0,
 957926,-0.141357421875,-0.969970703125,-0.013427734375,-1.3719512224197388,0.8231707215309143,1.1280487775802612,19.350000381469727,7.5,-13.5,39.737831115722656,0,
 957936,-0.142822265625,-0.972412109375,-0.021484375,-1.5548781156539917,0.6707317233085632,0.8231707215309143,19.799999237060547,6.599999904632568,-16.799999237060547,39.83367919921875,0,
 957946,-0.14453125,-0.96630859375,-0.02197265625,-0.9756097793579102,0.6707317233085632,1.0670732259750366,20.700000762939453,6.0,-14.399999618530273,39.450294494628906,0,
 957956,-0.149169921875,-0.963623046875,-0.0205078125,-0.15243902802467346,0.6707317233085632,0.8536585569381714,18.899999618530273,6.900000095367432,-15.449999809265137,39.977447509765625,0,
 957966,-0.144775390625,-0.96923828125,-0.021240234375,0.12195122241973877,0.6402438879013062,0.5792682766914368,20.399999618530273,5.699999809265137,-14.399999618530273,39.83367919921875,0,
 957986,-0.136962890625,-0.96728515625,-0.010498046875,-0.24390244483947754,0.6707317233085632,1.2195122241973877,20.399999618530273,5.25,-14.399999618530273,39.689910888671875,0,
 957996,-0.141357421875,-0.965087890625,-0.019775390625,-0.12195122241973877,0.6707317233085632,0.6402438879013062,19.350000381469727,7.5,-13.050000190734863,39.546142578125,0,
 958006,-0.142333984375,-0.96337890625,-0.02734375,-0.24390244483947754,0.4268292784690857,0.6707317233085632,20.549999237060547,6.599999904632568,-13.800000190734863,39.35445022583008,0,
 958016,-0.139892578125,-0.96484375,-0.022216796875,-0.15243902802467346,0.3353658616542816,0.18292683362960815,20.549999237060547,6.599999904632568,-13.800000190734863,39.64198684692383,0,
 958026,-0.140380859375,-0.958251953125,-0.01708984375,0.4573170840740204,0.4573170840740204,0.3048780560493469,20.700000762939453,6.449999809265137,-13.649999618530273,39.64198684692383,0,
 958046,-0.142822265625,-0.968994140625,-0.013671875,-0.6707317233085632,0.8231707215309143,0.060975611209869385,19.200000762939453,7.199999809265137,-15.449999809265137,39.546142578125,0,
 958056,-0.14453125,-0.97509765625,-0.0166015625,-1.1585365533828735,1.0060975551605225,0.24390244483947754,19.200000762939453,7.199999809265137,-15.449999809265137,39.737831115722656,0,
 958066,-0.142333984375,-0.967529296875,-0.017578125,-1.4939024448394775,1.3414634466171265,0.4268292784690857,18.450000762939453,7.199999809265137,-15.149999618530273,39.64198684692383,0,
 958076,-0.141357421875,-0.97021484375,-0.0185546875,-2.22560977935791,1.5243902206420898,0.4268292784690857,20.549999237060547,7.050000190734863,-14.550000190734863,39.689910888671875,0,
 958086,-0.140380859375,-0.966796875,-0.017822265625,-1.7987805604934692,1.3414634466171265,0.27439025044441223,19.049999237060547,6.300000190734863,-14.25,39.64198684692383,0,
 958096,-0.14111328125,-0.96630859375,-0.01513671875,-2.5,1.2195122241973877,0.3353658616542816,19.049999237060547,6.300000190734863,-14.25,39.11483383178711,0,
 958106,-0.136474609375,-0.962890625,-0.025390625,-2.1341464519500732,0.9451219439506531,0.396341472864151,19.649999618530273,6.0,-13.199999809265137,39.64198684692383,0,
 958116,-0.1416015625,-0.961669921875,-0.027587890625,-1.8292683362960815,0.8536585569381714,0.24390244483947754,21.299999237060547,5.849999904632568,-15.0,39.737831115722656,0,
 958126,-0.1357421875,-0.968505859375,-0.025146484375,-1.7987805604934692,0.3353658616542816,0.4268292784690857,17.25,8.399999618530273,-13.949999809265137,39.64198684692383,0,
 958136,-0.137939453125,-0.97216796875,-0.0166015625,-0.9756097793579102,0.24390244483947754,0.18292683362960815,18.0,7.650000095367432,-14.699999809265137,39.689910888671875,0,
 958146,-0.1435546875,-0.962890625,-0.0205078125,-0.8536585569381714,0.3048780560493469,0.3048780560493469,18.0,7.650000095367432,-14.699999809265137,39.49821853637695,0,
 958156,-0.1396484375,-0.9736328125,-0.022705078125,-0.7621951103210449,-0.3658536672592163,0.396341472864151,19.049999237060547,6.599999904632568,-13.5,39.64198684692383,0,
 958166,-0.14111328125,-0.97119140625,-0.01953125,-0.8536585569381714,0.3353658616542816,0.6402438879013062,20.399999618530273,6.0,-13.199999809265137,39.64198684692383,0,
 958176,-0.137451171875,-0.974365234375,-0.020263671875,-1.1890244483947754,0.4573170840740204,1.0365853309631348,19.049999237060547,7.5,-13.800000190734863,39.64198684692383,0,
 958186,-0.140869140625,-0.967041015625,-0.019775390625,-2.0426828861236572,0.6097561120986938,0.4878048896789551,19.049999237060547,7.5,-13.800000190734863,39.64198684692383,0,
 958196,-0.138916015625,-0.97314453125,-0.015380859375,-2.0731706619262695,0.4573170840740204,0.9146341681480408,20.100000381469727,8.699999809265137,-14.550000190734863,39.64198684692383,0,
 958206,-0.141357421875,-0.968994140625,-0.018310546875,-2.6524391174316406,0.15243902802467346,0.7012194991111755,20.549999237060547,5.400000095367432,-12.75,39.737831115722656,0,
 958216,-0.14453125,-0.97119140625,-0.02490234375,-2.591463565826416,0.6707317233085632,0.3658536672592163,20.700000762939453,7.199999809265137,-14.699999809265137,39.64198684692383,0,
 958226,-0.139892578125,-0.9677734375,-0.02294921875,-2.896341562271118,0.9756097793579102,0.9146341681480408,20.700000762939453,7.199999809265137,-14.699999809265137,39.64198684692383,0,
 958236,-0.13916015625,-0.967529296875,-0.0234375,-2.7439024448394775,0.9146341681480408,0.5487805008888245,18.899999618530273,6.0,-13.649999618530273,39.64198684692383,0,
 958246,-0.13720703125,-0.96484375,-0.031982421875,-2.5304877758026123,0.6097561120986938,0.9756097793579102,19.049999237060547,4.349999904632568,-15.75,39.64198684692383,0,
 958256,-0.134033203125,-0.956298828125,-0.031982421875,-0.15243902802467346,-0.15243902802467346,0.9756097793579102,19.649999618530273,6.0,-14.399999618530273,39.737831115722656,0,
 958266,-0.138671875,-0.962158203125,-0.034912109375,1.3109756708145142,-0.6097561120986938,1.1890244483947754,18.450000762939453,6.900000095367432,-12.449999809265137,39.689910888671875,0,
 958276,-0.1328125,-0.966552734375,-0.035400390625,3.2012195587158203,-1.25,1.4939024448394775,19.049999237060547,7.5,-13.5,39.83367919921875,0,
 958286,-0.133056640625,-0.9677734375,-0.03271484375,4.542683124542236,-2.012195110321045,1.7987805604934692,19.950000762939453,5.25,-14.399999618530273,39.2106819152832,0,
 958296,-0.13330078125,-0.96533203125,-0.0361328125,5.396341800689697,-2.591463565826416,2.4695122241973877,19.649999618530273,6.0,-14.699999809265137,39.83367919921875,0,
 958306,-0.1376953125,-0.978271484375,-0.024169921875,5.121951103210449,-3.4146342277526855,2.9573171138763428,20.549999237060547,6.599999904632568,-14.25,39.83367919921875,0,
 958316,-0.14404296875,-0.9814453125,-0.0185546875,4.512195110321045,-3.7195122241973877,3.262195110321045,20.549999237060547,6.599999904632568,-14.25,39.689910888671875,0,
 958326,-0.1533203125,-0.99755859375,-0.013671875,0.7012194991111755,-3.658536672592163,4.939024448394775,19.649999618530273,7.199999809265137,-13.949999809265137,39.64198684692383,0,
 958336,-0.18603515625,-1.146240234375,-0.05517578125,-15.579268455505371,-2.378048896789551,2.9268293380737305,20.399999618530273,6.0,-13.649999618530273,39.35445022583008,0,
 958346,-0.17626953125,-0.84765625,-0.056884765625,2.4695122241973877,-0.5487805008888245,4.054878234863281,19.950000762939453,7.650000095367432,-16.950000762939453,39.546142578125,0,
 958356,-0.1328125,-0.908447265625,-0.021728515625,11.493903160095215,-2.5304877758026123,5.091463565826416,19.950000762939453,7.650000095367432,-16.950000762939453,39.64198684692383,0,
 958366,-0.151123046875,-1.035888671875,0.03857421875,2.77439022064209,-3.2012195587158203,5.9146342277526855,19.049999237060547,6.300000190734863,-13.5,39.737831115722656,0,
 958376,-0.082763671875,-0.980224609375,0.075439453125,1.6463414430618286,-0.8841463327407837,5.091463565826416,22.200000762939453,6.0,-13.949999809265137,39.64198684692383,0,
 958386,-0.161865234375,-0.88720703125,0.00146484375,7.591463565826416,-2.7439024448394775,8.04878044128418,20.100000381469727,6.599999904632568,-13.050000190734863,39.450294494628906,0,
 958396,-0.16748046875,-1.01220703125,0.011474609375,3.2012195587158203,-0.060975611209869385,9.29878044128418,20.100000381469727,6.599999904632568,-13.050000190734863,39.64198684692383,0,
 958406,-0.166015625,-0.9912109375,-0.019287109375,0.12195122241973877,2.195122003555298,11.341464042663574,19.049999237060547,5.849999904632568,-15.0,39.546142578125,0,
 958416,-0.1484375,-1.098388671875,0.001708984375,-4.146341323852539,3.8719513416290283,13.993903160095215,20.399999618530273,6.449999809265137,-13.199999809265137,39.737831115722656,0,
 958426,-0.162353515625,-0.848876953125,-0.009765625,-18.536584854125977,4.603658676147461,15.579268455505371,21.450000762939453,6.449999809265137,-13.649999618530273,39.689910888671875,0,
 958436,-0.111328125,-0.957763671875,-0.00537109375,-4.237804889678955,5.457317352294922,19.024391174316406,19.350000381469727,5.849999904632568,-13.5,39.2106819152832,0,
 958446,-0.1416015625,-1.078125,0.028076171875,0.7012194991111755,1.6463414430618286,25.94512176513672,19.350000381469727,5.849999904632568,-13.5,39.546142578125,0,
 958456,-0.153564453125,-0.999267578125,-0.01611328125,-7.957317352294922,0.27439025044441223,31.707317352294922,21.149999618530273,5.699999809265137,-14.399999618530273,39.737831115722656,0,
 958466,-0.181884765625,-0.94580078125,-0.01611328125,-8.20121955871582,-0.09146341681480408,36.310977935791016,20.549999237060547,6.300000190734863,-12.75,39.35445022583008,0,
 958476,-0.1416015625,-1.0419921875,0.000244140625,-6.463414669036865,0.6097561120986938,39.024391174316406,21.0,6.300000190734863,-13.5,39.689910888671875,0,
 958486,-0.157958984375,-1.024169921875,-0.019775390625,-8.963415145874023,-4.878048896789551,45.274391174316406,21.0,6.300000190734863,-13.5,39.64198684692383,0,
 958496,-0.218505859375,-0.9423828125,-0.0615234375,-11.79878044128418,-7.408536911010742,49.26829528808594,20.100000381469727,4.349999904632568,-12.75,39.83367919921875,0,
 958506,-0.17431640625,-1.03857421875,-0.074951171875,-9.146341323852539,-5.365853786468506,52.3780517578125,21.0,5.099999904632568,-14.25,39.83367919921875,0,
 958516,-0.185791015625,-0.99609375,-0.142333984375,-14.146341323852539,-10.487805366516113,59.39024353027344,21.149999618530273,4.949999809265137,-13.649999618530273,39.689910888671875,0,
 958526,-0.212646484375,-1.04150390625,-0.204833984375,-14.17682933807373,-15.457317352294922,64.26829528808594,21.149999618530273,4.949999809265137,-13.649999618530273,39.689910888671875,0,
 958536,-0.22216796875,-1.0224609375,-0.13330078125,-14.603658676147461,-20.792682647705078,70.03048706054688,21.450000762939453,5.699999809265137,-13.649999618530273,39.450294494628906,0,
 958546,-0.241455078125,-1.047119140625,-0.147705078125,-20.70121955871582,-21.676830291748047,70.36585235595703,23.25,5.099999904632568,-14.550000190734863,39.689910888671875,0,
 958556,-0.21533203125,-0.94384765625,-0.1435546875,-29.207317352294922,-20.2439022064209,69.05487823486328,22.649999618530273,2.549999952316284,-13.199999809265137,39.450294494628906,0,
 958566,-0.28515625,-0.888427734375,-0.1357421875,-28.414634704589844,-19.908536911010742,67.28659057617188,23.25,3.450000047683716,-13.800000190734863,39.64198684692383,0,
 958576,-0.331787109375,-0.91845703125,-0.08642578125,-21.03658676147461,-16.463415145874023,63.963417053222656,24.75,2.25,-14.25,39.737831115722656,0,
 958586,-0.289794921875,-0.968505859375,0.062255859375,-17.987804412841797,-18.292682647705078,56.82926940917969,26.100000381469727,2.549999952316284,-12.149999618530273,39.49821853637695,0,
 958596,-0.33349609375,-0.9404296875,0.03076171875,-27.378049850463867,-22.713415145874023,52.59146499633789,25.5,2.700000047683716,-13.5,39.49821853637695,0,
 958606,-0.267578125,-0.828369140625,0.1103515625,-33.2621955871582,-24.78658676147461,50.60975646972656,25.200000762939453,1.5,-13.800000190734863,39.689910888671875,0,
 958616,-0.353759765625,-0.872802734375,0.084228515625,-30.2439022064209,-26.73780632019043,46.09756088256836,25.200000762939453,1.5,-13.800000190734863,39.737831115722656,0,
 958626,-0.320068359375,-0.954833984375,0.052978515625,-29.84756088256836,-24.542682647705078,42.80487823486328,25.5,2.25,-13.050000190734863,39.64198684692383,0,
 958636,-0.300048828125,-0.92626953125,0.04296875,-32.34756088256836,-21.79878044128418,42.530487060546875,26.25,1.9500000476837158,-12.75,39.49821853637695,0,
 958646,-0.27783203125,-0.89208984375,-0.015625,-37.408538818359375,-19.176830291748047,41.09756088256836,26.549999237060547,0.8999999761581421,-12.449999809265137,39.546142578125,0,
 958656,-0.31005859375,-0.896240234375,-0.058349609375,-36.76829528808594,-18.414634704589844,41.7378044128418,26.549999237060547,0.8999999761581421,-12.449999809265137,39.35445022583008,0,
 958666,-0.54736328125,-1.21826171875,-0.035888671875,-34.42073440551758,-17.560976028442383,39.908538818359375,28.049999237060547,0.44999998807907104,-11.399999618530273,39.689910888671875,0,
 958676,-0.4267578125,-0.80517578125,-0.09375,-52.59146499633789,-15.731707572937012,20.85365867614746,28.649999618530273,0.30000001192092896,-11.550000190734863,39.546142578125,0,
 958686,-0.307861328125,-0.884765625,-0.0205078125,-34.2378044128418,-9.817073822021484,21.73780632019043,26.850000381469727,0.15000000596046448,-12.899999618530273,39.450294494628906,0,
 958696,-0.422607421875,-0.902099609375,-0.068359375,-41.18902587890625,-13.262195587158203,13.62804889678955,26.850000381469727,0.15000000596046448,-12.899999618530273,39.546142578125,0,
 958706,-0.39697265625,-0.87451171875,-0.06689453125,-40.24390411376953,-5.884146690368652,15.304878234863281,27.450000762939453,-0.30000001192092896,-12.75,39.49821853637695,0,
 958716,-0.37841796875,-0.946533203125,-0.00341796875,-42.9878044128418,-0.7012194991111755,10.70121955871582,27.450000762939453,0.0,-12.0,39.737831115722656,0,
 958726,-0.420654296875,-0.937744140625,-0.01806640625,-46.98170852661133,5.3353657722473145,7.743902683258057,28.649999618530273,-0.75,-10.800000190734863,39.35445022583008,0,
 958737,-0.447021484375,-0.89697265625,-0.008544921875,-50.60975646972656,11.79878044128418,4.542683124542236,28.049999237060547,0.44999998807907104,-11.699999809265137,39.689910888671875,0,
 958747,-0.443115234375,-0.86474609375,-0.041259765625,-52.59146499633789,17.7439022064209,1.25,28.049999237060547,0.44999998807907104,-11.699999809265137,39.83367919921875,0,
 958757,-0.432373046875,-0.84765625,-0.072509765625,-52.65243911743164,22.469512939453125,-2.195122003555298,28.950000762939453,-1.9500000476837158,-16.049999237060547,39.64198684692383,0,
 958767,-0.41357421875,-0.8466796875,-0.125,-52.19512176513672,26.615854263305664,-6.371951580047607,27.600000381469727,-1.649999976158142,-10.649999618530273,39.64198684692383,0,
 958777,-0.379150390625,-0.800537109375,-0.15673828125,-48.23170852661133,28.109756469726562,-11.036585807800293,29.100000381469727,0.8999999761581421,-10.649999618530273,39.450294494628906,0,
 958787,-0.32861328125,-0.79296875,-0.214599609375,-40.67073440551758,25.762195587158203,-14.054878234863281,29.100000381469727,0.8999999761581421,-10.649999618530273,39.64198684692383,0,
 958797,-0.335205078125,-0.813720703125,-0.2470703125,-38.353660583496094,24.542682647705078,-17.957317352294922,28.049999237060547,0.44999998807907104,-8.399999618530273,39.49821853637695,0,
 958807,-0.339111328125,-0.789306640625,-0.297607421875,-30.213415145874023,23.170732498168945,-22.560976028442383,25.649999618530273,-0.15000000596046448,-9.449999809265137,39.64198684692383,0,
 958817,-0.35205078125,-0.77978515625,-0.290283203125,-21.03658676147461,21.829269409179688,-27.042682647705078,27.450000762939453,0.75,-10.050000190734863,39.64198684692383,0,
 958827,-0.34375,-0.759521484375,-0.25390625,-13.414634704589844,20.823171615600586,-31.40243911743164,27.450000762939453,0.75,-10.050000190734863,39.30652618408203,0,
 958837,-0.3173828125,-0.814697265625,-0.212646484375,-12.560976028442383,18.658536911010742,-34.1158561706543,25.5,0.30000001192092896,-8.25,39.83367919921875,0,
 958847,-0.290771484375,-0.893310546875,-0.2265625,-12.134146690368652,15.304878234863281,-33.04878234863281,26.25,0.0,-7.5,39.450294494628906,0,
 958857,-0.293212890625,-0.908447265625,-0.246337890625,-10.609756469726562,14.146341323852539,-30.33536720275879,28.799999237060547,0.44999998807907104,-13.199999809265137,39.737831115722656,0,
 958867,-0.32080078125,-0.935546875,-0.257568359375,-5.70121955871582,13.231707572937012,-25.54878044128418,24.75,-0.75,-9.0,39.64198684692383,0,
 958877,-0.292236328125,-1.02490234375,-0.18603515625,-7.9268293380737305,11.25,-20.121952056884766,28.200000762939453,-0.30000001192092896,-7.800000190734863,39.64198684692383,0,
 958887,-0.3056640625,-0.990234375,-0.20166015625,-11.859756469726562,8.658536911010742,-14.603658676147461,25.649999618530273,-0.44999998807907104,-9.899999618530273,39.689910888671875,0,
 958897,-0.315673828125,-0.941162109375,-0.21923828125,-13.109756469726562,6.890244007110596,-9.542683601379395,26.100000381469727,0.8999999761581421,-7.949999809265137,39.64198684692383,0,
 958907,-0.30517578125,-0.893310546875,-0.24365234375,-10.731707572937012,6.432927131652832,-6.310975551605225,25.200000762939453,0.75,-6.300000190734863,39.689910888671875,0,
 958917,-0.30810546875,-0.846923828125,-0.2548828125,-6.341463565826416,6.737804889678955,-4.2682929039001465,25.200000762939453,0.75,-6.300000190734863,39.64198684692383,0,
 958927,-0.3037109375,-0.8203125,-0.2587890625,0.3353658616542816,7.9268293380737305,-3.353658676147461,25.200000762939453,0.30000001192092896,-7.050000190734863,39.689910888671875,0,
 958937,-0.315673828125,-0.793701171875,-0.2705078125,6.371951580047607,9.207317352294922,-4.6646342277526855,26.100000381469727,0.15000000596046448,-7.199999809265137,39.737831115722656,0,
 958947,-0.312255859375,-0.797119140625,-0.2451171875,13.780488014221191,10.182927131652832,-7.469512462615967,25.5,-0.30000001192092896,-7.050000190734863,39.49821853637695,0,
 958957,-0.297119140625,-0.839111328125,-0.232666015625,18.780488967895508,10.762195587158203,-11.25,25.5,-0.30000001192092896,-7.050000190734863,39.64198684692383,0,
 958967,-0.29052734375,-0.893798828125,-0.1904296875,20.426830291748047,10.42682933807373,-12.804878234863281,24.75,0.75,-7.5,39.689910888671875,0,
 958977,-0.285888671875,-0.97265625,-0.163330078125,19.390243530273438,10.487805366516113,-13.262195587158203,25.350000381469727,0.8999999761581421,-7.949999809265137,39.546142578125,0,
 958987,-0.291748046875,-1.021728515625,-0.1630859375,14.57317066192627,9.786585807800293,-11.006097793579102,23.399999618530273,0.15000000596046448,-9.149999618530273,39.83367919921875,0,
 958997,-0.3046875,-1.0390625,-0.16455078125,8.140244483947754,9.17682933807373,-7.896341800689697,23.399999618530273,0.15000000596046448,-9.149999618530273,39.546142578125,0,
 959007,-0.282958984375,-1.034423828125,-0.173095703125,1.2195122241973877,8.536585807800293,-4.939024448394775,23.850000381469727,1.649999976158142,-7.949999809265137,39.689910888671875,0,
 959017,-0.2509765625,-1.0234375,-0.1943359375,-5.060975551605225,5.243902683258057,-2.5304877758026123,25.5,0.75,-7.050000190734863,39.737831115722656,0,
 959027,-0.21484375,-0.97509765625,-0.219970703125,-11.40243911743164,-0.4878048896789551,-0.3048780560493469,24.899999618530273,2.0999999046325684,-8.399999618530273,39.737831115722656,0,
 959037,-0.223876953125,-0.90380859375,-0.250244140625,-14.207317352294922,-8.170731544494629,1.402438998222351,25.950000762939453,1.5,-9.0,39.49821853637695,0,
 959047,-0.24658203125,-0.854736328125,-0.28857421875,-10.853658676147461,-14.17682933807373,2.4390244483947754,25.950000762939453,1.5,-9.0,39.689910888671875,0,
 959057,-0.27197265625,-0.845703125,-0.31591796875,-4.603658676147461,-18.04878044128418,2.6219513416290283,25.950000762939453,1.9500000476837158,-9.0,39.64198684692383,0,
 959067,-0.2802734375,-0.83740234375,-0.30615234375,2.378048896789551,-19.420732498168945,2.317073106765747,25.950000762939453,-1.9500000476837158,-9.0,39.546142578125,0,
 959077,-0.286865234375,-0.8583984375,-0.26953125,10.609756469726562,-20.121952056884766,2.195122003555298,24.75,0.30000001192092896,-7.5,39.450294494628906,0,
 959087,-0.292236328125,-0.888916015625,-0.222900390625,15.731707572937012,-21.310976028442383,2.0426828861236572,24.75,0.30000001192092896,-7.5,39.546142578125,0,
 959097,-0.320068359375,-0.90576171875,-0.20166015625,17.5,-21.768293380737305,1.9817073345184326,26.25,1.0499999523162842,-9.300000190734863,39.689910888671875,0,
 959107,-0.33984375,-0.9228515625,-0.16064453125,18.20121955871582,-20.030488967895508,2.317073106765747,26.549999237060547,1.350000023841858,-7.949999809265137,39.737831115722656,0,
 959117,-0.341552734375,-0.930419921875,-0.140869140625,17.378049850463867,-16.920732498168945,2.3475611209869385,26.100000381469727,1.350000023841858,-9.149999618530273,39.450294494628906,0,
 959127,-0.3515625,-0.953857421875,-0.129150390625,15.914634704589844,-13.506097793579102,2.9573171138763428,26.100000381469727,1.350000023841858,-9.149999618530273,39.64198684692383,0,
 959137,-0.3408203125,-0.949951171875,-0.132080078125,11.585366249084473,-9.756097793579102,2.591463565826416,25.649999618530273,0.44999998807907104,-9.449999809265137,39.64198684692383,0,
 959147,-0.33935546875,-0.917724609375,-0.14404296875,7.408536911010742,-6.402439117431641,2.5609755516052246,26.549999237060547,0.8999999761581421,-9.899999618530273,39.737831115722656,0,
 959157,-0.32470703125,-0.92822265625,-0.1572265625,6.097560882568359,-3.7804877758026123,1.7682926654815674,25.5,1.0499999523162842,-9.0,39.64198684692383,0,
 959167,-0.3037109375,-0.9248046875,-0.166259765625,2.1646342277526855,-2.5,0.09146341681480408,26.850000381469727,-0.44999998807907104,-10.649999618530273,39.35445022583008,0,
 959177,-0.281982421875,-0.9140625,-0.18310546875,2.5609755516052246,-5.030488014221191,-0.5792682766914368,25.950000762939453,0.75,-9.75,39.450294494628906,0,
 959187,-0.2900390625,-0.91650390625,-0.201904296875,1.6768293380737305,-6.829268455505371,-1.5548781156539917,25.350000381469727,2.0999999046325684,-9.149999618530273,39.689910888671875,0,
 959197,-0.2822265625,-0.918212890625,-0.21435546875,2.5304877758026123,-9.359756469726562,-1.9817073345184326,25.950000762939453,0.0,-9.0,39.737831115722656,0,
 959207,-0.26611328125,-0.909423828125,-0.21484375,3.0487804412841797,-12.835366249084473,-2.5609755516052246,25.649999618530273,2.0999999046325684,-9.449999809265137,39.689910888671875,0,
 959217,-0.2666015625,-0.930419921875,-0.22021484375,2.012195110321045,-16.219512939453125,-2.987804889678955,25.649999618530273,2.0999999046325684,-9.449999809265137,39.49821853637695,0,
 959227,-0.275390625,-0.9306640625,-0.230224609375,3.0182926654815674,-19.29878044128418,-2.4695122241973877,26.549999237060547,2.549999952316284,-8.699999809265137,39.64198684692383,0,
 959237,-0.283935546875,-0.921875,-0.217041015625,3.5365853309631348,-20.792682647705078,-2.408536672592163,25.350000381469727,-1.649999976158142,-9.449999809265137,39.546142578125,0,
 959247,-0.296630859375,-0.915771484375,-0.193603515625,4.786585330963135,-21.58536720275879,-1.2804877758026123,24.450000762939453,1.9500000476837158,-10.050000190734863,39.689910888671875,0,
 959257,-0.30126953125,-0.931640625,-0.19970703125,5.579268455505371,-22.164634704589844,0.12195122241973877,24.450000762939453,1.9500000476837158,-10.050000190734863,39.35445022583008,0,
 959267,-0.302490234375,-0.931640625,-0.162841796875,5.792683124542236,-22.042682647705078,1.3109756708145142,24.899999618530273,1.649999976158142,-13.649999618530273,39.546142578125,0,
 959277,-0.309814453125,-0.95068359375,-0.158935546875,3.9634146690368652,-20.426830291748047,2.4390244483947754,25.950000762939453,0.75,-10.050000190734863,39.83367919921875,0,
 959287,-0.32861328125,-0.93603515625,-0.133544921875,3.4146342277526855,-17.65243911743164,4.29878044128418,27.450000762939453,0.0,-10.5,39.64198684692383,0,
 959297,-0.34130859375,-0.947265625,-0.113525390625,1.5548781156539917,-14.939024925231934,6.95121955871582,27.450000762939453,0.0,-10.5,39.64198684692383,0,
 959307,-0.35986328125,-0.95166015625,-0.113525390625,0.12195122241973877,-11.006097793579102,8.59756088256836,25.200000762939453,1.9500000476837158,-10.5,39.737831115722656,0,
 959317,-0.356689453125,-0.92919921875,-0.10107421875,-0.7317073345184326,-7.1646342277526855,9.786585807800293,26.549999237060547,1.350000023841858,-10.649999618530273,39.64198684692383,0,
 959327,-0.34375,-0.9267578125,-0.112548828125,-1.585365891456604,-3.628048896789551,10.42682933807373,25.649999618530273,1.350000023841858,-10.199999809265137,39.689910888671875,0,
 959337,-0.34130859375,-0.940673828125,-0.1259765625,-4.115853786468506,-0.9146341681480408,10.396341323852539,25.5,1.5,-9.75,39.64198684692383,0,
 959347,-0.3515625,-0.904541015625,-0.144287109375,-7.408536911010742,2.2560975551605225,9.939024925231934,25.5,1.5,-9.75,39.64198684692383,0,
 959357,-0.340087890625,-0.89404296875,-0.157470703125,-8.262195587158203,5.121951103210449,8.62804889678955,25.5,0.75,-9.75,39.689910888671875,0,
 959367,-0.3388671875,-0.8896484375,-0.16162109375,-8.109756469726562,6.5853657722473145,6.646341800689697,27.0,1.5,-12.0,39.49821853637695,0,
 959377,-0.331787109375,-0.8837890625,-0.175537109375,-7.77439022064209,6.95121955871582,4.817073345184326,26.549999237060547,-1.350000023841858,-9.899999618530273,39.737831115722656,0,
 959387,-0.322265625,-0.88671875,-0.17626953125,-7.378048896789551,7.439024448394775,2.3475611209869385,26.549999237060547,-1.350000023841858,-9.899999618530273,39.546142578125,0,
 959397,-0.323974609375,-0.878173828125,-0.177001953125,-6.6768293380737305,7.530488014221191,-0.21341463923454285,26.100000381469727,0.15000000596046448,-10.199999809265137,39.737831115722656,0,
 959407,-0.313720703125,-0.8974609375,-0.177734375,-6.097560882568359,8.04878044128418,-2.1341464519500732,26.850000381469727,0.15000000596046448,-10.949999809265137,39.64198684692383,0,
 959417,-0.3134765625,-0.918701171875,-0.16796875,-6.371951580047607,7.621951580047607,-3.353658676147461,25.950000762939453,0.75,-9.75,39.64198684692383,0,
 959427,-0.31884765625,-0.91845703125,-0.17626953125,-6.7682929039001465,7.103658676147461,-3.5975611209869385,25.950000762939453,0.75,-9.75,39.64198684692383,0,
 959437,-0.3154296875,-0.91845703125,-0.18115234375,-6.463414669036865,6.219512462615967,-3.079268455505371,25.350000381469727,0.8999999761581421,-9.449999809265137,39.64198684692383,0,
 959447,-0.312255859375,-0.933837890625,-0.194091796875,-5.792683124542236,6.128048896789551,-2.2865853309631348,27.450000762939453,0.30000001192092896,-10.800000190734863,39.49821853637695,0,
 959457,-0.316650390625,-0.93017578125,-0.184814453125,-4.695122241973877,5.213414669036865,-0.3658536672592163,24.899999618530273,1.350000023841858,-9.149999618530273,39.689910888671875,0,
 959467,-0.313232421875,-0.919921875,-0.20068359375,-3.6890244483947754,5.0,1.3719512224197388,23.850000381469727,0.8999999761581421,-10.199999809265137,39.49821853637695,0,
 959477,-0.308349609375,-0.912109375,-0.202392578125,-1.737804889678955,4.45121955871582,3.47560977935791,23.399999618530273,-0.44999998807907104,-9.449999809265137,39.83367919921875,0,
 959487,-0.307373046875,-0.904296875,-0.20703125,0.3353658616542816,3.567073345184326,4.45121955871582,26.549999237060547,0.44999998807907104,-9.449999809265137,39.689910888671875,0,
 959497,-0.31103515625,-0.901611328125,-0.20458984375,2.7134146690368652,2.8353660106658936,5.365853786468506,25.649999618530273,0.8999999761581421,-9.149999618530273,39.83367919921875,0,
 959507,-0.3125,-0.8955078125,-0.192626953125,3.7804877758026123,1.9512195587158203,5.243902683258057,26.25,2.25,-9.75,39.64198684692383,0,
 959517,-0.312744140625,-0.895263671875,-0.18505859375,4.2682929039001465,0.9146341681480408,4.390244007110596,26.25,2.25,-9.75,39.450294494628906,0,
 959527,-0.322998046875,-0.886962890625,-0.185546875,4.695122241973877,0.6402438879013062,3.2012195587158203,26.25,1.5,-10.050000190734863,39.689910888671875,0,
 959537,-0.329345703125,-0.884033203125,-0.175048828125,4.939024448394775,0.5182926654815674,1.432926893234253,25.649999618530273,1.350000023841858,-7.949999809265137,39.450294494628906,0,
 959548,-0.33349609375,-0.893798828125,-0.16796875,4.512195110321045,0.6707317233085632,-0.8841463327407837,25.649999618530273,-0.44999998807907104,-9.449999809265137,39.64198684692383,0,
 959558,-0.330078125,-0.8876953125,-0.16455078125,3.8719513416290283,1.7987805604934692,-2.5,25.649999618530273,-0.44999998807907104,-9.449999809265137,39.64198684692383,0,
 959568,-0.3251953125,-0.906982421875,-0.15966796875,2.591463565826416,2.77439022064209,-4.878048896789551,26.549999237060547,2.8499999046325684,-9.149999618530273,39.49821853637695,0,
 959578,-0.326416015625,-0.92041015625,-0.15966796875,1.432926893234253,3.1402440071105957,-5.8231706619262695,27.600000381469727,-1.649999976158142,-12.449999809265137,39.64198684692383,0,
 959588,-0.32373046875,-0.935546875,-0.162841796875,-0.3048780560493469,4.45121955871582,-6.189024448394775,26.100000381469727,0.15000000596046448,-10.199999809265137,39.689910888671875,0,
 959598,-0.31787109375,-0.962890625,-0.16162109375,-1.1280487775802612,4.756097793579102,-4.817073345184326,26.100000381469727,0.15000000596046448,-10.199999809265137,39.689910888671875,0,
 959608,-0.322509765625,-0.957275390625,-0.163818359375,-2.5,4.756097793579102,-2.4695122241973877,25.649999618530273,1.350000023841858,-9.149999618530273,39.546142578125,0,
 959618,-0.31787109375,-0.94580078125,-0.168701171875,-3.0487804412841797,5.030488014221191,0.3353658616542816,25.950000762939453,-0.75,-10.800000190734863,39.64198684692383,0,
 959628,-0.318359375,-0.931884765625,-0.187255859375,0.4878048896789551,3.5060975551605225,5.670732021331787,25.350000381469727,0.8999999761581421,-9.149999618530273,39.689910888671875,0,
 959638,-0.3193359375,-0.939697265625,-0.187744140625,0.7317073345184326,3.2926828861236572,7.957317352294922,27.600000381469727,0.8999999761581421,-9.149999618530273,39.64198684692383,0,
 959648,-0.302001953125,-0.919921875,-0.191650390625,2.195122003555298,2.408536672592163,8.810976028442383,27.600000381469727,0.8999999761581421,-9.149999618530273,39.689910888671875,0,
 959658,-0.307861328125,-0.906494140625,-0.191650390625,3.8109757900238037,1.6768293380737305,8.62804889678955,26.700000762939453,1.9500000476837158,-9.75,39.737831115722656,0,
 959668,-0.30859375,-0.901611328125,-0.186767578125,4.237804889678955,0.9756097793579102,8.170731544494629,25.649999618530273,0.15000000596046448,-9.899999618530273,39.689910888671875,0,
 959678,-0.318115234375,-0.89404296875,-0.18505859375,4.207317352294922,0.3353658616542816,6.737804889678955,26.850000381469727,-0.44999998807907104,-13.199999809265137,39.64198684692383,0,
 959688,-0.318115234375,-0.88720703125,-0.18359375,4.634146213531494,0.4268292784690857,4.939024448394775,26.850000381469727,-0.44999998807907104,-13.199999809265137,39.737831115722656,0,
 959698,-0.324951171875,-0.894287109375,-0.190185546875,4.542683124542236,-0.3353658616542816,3.262195110321045,27.600000381469727,0.15000000596046448,-9.449999809265137,39.546142578125,0,
 959708,-0.320556640625,-0.892822265625,-0.17919921875,4.45121955871582,-0.12195122241973877,1.25,25.350000381469727,1.350000023841858,-9.449999809265137,39.450294494628906,0,
 959718,-0.318603515625,-0.894775390625,-0.182373046875,4.054878234863281,-0.5182926654815674,-0.4878048896789551,26.25,1.0499999523162842,-11.25,39.64198684692383,0,
 959728,-0.32373046875,-0.8837890625,-0.16796875,3.932926893234253,-0.6097561120986938,-2.408536672592163,26.25,1.0499999523162842,-11.25,39.689910888671875,0,
 959738,-0.322509765625,-0.898193359375,-0.162353515625,3.4146342277526855,-0.9756097793579102,-3.5060975551605225,25.350000381469727,-0.15000000596046448,-9.449999809265137,39.689910888671875,0,
 959748,-0.3203125,-0.92919921875,-0.16455078125,1.7073171138763428,-0.7012194991111755,-3.47560977935791,26.700000762939453,0.0,-10.050000190734863,39.737831115722656,0,
 959758,-0.321533203125,-0.9501953125,-0.15966796875,0.060975611209869385,-0.8841463327407837,-1.4939024448394775,26.100000381469727,1.649999976158142,-10.649999618530273,39.35445022583008,0,
 959768,-0.330078125,-0.964599609375,-0.167236328125,-0.5182926654815674,-1.0670732259750366,1.25,26.100000381469727,1.649999976158142,-10.649999618530273,39.64198684692383,0,
 959778,-0.32373046875,-0.962646484375,-0.166015625,-1.6158536672592163,-1.097561001777649,3.5975611209869385,26.549999237060547,2.549999952316284,-12.149999618530273,39.689910888671875,0,
 959788,-0.323486328125,-0.93994140625,-0.173828125,-1.4939024448394775,-1.1585365533828735,6.310975551605225,26.549999237060547,0.15000000596046448,-10.199999809265137,39.83367919921875,0,
 959798,-0.320068359375,-0.91943359375,-0.178955078125,-1.2195122241973877,-1.585365891456604,8.018292427062988,26.25,0.30000001192092896,-10.050000190734863,39.64198684692383,0,
 959808,-0.32470703125,-0.90234375,-0.175048828125,-1.097561001777649,-1.8597561120986938,8.810976028442383,26.25,-0.30000001192092896,-9.300000190734863,39.49821853637695,0,
 959818,-0.328857421875,-0.89453125,-0.1796875,0.4573170840740204,-2.378048896789551,8.932927131652832,26.25,-0.30000001192092896,-9.300000190734863,39.689910888671875,0,
 959828,-0.330810546875,-0.890625,-0.166259765625,1.0365853309631348,-2.1646342277526855,8.20121955871582,26.100000381469727,0.44999998807907104,-9.449999809265137,39.64198684692383,0,
 959838,-0.330322265625,-0.8896484375,-0.15576171875,1.0365853309631348,-2.1646342277526855,6.6768293380737305,26.549999237060547,0.8999999761581421,-9.449999809265137,39.689910888671875,0,
 959848,-0.34521484375,-0.88671875,-0.165283203125,0.3048780560493469,-1.8597561120986938,4.420732021331787,26.850000381469727,1.350000023841858,-8.699999809265137,39.450294494628906,0,
 959858,-0.337646484375,-0.88671875,-0.15771484375,0.396341472864151,-1.1585365533828735,2.2560975551605225,26.850000381469727,1.350000023841858,-8.699999809265137,39.35445022583008,0,
 959868,-0.346435546875,-0.88671875,-0.1591796875,-0.12195122241973877,0.030487805604934692,0.15243902802467346,26.700000762939453,0.0,-10.050000190734863,39.737831115722656,0,
 959878,-0.3388671875,-0.8935546875,-0.16015625,-0.060975611209869385,1.2804877758026123,-1.402438998222351,26.25,2.25,-10.800000190734863,39.64198684692383,0,
 959888,-0.343505859375,-0.89794921875,-0.16015625,-1.2195122241973877,1.9512195587158203,-3.1402440071105957,25.350000381469727,-0.44999998807907104,-9.899999618530273,39.737831115722656,0,
 959898,-0.3291015625,-0.902099609375,-0.158203125,-1.920731782913208,2.682926893234253,-4.786585330963135,25.350000381469727,-0.44999998807907104,-9.899999618530273,39.737831115722656,0,
 959908,-0.33544921875,-0.935546875,-0.15771484375,-2.5304877758026123,3.353658676147461,-4.908536911010742,26.549999237060547,1.350000023841858,-10.649999618530273,39.546142578125,0,
 959918,-0.3212890625,-0.948486328125,-0.162841796875,-3.932926893234253,3.567073345184326,-3.75,26.549999237060547,2.0999999046325684,-10.199999809265137,39.64198684692383,0,
 959928,-0.317138671875,-0.960205078125,-0.16748046875,-4.512195110321045,3.3841464519500732,-1.5243902206420898,26.25,-0.30000001192092896,-10.5,39.546142578125,0,
 959938,-0.323486328125,-0.942626953125,-0.177001953125,-5.579268455505371,2.2865853309631348,1.1280487775802612,26.100000381469727,0.44999998807907104,-9.449999809265137,39.689910888671875,0,
 959948,-0.318115234375,-0.935546875,-0.192138671875,-4.2682929039001465,0.8231707215309143,3.7195122241973877,27.450000762939453,1.0499999523162842,-8.550000190734863,39.737831115722656,0,
 959958,-0.323486328125,-0.928955078125,-0.19287109375,-2.22560977935791,-0.3353658616542816,6.280488014221191,26.850000381469727,0.44999998807907104,-10.649999618530273,39.64198684692383,0,
 959968,-0.32275390625,-0.910400390625,-0.196533203125,-1.2804877758026123,-1.1585365533828735,8.109756469726562,27.0,-0.30000001192092896,-10.5,39.737831115722656,0,
 959978,-0.32470703125,-0.9052734375,-0.1865234375,0.24390244483947754,-2.5304877758026123,9.268292427062988,26.100000381469727,0.15000000596046448,-10.649999618530273,39.546142578125,0,
 959988,-0.326904296875,-0.896240234375,-0.177490234375,0.5792682766914368,-3.658536672592163,8.75,26.100000381469727,0.15000000596046448,-10.649999618530273,39.88159942626953,0,
 959998,-0.32763671875,-0.891357421875,-0.17724609375,0.9756097793579102,-3.9939024448394775,8.262195587158203,27.0,-0.75,-9.0,39.689910888671875,0,
 960008,-0.3408203125,-0.888427734375,-0.16650390625,0.9756097793579102,-4.115853786468506,6.219512462615967,26.850000381469727,-0.8999999761581421,-9.449999809265137,39.49821853637695,0,
 960018,-0.349853515625,-0.88623046875,-0.15478515625,0.4878048896789551,-3.75,4.29878044128418,26.25,0.30000001192092896,-10.5,39.64198684692383,0,
 960028,-0.34619140625,-0.893798828125,-0.15087890625,-0.4573170840740204,-2.5304877758026123,2.408536672592163,26.25,0.30000001192092896,-10.5,39.689910888671875,0,
 960038,-0.34765625,-0.8935546875,-0.153564453125,-1.2195122241973877,-1.7682926654815674,0.6402438879013062,27.299999237060547,-0.15000000596046448,-9.899999618530273,39.64198684692383,0,
 960048,-0.35302734375,-0.9013671875,-0.152099609375,-2.3475611209869385,-0.4268292784690857,-1.4939024448394775,26.549999237060547,0.15000000596046448,-10.199999809265137,39.689910888671875,0,
 960058,-0.3505859375,-0.8896484375,-0.152099609375,-2.987804889678955,0.9756097793579102,-2.7439024448394775,26.549999237060547,0.15000000596046448,-11.399999618530273,39.450294494628906,0,
 960068,-0.346923828125,-0.913818359375,-0.158935546875,-4.29878044128418,2.591463565826416,-3.75,26.549999237060547,0.15000000596046448,-11.399999618530273,39.35445022583008,0,
 960078,-0.33984375,-0.92578125,-0.166259765625,-5.457317352294922,3.1402440071105957,-4.0853657722473145,26.700000762939453,-1.0499999523162842,-9.75,39.35445022583008,0,
 960088,-0.325927734375,-0.91845703125,-0.17529296875,-5.640244007110596,3.5975611209869385,-1.4634146690368652,26.850000381469727,0.8999999761581421,-11.699999809265137,39.64198684692383,0,
 960098,-0.331298828125,-0.933349609375,-0.174072265625,-4.45121955871582,2.7134146690368652,0.3353658616542816,25.950000762939453,-0.30000001192092896,-9.300000190734863,39.64198684692383,0,
 960108,-0.3271484375,-0.922119140625,-0.188232421875,-2.6524391174316406,1.402438998222351,2.2560975551605225,27.75,-1.0499999523162842,-8.550000190734863,39.450294494628906,0,
 960118,-0.3388671875,-0.9111328125,-0.209716796875,0.12195122241973877,0.060975611209869385,4.054878234863281,26.100000381469727,0.44999998807907104,-9.899999618530273,39.49821853637695,0,
 960128,-0.330322265625,-0.915771484375,-0.208740234375,1.737804889678955,-0.5487805008888245,4.939024448394775,26.549999237060547,0.15000000596046448,-9.899999618530273,39.83367919921875,0,
 960138,-0.32275390625,-0.890869140625,-0.201904296875,4.0853657722473145,-1.8902438879013062,5.54878044128418,25.5,-1.0499999523162842,-10.800000190734863,39.737831115722656,0,
 960148,-0.320556640625,-0.893798828125,-0.199951171875,5.243902683258057,-3.262195110321045,4.847560882568359,28.200000762939453,0.30000001192092896,-9.300000190734863,39.49821853637695,0,
 960158,-0.3310546875,-0.88134765625,-0.18798828125,6.493902683258057,-3.9634146690368652,3.4146342277526855,28.200000762939453,0.30000001192092896,-9.300000190734863,39.64198684692383,0,
 960168,-0.331298828125,-0.877685546875,-0.173583984375,7.347561359405518,-3.658536672592163,2.317073106765747,26.549999237060547,-0.15000000596046448,-9.449999809265137,39.49821853637695,0,
 960178,-0.34521484375,-0.888671875,-0.170654296875,7.865853786468506,-3.47560977935791,0.7621951103210449,25.950000762939453,-0.30000001192092896,-9.0,39.35445022583008,0,
 960188,-0.34033203125,-0.89404296875,-0.15625,6.646341800689697,-2.9268293380737305,-0.9146341681480408,27.75,1.5,-12.75,39.88159942626953,0,
 960198,-0.34912109375,-0.90478515625,-0.14599609375,5.121951103210449,-1.6158536672592163,-2.4695122241973877,27.75,1.5,-12.75,39.49821853637695,0,
 960208,-0.345458984375,-0.902587890625,-0.148681640625,3.628048896789551,-0.3353658616542816,-3.8109757900238037,27.299999237060547,0.15000000596046448,-10.649999618530273,39.64198684692383,0,
 960218,-0.34375,-0.919677734375,-0.13916015625,1.6768293380737305,0.9451219439506531,-3.9939024448394775,27.0,0.30000001192092896,-12.300000190734863,39.977447509765625,0,
 960228,-0.348876953125,-0.9287109375,-0.141845703125,-0.3048780560493469,2.317073106765747,-3.5365853309631348,26.549999237060547,0.44999998807907104,-9.149999618530273,39.64198684692383,0,
 960238,-0.343994140625,-0.932373046875,-0.147705078125,-1.8597561120986938,2.7439024448394775,-2.195122003555298,26.549999237060547,0.44999998807907104,-9.149999618530273,39.64198684692383,0,
 960248,-0.33544921875,-0.93603515625,-0.174072265625,-3.0182926654815674,2.378048896789551,-0.396341472864151,25.200000762939453,0.75,-10.5,39.49821853637695,0,
 960258,-0.328857421875,-0.9267578125,-0.178955078125,-2.103658676147461,1.9512195587158203,1.8597561120986938,25.5,0.30000001192092896,-10.050000190734863,39.35445022583008,0,
 960268,-0.32373046875,-0.9150390625,-0.18115234375,-1.1280487775802612,0.6707317233085632,3.628048896789551,26.25,1.0499999523162842,-10.5,39.546142578125,0,
 960278,-0.324951171875,-0.915771484375,-0.192138671875,0.3048780560493469,-0.5182926654815674,5.121951103210449,26.850000381469727,-1.649999976158142,-9.899999618530273,39.737831115722656,0,
 960288,-0.3310546875,-0.90087890625,-0.1845703125,1.3109756708145142,-2.1646342277526855,6.036585330963135,26.850000381469727,-1.649999976158142,-9.899999618530273,39.546142578125,0,
 960298,-0.334228515625,-0.901123046875,-0.176513671875,2.3475611209869385,-2.9573171138763428,5.97560977935791,25.950000762939453,0.30000001192092896,-9.75,39.35445022583008,0,
 960308,-0.337890625,-0.894775390625,-0.1650390625,2.987804889678955,-3.445122003555298,5.731707572937012,27.450000762939453,0.0,-9.75,39.689910888671875,0,
 960318,-0.346923828125,-0.8974609375,-0.163330078125,2.5609755516052246,-3.5365853309631348,4.329268455505371,27.0,-0.30000001192092896,-10.800000190734863,39.689910888671875,0,
 960328,-0.346923828125,-0.89013671875,-0.15234375,1.9817073345184326,-3.2317073345184326,3.170731782913208,27.0,-0.30000001192092896,-10.800000190734863,39.64198684692383,0,
 960338,-0.349365234375,-0.8984375,-0.146484375,0.9146341681480408,-2.2865853309631348,0.6707317233085632,27.450000762939453,0.30000001192092896,-9.75,39.64198684692383,0,
 960349,-0.35791015625,-0.893798828125,-0.141845703125,0.27439025044441223,-0.9146341681480408,-1.0365853309631348,25.200000762939453,1.5,-9.0,39.35445022583008,0,
 960359,-0.354248046875,-0.896728515625,-0.142333984375,-1.3414634466171265,0.8841463327407837,-3.0487804412841797,26.850000381469727,-0.44999998807907104,-11.399999618530273,39.737831115722656,0,
 960369,-0.34619140625,-0.906005859375,-0.149658203125,-3.0182926654815674,2.5304877758026123,-4.45121955871582,26.850000381469727,-0.44999998807907104,-11.399999618530273,39.83367919921875,0,
 960379,-0.343505859375,-0.9189453125,-0.153076171875,-4.756097793579102,3.628048896789551,-5.457317352294922,26.700000762939453,0.30000001192092896,-9.75,39.689910888671875,0,
 960389,-0.334716796875,-0.9345703125,-0.1611328125,-5.579268455505371,4.603658676147461,-5.54878044128418,25.5,0.30000001192092896,-10.800000190734863,39.64198684692383,0,
 960399,-0.3369140625,-0.94287109375,-0.164794921875,-6.554878234863281,4.878048896789551,-4.0853657722473145,26.850000381469727,0.15000000596046448,-10.649999618530273,39.64198684692383,0,
 960409,-0.32568359375,-0.934814453125,-0.176513671875,-6.829268455505371,4.054878234863281,-2.1341464519500732,27.299999237060547,0.8999999761581421,-9.149999618530273,39.64198684692383,0,
 960419,-0.330810546875,-0.923828125,-0.19482421875,-5.884146690368652,2.896341562271118,0.4573170840740204,27.75,-1.0499999523162842,-10.5,39.64198684692383,0,
 960429,-0.321044921875,-0.9169921875,-0.19677734375,-4.115853786468506,1.6158536672592163,2.317073106765747,26.700000762939453,0.0,-10.5,39.737831115722656,0,
 960439,-0.31982421875,-0.909423828125,-0.203857421875,-1.7987805604934692,-0.3353658616542816,4.115853786468506,25.649999618530273,0.44999998807907104,-10.199999809265137,39.689910888671875,0,
 960449,-0.32666015625,-0.89453125,-0.19580078125,0.060975611209869385,-1.7682926654815674,5.121951103210449,26.850000381469727,-0.15000000596046448,-10.199999809265137,39.546142578125,0,
 960459,-0.32861328125,-0.889892578125,-0.186767578125,2.195122003555298,-3.0487804412841797,5.365853786468506,26.850000381469727,-0.15000000596046448,-10.199999809265137,39.64198684692383,0,
 960469,-0.3349609375,-0.888671875,-0.16943359375,3.658536672592163,-3.6890244483947754,4.878048896789551,27.450000762939453,-0.30000001192092896,-9.75,39.737831115722656,0,
 960479,-0.34521484375,-0.89599609375,-0.158935546875,3.9939024448394775,-4.237804889678955,3.9634146690368652,26.549999237060547,0.44999998807907104,-10.199999809265137,39.64198684692383,0,
 960489,-0.35009765625,-0.89794921875,-0.147216796875,3.2926828861236572,-3.658536672592163,2.5304877758026123,26.700000762939453,-1.0499999523162842,-10.050000190734863,39.737831115722656,0,
 960499,-0.352783203125,-0.8955078125,-0.145751953125,2.378048896789551,-2.591463565826416,0.8231707215309143,26.700000762939453,-1.0499999523162842,-10.050000190734863,39.49821853637695,0,
 960509,-0.3544921875,-0.901611328125,-0.14599609375,1.1280487775802612,-1.25,-0.6402438879013062,28.049999237060547,-0.44999998807907104,-10.199999809265137,39.689910888671875,0,
 960519,-0.356689453125,-0.898193359375,-0.136474609375,-0.12195122241973877,0.5487805008888245,-1.8597561120986938,25.649999618530273,0.15000000596046448,-10.199999809265137,39.737831115722656,0,
 960529,-0.349609375,-0.89892578125,-0.148681640625,-1.1585365533828735,2.2560975551605225,-3.658536672592163,27.299999237060547,-0.8999999761581421,-9.449999809265137,39.737831115722656,0,
 960539,-0.34326171875,-0.901123046875,-0.15087890625,-2.6524391174316406,4.481707572937012,-4.878048896789551,27.299999237060547,-0.8999999761581421,-9.449999809265137,39.64198684692383,0,
 960549,-0.3349609375,-0.9267578125,-0.158935546875,-3.7195122241973877,4.542683124542236,-3.8109757900238037,25.350000381469727,0.8999999761581421,-9.899999618530273,39.49821853637695,0,
 960559,-0.333251953125,-0.933349609375,-0.16943359375,-3.353658676147461,3.75,-1.7682926654815674,27.299999237060547,0.15000000596046448,-10.949999809265137,39.689910888671875,0,
 960569,-0.327392578125,-0.940185546875,-0.178955078125,-2.9268293380737305,2.7134146690368652,0.3658536672592163,26.850000381469727,0.44999998807907104,-9.899999618530273,39.64198684692383,0,
 960579,-0.325439453125,-0.932373046875,-0.1904296875,-1.4634146690368652,0.9451219439506531,2.408536672592163,27.450000762939453,0.75,-10.050000190734863,39.737831115722656,0,
 960589,-0.325439453125,-0.92041015625,-0.197509765625,1.2804877758026123,-1.097561001777649,4.115853786468506,27.450000762939453,0.75,-10.050000190734863,39.450294494628906,0,
 960599,-0.322021484375,-0.91064453125,-0.2021484375,3.1097562313079834,-2.6524391174316406,5.579268455505371,28.350000381469727,0.15000000596046448,-14.399999618530273,39.64198684692383,0,
 960609,-0.319091796875,-0.909912109375,-0.18603515625,4.45121955871582,-4.237804889678955,6.097560882568359,27.0,-0.30000001192092896,-10.050000190734863,39.546142578125,0,
 960619,-0.3310546875,-0.8974609375,-0.178466796875,5.457317352294922,-5.152439117431641,5.792683124542236,25.200000762939453,-0.30000001192092896,-10.050000190734863,39.64198684692383,0,
 960629,-0.337158203125,-0.89599609375,-0.168212890625,5.54878044128418,-4.878048896789551,5.121951103210449,25.200000762939453,-0.30000001192092896,-10.050000190734863,39.88159942626953,0,
 960639,-0.345947265625,-0.897216796875,-0.15625,5.182927131652832,-4.1768293380737305,2.987804889678955,27.450000762939453,1.0499999523162842,-10.5,39.49821853637695,0,
 960649,-0.35400390625,-0.89306640625,-0.14794921875,3.7804877758026123,-2.408536672592163,1.3109756708145142,27.299999237060547,-0.44999998807907104,-9.149999618530273,39.64198684692383,0,
 960659,-0.362548828125,-0.899169921875,-0.13818359375,2.0426828861236572,-1.2195122241973877,-0.9146341681480408,28.200000762939453,0.0,-9.75,39.737831115722656,0,
 960669,-0.3603515625,-0.89453125,-0.13427734375,0.18292683362960815,0.8536585569381714,-3.3231709003448486,28.200000762939453,0.0,-9.75,39.737831115722656,0,
 960679,-0.360595703125,-0.886962890625,-0.13720703125,-1.3719512224197388,3.1097562313079834,-5.365853786468506,27.450000762939453,0.30000001192092896,-11.25,39.64198684692383,0,
 960689,-0.357666015625,-0.896240234375,-0.133544921875,-2.682926893234253,4.969512462615967,-7.0731706619262695,26.25,1.5,-9.300000190734863,39.2106819152832,0,
 960699,-0.349365234375,-0.899169921875,-0.14794921875,-3.079268455505371,6.128048896789551,-7.957317352294922,28.049999237060547,3.75,-11.699999809265137,39.64198684692383,0,
 960709,-0.331787109375,-0.9248046875,-0.1650390625,-4.359755992889404,6.097560882568359,-7.591463565826416,26.100000381469727,-1.649999976158142,-9.899999618530273,39.64198684692383,0,
 960719,-0.323486328125,-0.9375,-0.17919921875,-4.054878234863281,5.487804889678955,-6.097560882568359,26.700000762939453,-0.75,-9.75,39.64198684692383,0,
 960729,-0.315673828125,-0.943115234375,-0.19482421875,-2.408536672592163,4.0853657722473145,-3.47560977935791,25.950000762939453,-1.0499999523162842,-10.5,39.737831115722656,0,
 960739,-0.31494140625,-0.931396484375,-0.197265625,-1.6463414430618286,2.012195110321045,-1.1280487775802612,25.649999618530273,0.15000000596046448,-9.149999618530273,39.546142578125,0,
 960749,-0.318359375,-0.919921875,-0.194580078125,1.432926893234253,-0.15243902802467346,1.737804889678955,25.649999618530273,-0.15000000596046448,-10.199999809265137,39.83367919921875,0,
 960759,-0.3154296875,-0.904296875,-0.197265625,3.7195122241973877,-2.2865853309631348,3.2317073345184326,25.649999618530273,-0.15000000596046448,-10.199999809265137,39.546142578125,0,
 960769,-0.32177734375,-0.906005859375,-0.185546875,6.128048896789551,-4.115853786468506,4.969512462615967,25.649999618530273,0.15000000596046448,-9.449999809265137,39.64198684692383,0,
 960779,-0.32861328125,-0.894287109375,-0.173583984375,7.713414669036865,-5.54878044128418,5.0,26.700000762939453,0.0,-10.5,39.737831115722656,0,
 960789,-0.336669921875,-0.88671875,-0.159912109375,9.146341323852539,-6.25,4.512195110321045,26.850000381469727,0.15000000596046448,-10.649999618530273,39.35445022583008,0,
 960799,-0.34912109375,-0.9033203125,-0.147705078125,8.993902206420898,-6.067073345184326,3.5365853309631348,26.850000381469727,0.15000000596046448,-10.649999618530273,39.737831115722656,0,
 960809,-0.348388671875,-0.8974609375,-0.140625,7.591463565826416,-5.213414669036865,1.5243902206420898,25.649999618530273,-2.549999952316284,-11.699999809265137,39.546142578125,0,
 960819,-0.359130859375,-0.89453125,-0.1318359375,6.189024448394775,-3.9024391174316406,-0.7621951103210449,27.600000381469727,0.8999999761581421,-10.199999809265137,39.64198684692383,0,
 960829,-0.361572265625,-0.888671875,-0.1357421875,5.060975551605225,-1.7987805604934692,-2.8353660106658936,24.899999618530273,0.44999998807907104,-11.399999618530273,39.689910888671875,0,
 960839,-0.358154296875,-0.887451171875,-0.130126953125,4.237804889678955,0.6707317233085632,-5.670732021331787,24.899999618530273,0.44999998807907104,-11.399999618530273,39.64198684692383,0,
 960849,-0.344970703125,-0.89453125,-0.12744140625,2.5304877758026123,2.9268293380737305,-7.957317352294922,25.950000762939453,-0.30000001192092896,-11.25,39.737831115722656,0,
 960859,-0.350830078125,-0.90087890625,-0.1396484375,1.5243902206420898,4.1768293380737305,-9.939024925231934,27.0,0.30000001192092896,-9.75,39.737831115722656,0,
 960869,-0.336669921875,-0.91015625,-0.14892578125,0.5792682766914368,5.27439022064209,-11.12804889678955,25.950000762939453,37.650001525878906,-9.899999618530273,39.737831115722656,0,
 960879,-0.331787109375,-0.91796875,-0.1494140625,0.4268292784690857,5.640244007110596,-11.646341323852539,25.950000762939453,-0.75,-10.800000190734863,39.689910888671875,0,
 960889,-0.321044921875,-0.91748046875,-0.16162109375,1.0060975551605225,5.731707572937012,-11.981707572937012,25.950000762939453,-0.75,-10.800000190734863,39.689910888671875,0,
 960899,-0.32275390625,-0.91064453125,-0.171142578125,1.3719512224197388,5.060975551605225,-12.07317066192627,26.100000381469727,1.350000023841858,-9.149999618530273,39.64198684692383,0,
 960909,-0.31787109375,-0.90087890625,-0.17626953125,3.3231709003448486,4.542683124542236,-11.707317352294922,26.25,-1.350000023841858,-13.199999809265137,39.49821853637695,0,
 960919,-0.322265625,-0.889404296875,-0.1748046875,5.54878044128418,3.75,-12.65243911743164,26.25,0.75,-9.75,39.49821853637695,0,
 960929,-0.326416015625,-0.879150390625,-0.17822265625,8.170731544494629,2.7439024448394775,-14.146341323852539,26.25,0.75,-9.75,39.737831115722656,0,
 960939,-0.32470703125,-0.862548828125,-0.1669921875,10.70121955871582,2.2560975551605225,-16.768293380737305,27.600000381469727,0.44999998807907104,-11.399999618530273,39.49821853637695,0,
 960949,-0.32763671875,-0.84765625,-0.15283203125,13.262195587158203,2.5609755516052246,-20.762195587158203,25.350000381469727,1.649999976158142,-11.399999618530273,39.64198684692383,0,
 960959,-0.320556640625,-0.84765625,-0.145263671875,14.329268455505371,4.359755992889404,-26.219512939453125,26.850000381469727,0.44999998807907104,-11.399999618530273,39.737831115722656,0,
 960969,-0.31591796875,-0.88525390625,-0.11572265625,15.670732498168945,5.792683124542236,-30.48780632019043,26.850000381469727,0.44999998807907104,-11.399999618530273,39.546142578125,0,
 960979,-0.3115234375,-0.90673828125,-0.1123046875,12.92682933807373,6.79878044128418,-34.664634704589844,25.950000762939453,1.5,-11.550000190734863,39.689910888671875,0,
 960989,-0.3046875,-0.95703125,-0.1044921875,10.365854263305664,8.170731544494629,-37.04268264770508,24.75,1.9500000476837158,-9.75,39.64198684692383,0,
 960999,-0.30859375,-0.9765625,-0.094482421875,1.3414634466171265,12.34756088256836,-38.20122146606445,25.350000381469727,2.549999952316284,-9.449999809265137,39.64198684692383,0,
 961009,-0.30615234375,-0.9765625,-0.105712890625,-1.4634146690368652,14.84756088256836,-37.164634704589844,25.350000381469727,2.549999952316284,-9.449999809265137,39.83367919921875,0,
 961019,-0.289794921875,-0.981201171875,-0.115234375,-3.47560977935791,16.64634132385254,-35.853660583496094,24.450000762939453,1.9500000476837158,-12.75,39.737831115722656,0,
 961029,-0.279052734375,-0.965576171875,-0.138671875,-3.75,17.774391174316406,-34.725608825683594,24.450000762939453,1.0499999523162842,-11.550000190734863,39.64198684692383,0,
 961039,-0.263671875,-0.947509765625,-0.158203125,-2.103658676147461,18.628049850463867,-33.658538818359375,23.549999237060547,2.25,-10.050000190734863,39.689910888671875,0,
 961049,-0.255859375,-0.955810546875,-0.158203125,-0.4268292784690857,17.408536911010742,-32.164634704589844,23.549999237060547,2.25,-10.050000190734863,39.64198684692383,0,
 961059,-0.234375,-0.95703125,-0.159912109375,0.3658536672592163,15.060976028442383,-30.518293380737305,23.549999237060547,2.25,-10.050000190734863,39.49821853637695,0,
 961069,-0.231689453125,-0.952880859375,-0.162841796875,2.1341464519500732,13.353658676147461,-28.53658676147461,23.100000381469727,2.549999952316284,-10.199999809265137,39.64198684692383,0,
 961079,-0.216796875,-0.97607421875,-0.156005859375,2.22560977935791,11.036585807800293,-24.908536911010742,22.799999237060547,2.700000047683716,-11.699999809265137,39.450294494628906,0,
 961089,-0.215576171875,-0.99853515625,-0.149169921875,1.1280487775802612,8.993902206420898,-21.707317352294922,22.799999237060547,2.700000047683716,-9.75,39.64198684692383,0,
 961099,-0.227294921875,-1.017333984375,-0.1533203125,0.8841463327407837,7.347561359405518,-18.90243911743164,22.799999237060547,2.700000047683716,-9.75,39.88159942626953,0,
 961109,-0.23046875,-1.010498046875,-0.150390625,-0.060975611209869385,5.060975551605225,-16.219512939453125,24.600000381469727,7.199999809265137,-12.449999809265137,39.64198684692383,0,
 961119,-0.222412109375,-1.0166015625,-0.137939453125,-0.792682945728302,2.9573171138763428,-13.445122718811035,23.850000381469727,4.050000190734863,-9.0,39.64198684692383,0,
 961129,-0.21435546875,-1.01123046875,-0.14501953125,-1.5548781156539917,1.1890244483947754,-9.786585807800293,23.850000381469727,4.050000190734863,-10.649999618530273,39.64198684692383,0,
 961139,-0.214599609375,-0.9990234375,-0.154052734375,0.24390244483947754,-0.3353658616542816,-6.6768293380737305,23.850000381469727,4.050000190734863,-10.649999618530273,39.49821853637695,0,
 961159,-0.210205078125,-0.97998046875,-0.15576171875,3.6890244483947754,-3.1402440071105957,0.060975611209869385,22.5,2.549999952316284,-11.399999618530273,39.737831115722656,0,
 961169,-0.227783203125,-0.986572265625,-0.150390625,5.396341800689697,-3.9939024448394775,2.7134146690368652,22.200000762939453,4.5,-9.899999618530273,39.64198684692383,0,
 961180,-0.230712890625,-0.984130859375,-0.140869140625,5.97560977935791,-4.390244007110596,5.640244007110596,22.200000762939453,4.5,-9.899999618530273,39.35445022583008,0,
 961190,-0.211669921875,-0.981201171875,-0.12158203125,5.762195110321045,-4.939024448394775,8.414634704589844,22.649999618530273,5.25,-9.899999618530273,39.737831115722656,0,
 961200,-0.218505859375,-0.97314453125,-0.125732421875,4.786585330963135,-6.158536911010742,10.42682933807373,22.049999237060547,2.700000047683716,-9.0,39.64198684692383,0,
 961210,-0.21337890625,-0.953125,-0.12255859375,3.0487804412841797,-7.134146690368652,11.859756469726562,23.549999237060547,1.0499999523162842,-10.800000190734863,39.689910888671875,0,
 961220,-0.224853515625,-0.951416015625,-0.136962890625,3.4146342277526855,-7.103658676147461,13.780488014221191,23.549999237060547,1.0499999523162842,-10.800000190734863,39.64198684692383,0,
 961230,-0.21923828125,-0.932861328125,-0.14208984375,3.5975611209869385,-6.128048896789551,15.243903160095215,23.549999237060547,1.0499999523162842,-10.800000190734863,39.546142578125,0,
 961240,-0.215576171875,-0.931640625,-0.142822265625,4.115853786468506,-5.4268293380737305,16.40243911743164,23.850000381469727,3.299999952316284,-10.649999618530273,39.689910888671875,0,
 961250,-0.2021484375,-0.914306640625,-0.13037109375,4.1768293380737305,-5.304878234863281,17.317073822021484,23.850000381469727,3.299999952316284,-11.699999809265137,39.689910888671875,0,
 961260,-0.2060546875,-0.91162109375,-0.135986328125,5.396341800689697,-5.792683124542236,17.042682647705078,23.850000381469727,3.299999952316284,-11.699999809265137,39.737831115722656,0,
 961270,-0.21875,-0.88232421875,-0.140380859375,5.579268455505371,-7.408536911010742,18.04878044128418,23.850000381469727,3.299999952316284,-11.699999809265137,39.689910888671875,0,
 961280,-0.23095703125,-0.919189453125,-0.138671875,7.743902683258057,-8.87195110321045,18.567073822021484,23.25,2.700000047683716,-10.050000190734863,39.35445022583008,0,
 961290,-0.22265625,-0.924072265625,-0.14404296875,7.743902683258057,-10.12195110321045,19.176830291748047,23.399999618530273,3.299999952316284,-10.199999809265137,39.737831115722656,0,
 961300,-0.214599609375,-0.932373046875,-0.147705078125,9.115854263305664,-12.65243911743164,20.030488967895508,23.399999618530273,3.299999952316284,-10.199999809265137,39.737831115722656,0,
 961310,-0.21240234375,-0.956298828125,-0.1474609375,11.25,-15.335366249084473,21.4939022064209,23.399999618530273,3.299999952316284,-10.199999809265137,39.737831115722656,0,
 961320,-0.23681640625,-0.9755859375,-0.14501953125,12.439024925231934,-19.115854263305664,24.725610733032227,24.450000762939453,3.1500000953674316,-10.800000190734863,39.689910888671875,0,
 961330,-0.25439453125,-0.9912109375,-0.139404296875,13.170731544494629,-21.25,28.38414764404297,25.649999618530273,2.0999999046325684,-10.649999618530273,39.2106819152832,0,
 961340,-0.272216796875,-0.99462890625,-0.13525390625,12.865854263305664,-22.2560977935791,32.225608825683594,24.149999618530273,1.350000023841858,-10.949999809265137,39.689910888671875,0,
 961350,-0.26611328125,-1.018798828125,-0.12255859375,13.47560977935791,-23.079269409179688,36.067073822021484,24.149999618530273,1.350000023841858,-10.949999809265137,39.64198684692383,0,
 961360,-0.28173828125,-1.0361328125,-0.109130859375,12.591464042663574,-23.93292808532715,39.35975646972656,24.149999618530273,1.350000023841858,-10.949999809265137,40.025367736816406,0,
 961370,-0.30126953125,-1.002197265625,-0.090576171875,8.567073822021484,-25.48780632019043,41.85975646972656,25.200000762939453,1.9500000476837158,-11.550000190734863,39.737831115722656,0,
 961380,-0.305908203125,-0.9873046875,-0.08935546875,6.158536911010742,-25.48780632019043,42.43902587890625,26.100000381469727,1.649999976158142,-12.449999809265137,39.546142578125,0,
 961390,-0.32177734375,-0.966552734375,-0.07763671875,4.695122241973877,-25.33536720275879,43.32317352294922,26.100000381469727,1.649999976158142,-12.449999809265137,39.737831115722656,0,
 961400,-0.3466796875,-0.932373046875,-0.071044921875,3.2012195587158203,-23.871952056884766,42.682926177978516,26.100000381469727,1.649999976158142,-12.449999809265137,39.737831115722656,0,
 961410,-0.33984375,-0.950927734375,-0.098388671875,3.445122003555298,-21.615854263305664,42.835365295410156,26.25,37.650001525878906,-12.75,39.83367919921875,0,
 961420,-0.3330078125,-0.94775390625,-0.09619140625,3.2012195587158203,-21.09756088256836,44.29878234863281,26.700000762939453,1.5,-13.5,39.450294494628906,0,
 961430,-0.3486328125,-0.983642578125,-0.098388671875,4.634146213531494,-21.067073822021484,46.03658676147461,26.700000762939453,1.5,-13.5,39.450294494628906,0,
 961440,-0.38916015625,-0.98486328125,-0.111572265625,2.804877996444702,-22.926830291748047,48.414634704589844,26.700000762939453,1.5,-13.5,39.737831115722656,0,
 961450,-0.414794921875,-0.9677734375,-0.11279296875,1.7682926654815674,-24.29878044128418,51.67683029174805,27.600000381469727,-1.5,-12.75,39.546142578125,0,
 961460,-0.4228515625,-0.959716796875,-0.116943359375,1.7987805604934692,-21.58536720275879,56.79878234863281,28.350000381469727,0.15000000596046448,-13.199999809265137,39.689910888671875,0,
 961470,-0.428466796875,-0.962646484375,-0.1083984375,1.9512195587158203,-16.310976028442383,55.70122146606445,28.350000381469727,0.15000000596046448,-13.199999809265137,39.35445022583008,0,
 961480,-0.396484375,-0.947265625,-0.076416015625,2.0731706619262695,-14.87804889678955,54.69512176513672,28.350000381469727,0.15000000596046448,-13.199999809265137,39.737831115722656,0,
 961490,-0.370361328125,-0.927001953125,-0.067626953125,3.3231709003448486,-14.908536911010742,54.2378044128418,29.100000381469727,-0.75,-14.550000190734863,39.64198684692383,0,
 961500,-0.3486328125,-0.87890625,-0.040771484375,6.646341800689697,-15.213415145874023,53.10975646972656,28.950000762939453,-0.30000001192092896,-13.800000190734863,39.737831115722656,0,
 961510,-0.332275390625,-0.880859375,-0.051025390625,10.670731544494629,-17.225610733032227,51.524391174316406,31.049999237060547,-1.649999976158142,-17.700000762939453,39.689910888671875,0,
 961520,-0.33447265625,-0.904541015625,-0.06005859375,9.817073822021484,-17.65243911743164,50.64024353027344,31.049999237060547,-1.649999976158142,-17.700000762939453,39.49821853637695,0,
 961530,-0.3828125,-0.932861328125,-0.073974609375,3.8719513416290283,-17.469512939453125,52.621952056884766,31.049999237060547,-1.649999976158142,-17.700000762939453,39.689910888671875,0,
 961540,-0.41259765625,-0.916748046875,-0.098388671875,1.0670732259750366,-15.335366249084473,53.567073822021484,29.850000381469727,-2.8499999046325684,-15.149999618530273,39.737831115722656,0,
 961550,-0.463134765625,-0.892578125,-0.09765625,2.8353660106658936,-10.579268455505371,52.65243911743164,29.700000762939453,-3.9000000953674316,-14.25,39.689910888671875,0,
 961560,-0.5009765625,-0.888916015625,-0.059814453125,6.25,-4.420732021331787,48.68902587890625,29.700000762939453,-3.9000000953674316,-14.25,39.689910888671875,0,
 961570,-0.50634765625,-0.883056640625,-0.037841796875,10.579268455505371,0.21341463923454285,42.22561264038086,29.700000762939453,-3.9000000953674316,-14.25,39.49821853637695,0,
 961580,-0.5009765625,-0.899169921875,-0.01708984375,11.859756469726562,4.115853786468506,34.93902587890625,29.850000381469727,-4.949999809265137,-13.949999809265137,39.83367919921875,0,
 961590,-0.48779296875,-0.890869140625,0.009521484375,9.57317066192627,6.402439117431641,26.341463088989258,31.200000762939453,-6.300000190734863,-13.800000190734863,39.689910888671875,0,
 961600,-0.468994140625,-0.864990234375,0.0185546875,7.865853786468506,7.286585330963135,19.115854263305664,31.200000762939453,-6.300000190734863,-13.800000190734863,39.737831115722656,0,
 961610,-0.45654296875,-0.836181640625,0.01220703125,7.865853786468506,5.182927131652832,14.420732498168945,31.200000762939453,-6.300000190734863,-13.800000190734863,39.977447509765625,0,
 961620,-0.421875,-0.834716796875,-0.02001953125,7.317073345184326,1.4634146690368652,10.15243911743164,31.649999618530273,-5.099999904632568,-15.75,39.450294494628906,0,
 961630,-0.42529296875,-0.8544921875,-0.046875,5.152439117431641,-1.432926893234253,7.439024448394775,31.799999237060547,-5.25,-14.699999809265137,39.689910888671875,0,
 961640,-0.403076171875,-0.857177734375,-0.048095703125,1.0365853309631348,-4.634146213531494,3.9024391174316406,31.799999237060547,-5.25,-14.699999809265137,39.689910888671875,0,
 961650,-0.4248046875,-0.865234375,-0.061279296875,-3.8109757900238037,-8.079268455505371,-0.3658536672592163,31.799999237060547,-5.25,-14.699999809265137,39.64198684692383,0,
 961660,-0.444580078125,-0.823974609375,-0.0634765625,-7.347561359405518,-8.841464042663574,-6.189024448394775,31.5,-4.050000190734863,-15.300000190734863,39.88159942626953,0,
 961670,-0.432861328125,-0.791015625,-0.071533203125,-6.981707572937012,-7.835366249084473,-14.29878044128418,31.950000762939453,-5.849999904632568,-15.300000190734863,39.450294494628906,0,
 961680,-0.4287109375,-0.8046875,-0.085205078125,-2.4695122241973877,-5.579268455505371,-23.780488967895508,30.450000762939453,-6.599999904632568,-13.800000190734863,39.546142578125,0,
 961690,-0.413330078125,-0.849365234375,-0.112060546875,3.0487804412841797,-0.7012194991111755,-40.51829528808594,30.450000762939453,-6.599999904632568,-13.800000190734863,39.689910888671875,0,
 961700,-0.39453125,-0.91015625,-0.1689453125,5.213414669036865,5.5182929039001465,-61.92073440551758,31.200000762939453,-6.599999904632568,-13.800000190734863,39.689910888671875,0,
 961710,-0.361572265625,-0.937744140625,-0.18701171875,-2.682926893234253,14.45121955871582,-82.6524429321289,29.700000762939453,-4.349999904632568,-16.049999237060547,39.737831115722656,0,
 961720,-0.29541015625,-0.74609375,-0.162109375,-22.13414764404297,22.865854263305664,-98.29268646240234,30.149999618530273,-3.9000000953674316,-17.549999237060547,39.546142578125,0,
 961730,-0.223876953125,-0.4609375,-0.12548828125,-39.1158561706543,28.719512939453125,-102.62195587158203,30.149999618530273,-3.9000000953674316,-17.549999237060547,39.64198684692383,0,
 961740,-0.167236328125,-0.233642578125,-0.135986328125,-45.030487060546875,31.58536720275879,-91.37195587158203,30.149999618530273,-3.9000000953674316,-17.549999237060547,39.689910888671875,0,
 961750,-0.17333984375,0.01318359375,-0.029296875,-43.90243911743164,33.29268264770508,-69.7256088256836,28.200000762939453,-2.25,-13.050000190734863,39.689910888671875,0,
 961760,0.022705078125,0.182861328125,-0.20751953125,-64.20732116699219,45.64024353027344,-43.99390411376953,28.049999237060547,-3.299999952316284,-12.149999618530273,39.64198684692383,0,
 961770,0.095703125,0.271240234375,-0.0244140625,-76.92073059082031,28.14024543762207,21.615854263305664,28.049999237060547,-3.299999952316284,-12.149999618530273,39.546142578125,0,
 961780,0.786376953125,0.60498046875,0.011474609375,-108.56707763671875,46.7378044128418,87.86585235595703,28.049999237060547,-3.299999952316284,-12.149999618530273,39.689910888671875,0,
 961790,0.999755859375,0.487060546875,-0.07080078125,-76.79878234863281,18.628049850463867,150.7926788330078,27.75,-4.349999904632568,-10.5,39.737831115722656,0,
 961800,0.802490234375,-2.1337890625,-0.4775390625,-4.0853657722473145,-0.030487805604934692,172.9573211669922,30.149999618530273,-5.400000095367432,-13.050000190734863,39.64198684692383,0,
 961810,-3.271728515625,-7.999755859375,1.683837890625,488.8719482421875,11.493903160095215,217.19512939453125,30.299999237060547,-4.5,-12.149999618530273,39.737831115722656,0,
 961820,-1.446533203125,2.671875,0.166015625,-422.8049011230469,15.70121955871582,-430.2744140625,30.299999237060547,-4.5,-12.149999618530273,39.450294494628906,0,
 961830,-0.75341796875,0.296630859375,-0.0322265625,-351.006103515625,-97.62195587158203,-354.9695129394531,27.450000762939453,-1.9500000476837158,-9.300000190734863,39.546142578125,0,
 961840,-2.501953125,-6.830810546875,-2.031494140625,159.26829528808594,12.34756088256836,19.14634132385254,27.450000762939453,-2.700000047683716,-11.25,39.689910888671875,0,
 961850,-2.884765625,3.050048828125,-5.51416015625,-99.90853881835938,169.26829528808594,143.14024353027344,28.200000762939453,-0.75,-10.050000190734863,39.737831115722656,0,
 961860,-3.410400390625,0.04443359375,-1.5732421875,-70.67073059082031,-35.15243911743164,-248.14024353027344,28.200000762939453,-0.75,-10.050000190734863,39.64198684692383,0,
 961870,0.506591796875,-2.38134765625,-0.769287109375,-16.707317352294922,94.14634704589844,-217.256103515625,25.200000762939453,-1.0499999523162842,-7.5,39.35445022583008,0,
 961880,0.40234375,-1.601806640625,-1.022216796875,-3.5060975551605225,53.10975646972656,66.9817123413086,25.649999618530273,-0.15000000596046448,-9.149999618530273,39.49821853637695,0,
 961890,-0.001953125,-0.761962890625,-0.887451171875,-8.87195110321045,22.28658676147461,155.7012176513672,27.75,-0.75,-8.550000190734863,39.83367919921875,0,
 961900,-0.2900390625,-0.95947265625,-0.549072265625,59.32926940917969,-15.487805366516113,157.9268341064453,27.75,-0.75,-8.550000190734863,39.88159942626953,0,
 961910,-0.249755859375,-0.80224609375,-0.4580078125,46.09756088256836,-28.780488967895508,149.5426788330078,28.649999618530273,-3.450000047683716,-8.550000190734863,39.689910888671875,0,
 961920,-0.1806640625,-0.367431640625,-0.3779296875,16.0060977935791,-70.51829528808594,95.64024353027344,31.649999618530273,-5.400000095367432,-10.050000190734863,39.64198684692383,0,
 961930,-0.154052734375,-0.255859375,-0.222412109375,10.091464042663574,-73.6280517578125,80.79268646240234,28.049999237060547,-2.549999952316284,-10.649999618530273,39.64198684692383,0,
 961940,-0.2099609375,-0.598876953125,-0.254638671875,3.0182926654815674,-61.40243911743164,45.82317352294922,28.049999237060547,-2.549999952316284,-10.649999618530273,39.737831115722656,0,
 961950,-0.510498046875,-0.618408203125,-0.090087890625,-33.2621955871582,-42.682926177978516,-2.6219513416290283,28.950000762939453,-2.549999952316284,-10.649999618530273,39.83367919921875,0,
 961960,-0.603271484375,-0.411865234375,0.07666015625,-27.774391174316406,-32.164634704589844,-21.55487823486328,30.149999618530273,-3.450000047683716,-10.050000190734863,39.49821853637695,0,
 961970,-0.6708984375,-0.27685546875,0.233642578125,-2.22560977935791,-22.469512939453125,-34.024391174316406,29.850000381469727,-4.050000190734863,-11.699999809265137,39.546142578125,0,
 961980,-0.711669921875,-0.739990234375,0.20751953125,-1.0060975551605225,-1.737804889678955,-40.82317352294922,28.649999618530273,-2.25,-11.25,39.689910888671875,0,
 961991,-0.74267578125,-1.041015625,0.18994140625,-19.60365867614746,21.79878044128418,-44.32926940917969,28.649999618530273,-2.25,-11.25,39.35445022583008,0,
 962001,-0.620849609375,-1.1015625,0.11962890625,-26.58536720275879,36.40243911743164,-31.43292808532715,28.350000381469727,-2.549999952316284,-9.149999618530273,39.689910888671875,0,
 962011,-0.475830078125,-1.132080078125,0.033935546875,-22.926830291748047,40.4878044128418,-3.7804877758026123,30.450000762939453,-2.700000047683716,-10.5,39.49821853637695,0,
 962021,-0.421142578125,-1.105712890625,-0.114013671875,-9.84756088256836,38.38414764404297,18.810976028442383,29.549999237060547,-0.8999999761581421,-11.699999809265137,39.64198684692383,0,
 962031,-0.43115234375,-1.0634765625,-0.262939453125,1.6768293380737305,33.99390411376953,34.39024353027344,29.549999237060547,-0.8999999761581421,-11.699999809265137,39.546142578125,0,
 962041,-0.405029296875,-1.04345703125,-0.3671875,5.152439117431641,25.274391174316406,46.03658676147461,27.75,-1.9500000476837158,-7.800000190734863,39.689910888671875,0,
 962051,-0.303955078125,-0.924072265625,-0.44873046875,8.079268455505371,13.689024925231934,52.80487823486328,28.049999237060547,-4.5,-9.899999618530273,39.450294494628906,0,
 962061,-0.201416015625,-0.85302734375,-0.497314453125,13.170731544494629,0.4573170840740204,52.774391174316406,28.799999237060547,-4.050000190734863,-9.149999618530273,39.35445022583008,0,
 962071,-0.239990234375,-0.887939453125,-0.4765625,2.4390244483947754,-11.707317352294922,44.05487823486328,28.799999237060547,-4.050000190734863,-9.149999618530273,39.689910888671875,0,
 962081,-0.341796875,-0.642333984375,-0.326416015625,-5.8231706619262695,-23.323171615600586,32.65243911743164,29.850000381469727,-4.5,-9.899999618530273,39.64198684692383,0,
 962091,-0.404052734375,-0.710205078125,-0.271484375,-1.7987805604934692,-31.73780632019043,22.13414764404297,29.850000381469727,-4.949999809265137,-9.149999618530273,39.83367919921875,0,
 962101,-0.48876953125,-0.771484375,-0.197021484375,-5.060975551605225,-32.5,12.103658676147461,28.950000762939453,-5.400000095367432,-9.0,39.64198684692383,0,
 962111,-0.52783203125,-0.72021484375,-0.1142578125,-14.02439022064209,-29.29878044128418,1.5243902206420898,29.700000762939453,-3.450000047683716,-10.800000190734863,39.49821853637695,0,
 962121,-0.53955078125,-0.73291015625,-0.057861328125,-13.689024925231934,-24.69512176513672,-5.121951103210449,29.700000762939453,-3.9000000953674316,-11.550000190734863,39.64198684692383,0,
 962131,-0.5703125,-0.821044921875,-0.03369140625,-8.109756469726562,-19.329269409179688,-7.012195110321045,30.75,-6.0,-13.949999809265137,39.689910888671875,0,
 962141,-0.5849609375,-0.829833984375,-0.026123046875,-8.384146690368652,-10.091464042663574,-6.646341800689697,30.75,-4.949999809265137,-9.449999809265137,39.689910888671875,0,
 962151,-0.58935546875,-0.847900390625,-0.037109375,-4.542683124542236,-0.030487805604934692,-4.847560882568359,30.149999618530273,-5.099999904632568,-9.0,39.64198684692383,0,
 962161,-0.52099609375,-0.90283203125,-0.065185546875,-3.47560977935791,9.84756088256836,-2.9268293380737305,30.149999618530273,-5.099999904632568,-9.0,39.64198684692383,0,
 962171,-0.482421875,-0.814697265625,-0.142822265625,-8.292682647705078,14.84756088256836,0.060975611209869385,31.5,-4.5,-9.899999618530273,39.737831115722656,0,
 962181,-0.478759765625,-0.785888671875,-0.202392578125,-2.5304877758026123,16.890243530273438,3.2012195587158203,30.299999237060547,-4.050000190734863,-9.899999618530273,39.546142578125,0,
 962191,-0.435791015625,-0.8203125,-0.2431640625,3.8719513416290283,16.981708526611328,4.5731706619262695,28.649999618530273,-3.9000000953674316,-10.5,39.737831115722656,0,
 962201,-0.40087890625,-0.81884765625,-0.27783203125,4.72560977935791,13.780488014221191,4.054878234863281,28.649999618530273,-3.9000000953674316,-10.5,39.737831115722656,0,
 962211,-0.38134765625,-0.82421875,-0.3115234375,3.75,8.932927131652832,3.1402440071105957,30.299999237060547,-4.050000190734863,-9.899999618530273,39.35445022583008,0,
 962221,-0.37353515625,-0.82568359375,-0.316162109375,2.9268293380737305,3.1097562313079834,1.6768293380737305,30.450000762939453,-3.9000000953674316,-10.800000190734863,39.88159942626953,0,
 962231,-0.38818359375,-0.775634765625,-0.267578125,3.841463565826416,-3.0182926654815674,0.09146341681480408,30.75,-6.449999809265137,-12.899999618530273,39.689910888671875,0,
 962241,-0.41943359375,-0.801513671875,-0.235107421875,7.77439022064209,-8.445121765136719,-1.25,30.75,-6.449999809265137,-12.899999618530273,39.689910888671875,0,
 962251,-0.4345703125,-0.841796875,-0.2119140625,8.353658676147461,-11.981707572937012,-2.682926893234253,31.200000762939453,-4.650000095367432,-9.75,39.737831115722656,0,
 962261,-0.460205078125,-0.83984375,-0.191650390625,5.4268293380737305,-12.591464042663574,-3.932926893234253,29.850000381469727,-2.549999952316284,-10.199999809265137,39.450294494628906,0,
 962271,-0.48388671875,-0.820068359375,-0.145263671875,3.9939024448394775,-11.646341323852539,-4.634146213531494,31.5,-4.5,-9.449999809265137,39.64198684692383,0,
 962281,-0.488525390625,-0.841552734375,-0.111572265625,4.847560882568359,-9.72560977935791,-4.786585330963135,30.899999618530273,-5.099999904632568,-11.25,39.689910888671875,0,
 962291,-0.50146484375,-0.845947265625,-0.09130859375,4.237804889678955,-6.371951580047607,-4.329268455505371,30.899999618530273,-5.099999904632568,-11.25,39.64198684692383,0,
 962311,-0.482177734375,-0.8681640625,-0.103271484375,2.591463565826416,2.6524391174316406,-2.896341562271118,30.899999618530273,-5.099999904632568,-10.050000190734863,39.450294494628906,0,
 962321,-0.466552734375,-0.836181640625,-0.13525390625,-2.103658676147461,5.731707572937012,-2.2865853309631348,30.149999618530273,-4.650000095367432,-10.050000190734863,39.689910888671875,0,
 962331,-0.46435546875,-0.8251953125,-0.1572265625,-3.4146342277526855,7.713414669036865,-2.0731706619262695,30.149999618530273,-4.650000095367432,-10.050000190734863,39.689910888671875,0,
 962341,-0.455322265625,-0.799072265625,-0.173828125,-3.658536672592163,8.292682647705078,-2.1341464519500732,29.700000762939453,-4.349999904632568,-11.550000190734863,39.64198684692383,0,
 962351,-0.431396484375,-0.814208984375,-0.19873046875,-2.3475611209869385,8.780488014221191,-2.865853786468506,30.299999237060547,-4.050000190734863,-9.149999618530273,39.546142578125,0,
 962361,-0.4296875,-0.83642578125,-0.20947265625,-0.9451219439506531,7.22560977935791,-3.079268455505371,29.100000381469727,-4.050000190734863,-10.199999809265137,39.450294494628906,0,
 962371,-0.424560546875,-0.822265625,-0.20751953125,-0.5487805008888245,3.353658676147461,-3.628048896789551,29.100000381469727,-4.050000190734863,-10.199999809265137,39.546142578125,0,
 962381,-0.41845703125,-0.82568359375,-0.216796875,0.3353658616542816,0.7012194991111755,-3.567073345184326,30.450000762939453,-3.9000000953674316,-8.550000190734863,39.689910888671875,0,
 962391,-0.423583984375,-0.8369140625,-0.2041015625,1.0365853309631348,-1.0060975551605225,-3.353658676147461,29.700000762939453,-2.700000047683716,-9.75,39.83367919921875,0,
 962401,-0.43505859375,-0.824951171875,-0.188232421875,2.77439022064209,-2.22560977935791,-2.804877996444702,30.149999618530273,-4.650000095367432,-9.75,39.64198684692383,0,
 962411,-0.437744140625,-0.8330078125,-0.18505859375,2.4390244483947754,-2.6524391174316406,-2.5609755516052246,30.149999618530273,-4.650000095367432,-9.75,39.546142578125,0,
 962421,-0.44482421875,-0.832763671875,-0.166015625,2.1341464519500732,-2.103658676147461,-2.378048896789551,30.149999618530273,-4.650000095367432,-9.75,39.737831115722656,0,
 962431,-0.452880859375,-0.83154296875,-0.1533203125,1.4939024448394775,-1.2195122241973877,-2.6524391174316406,31.649999618530273,-3.450000047683716,-14.550000190734863,39.64198684692383,0,
 962441,-0.467529296875,-0.836669921875,-0.1494140625,0.12195122241973877,0.4878048896789551,-2.804877996444702,30.75,-6.0,-9.899999618530273,39.49821853637695,0,
 962451,-0.466552734375,-0.83642578125,-0.138916015625,-0.6402438879013062,1.7682926654815674,-3.0487804412841797,32.25,-6.449999809265137,-10.199999809265137,39.546142578125,0,
 962461,-0.46435546875,-0.84326171875,-0.14404296875,-2.8353660106658936,3.9024391174316406,-3.5060975551605225,32.25,-6.449999809265137,-10.199999809265137,39.689910888671875,0,
 962471,-0.46826171875,-0.84228515625,-0.14794921875,-3.5060975551605225,5.4268293380737305,-3.628048896789551,29.549999237060547,-4.949999809265137,-10.949999809265137,39.64198684692383,0,
 962481,-0.4580078125,-0.840087890625,-0.154052734375,-4.02439022064209,6.128048896789551,-3.262195110321045,30.75,-4.050000190734863,-9.899999618530273,39.737831115722656,0,
 962491,-0.450439453125,-0.836181640625,-0.166015625,-3.2012195587158203,6.5853657722473145,-3.5060975551605225,29.850000381469727,-3.299999952316284,-11.399999618530273,39.64198684692383,0,
 962501,-0.44921875,-0.81982421875,-0.18603515625,-1.3414634466171265,6.036585330963135,-3.841463565826416,29.850000381469727,-3.299999952316284,-11.399999618530273,39.546142578125,0,
 962511,-0.447998046875,-0.828857421875,-0.190185546875,-1.0060975551605225,5.9146342277526855,-3.932926893234253,30.899999618530273,-4.650000095367432,-9.75,39.49821853637695,0,
 962521,-0.438232421875,-0.8369140625,-0.194580078125,-0.6707317233085632,4.45121955871582,-4.29878044128418,31.649999618530273,-3.9000000953674316,-9.300000190734863,39.689910888671875,0,
 962531,-0.4345703125,-0.8408203125,-0.20703125,0.030487805604934692,3.567073345184326,-4.237804889678955,30.450000762939453,-4.349999904632568,-10.5,39.977447509765625,0,
 962541,-0.433349609375,-0.84423828125,-0.2109375,0.24390244483947754,2.591463565826416,-4.1768293380737305,30.450000762939453,-4.349999904632568,-10.5,39.737831115722656,0,
 962551,-0.435302734375,-0.8408203125,-0.20263671875,1.2195122241973877,1.5548781156539917,-4.0853657722473145,30.75,-4.949999809265137,-10.649999618530273,39.35445022583008,0,
 962561,-0.43603515625,-0.85498046875,-0.193603515625,1.6158536672592163,0.4268292784690857,-3.5060975551605225,30.899999618530273,-3.9000000953674316,-12.0,39.64198684692383,0,
 962571,-0.446044921875,-0.864501953125,-0.183349609375,1.5548781156539917,0.030487805604934692,-3.1097562313079834,30.299999237060547,-3.299999952316284,-10.199999809265137,39.977447509765625,0,
 962581,-0.447265625,-0.85791015625,-0.170654296875,1.0670732259750366,0.18292683362960815,-2.5304877758026123,30.299999237060547,-4.050000190734863,-9.149999618530273,39.64198684692383,0,
 962591,-0.45068359375,-0.86279296875,-0.167724609375,0.5487805008888245,0.27439025044441223,-2.012195110321045,31.200000762939453,-4.349999904632568,-9.0,39.689910888671875,0,
 962601,-0.455322265625,-0.852783203125,-0.17333984375,-0.396341472864151,0.6097561120986938,-1.737804889678955,30.299999237060547,-4.5,-9.449999809265137,39.450294494628906,0,
 962611,-0.454345703125,-0.8515625,-0.173583984375,-0.6097561120986938,1.402438998222351,-1.7073171138763428,29.399999618530273,-3.9000000953674316,-10.5,39.689910888671875,0,
 962621,-0.45751953125,-0.83935546875,-0.179443359375,-0.9146341681480408,1.585365891456604,-1.402438998222351,29.100000381469727,-4.050000190734863,-9.899999618530273,39.64198684692383,0,
