timestamp,accl_x,accl_y,accl_z,gyro_x,gyro_y,gyro_z,mag_x,mag_y,mag_z,temp,emg,
 352917,-0.18798828125,-0.950439453125,-0.0224609375,0.3048780560493469,-0.15243902802467346,0.030487805604934692,20.700000762939453,4.5,-12.449999809265137,37.245845794677734,0,
 352927,-0.188232421875,-0.95947265625,-0.013671875,0.7012194991111755,-0.3353658616542816,-0.4878048896789551,20.549999237060547,6.300000190734863,-12.300000190734863,37.006229400634766,0,
 352937,-0.195068359375,-0.963623046875,-0.017333984375,-0.12195122241973877,0.0,-0.5182926654815674,22.049999237060547,5.400000095367432,-13.800000190734863,37.245845794677734,0,
 352947,-0.190185546875,-0.9609375,-0.0146484375,-0.792682945728302,0.27439025044441223,-0.5487805008888245,21.450000762939453,7.199999809265137,-14.399999618530273,36.86246109008789,0,
 352957,-0.18701171875,-0.965087890625,-0.018310546875,-1.432926893234253,0.7317073345184326,-0.18292683362960815,21.450000762939453,7.199999809265137,-14.399999618530273,37.10207748413086,0,
 352967,-0.186279296875,-0.96240234375,-0.021484375,-1.9817073345184326,1.1585365533828735,0.3048780560493469,21.450000762939453,7.650000095367432,-14.399999618530273,37.10207748413086,0,
 352977,-0.187255859375,-0.959716796875,-0.027099609375,-1.5243902206420898,0.9451219439506531,0.7012194991111755,20.700000762939453,7.199999809265137,-12.449999809265137,37.19792175292969,0,
 352987,-0.182861328125,-0.956298828125,-0.028076171875,-0.9756097793579102,0.792682945728302,0.9146341681480408,21.75,5.849999904632568,-13.050000190734863,37.19792175292969,0,
 352997,-0.1875,-0.962646484375,-0.024169921875,-0.7012194991111755,0.5487805008888245,1.585365891456604,21.75,5.849999904632568,-13.050000190734863,37.006229400634766,0,
 353007,-0.190185546875,-0.95703125,-0.021240234375,-0.7012194991111755,0.4268292784690857,1.1585365533828735,21.0,5.099999904632568,-13.050000190734863,37.006229400634766,0,
 353017,-0.189453125,-0.95849609375,-0.02197265625,-0.7012194991111755,0.09146341681480408,1.3414634466171265,21.0,6.599999904632568,-13.5,37.43753433227539,0,
 353037,-0.18994140625,-0.950439453125,-0.02685546875,-0.396341472864151,0.030487805604934692,0.5487805008888245,21.450000762939453,6.449999809265137,-12.899999618530273,37.05415344238281,0,
 353047,-0.185791015625,-0.95263671875,-0.02099609375,-0.15243902802467346,0.24390244483947754,0.12195122241973877,21.450000762939453,6.449999809265137,-12.899999618530273,36.814537048339844,0,
 353057,-0.197998046875,-0.960205078125,-0.018798828125,0.24390244483947754,0.6097561120986938,-0.09146341681480408,20.100000381469727,5.400000095367432,-13.050000190734863,36.91038513183594,0,
 353067,-0.189697265625,-0.957763671875,-0.014404296875,-0.27439025044441223,0.8841463327407837,-0.4268292784690857,19.799999237060547,4.650000095367432,-15.0,37.19792175292969,0,
 353077,-0.19091796875,-0.96240234375,-0.017333984375,-0.6402438879013062,1.2804877758026123,-0.8841463327407837,22.5,5.099999904632568,-13.800000190734863,37.006229400634766,0,
 353087,-0.186279296875,-0.953857421875,-0.01416015625,-1.5548781156539917,1.1585365533828735,-1.4939024448394775,22.5,5.099999904632568,-13.800000190734863,37.05415344238281,0,
 353097,-0.18505859375,-0.96044921875,-0.016845703125,-1.5243902206420898,1.1585365533828735,-1.2804877758026123,21.149999618530273,6.449999809265137,-14.399999618530273,36.718692779541016,0,
 353107,-0.18603515625,-0.961669921875,-0.025390625,-1.7073171138763428,0.9146341681480408,-0.8841463327407837,20.700000762939453,6.0,-13.649999618530273,37.05415344238281,0,
 353117,-0.18310546875,-0.954833984375,-0.025146484375,-2.1341464519500732,1.6158536672592163,-0.5487805008888245,21.149999618530273,5.25,-14.399999618530273,37.34169006347656,0,
 353127,-0.17919921875,-0.9619140625,-0.02294921875,-2.103658676147461,1.6768293380737305,0.18292683362960815,22.200000762939453,5.699999809265137,-11.399999618530273,36.86246109008789,0,
 353137,-0.186279296875,-0.969970703125,-0.025634765625,-2.0731706619262695,1.0670732259750366,0.4878048896789551,22.200000762939453,5.699999809265137,-11.399999618530273,37.19792175292969,0,
 353147,-0.187255859375,-0.969970703125,-0.021728515625,-2.8353660106658936,0.5182926654815674,1.1280487775802612,19.649999618530273,5.699999809265137,-11.399999618530273,37.245845794677734,0,
 353157,-0.1904296875,-0.9501953125,-0.032958984375,-2.2560975551605225,-0.24390244483947754,0.4573170840740204,21.299999237060547,7.5,-13.800000190734863,37.05415344238281,0,
 353167,-0.17919921875,-0.955078125,-0.029541015625,0.4573170840740204,-1.1890244483947754,0.4268292784690857,21.149999618530273,5.699999809265137,-15.149999618530273,37.245845794677734,0,
 353177,-0.18896484375,-0.95703125,-0.02783203125,0.21341463923454285,-1.8902438879013062,-0.396341472864151,21.149999618530273,5.699999809265137,-15.149999618530273,37.245845794677734,0,
 353187,-0.18994140625,-0.951904296875,-0.025146484375,-0.030487805604934692,-1.4939024448394775,-0.5792682766914368,22.200000762939453,6.449999809265137,-13.949999809265137,36.86246109008789,0,
 353197,-0.192138671875,-0.973388671875,-0.020751953125,-2.012195110321045,-1.1280487775802612,-0.9451219439506531,21.149999618530273,6.900000095367432,-14.399999618530273,37.34169006347656,0,
 353207,-0.199462890625,-0.97119140625,-0.011962890625,-3.2012195587158203,-0.792682945728302,-0.6097561120986938,21.0,7.050000190734863,-13.800000190734863,37.006229400634766,0,
 353217,-0.188232421875,-0.96142578125,-0.010986328125,-4.02439022064209,0.12195122241973877,-0.396341472864151,21.450000762939453,5.25,-13.199999809265137,37.245845794677734,0,
 353227,-0.192626953125,-0.96435546875,-0.014892578125,-4.207317352294922,0.9756097793579102,0.3353658616542816,21.450000762939453,5.25,-13.199999809265137,37.05415344238281,0,
 353237,-0.18359375,-0.95849609375,-0.0263671875,-3.7804877758026123,1.402438998222351,0.8536585569381714,21.0,5.400000095367432,-13.800000190734863,36.814537048339844,0,
 353247,-0.179443359375,-0.9599609375,-0.03173828125,-3.170731782913208,1.5548781156539917,0.8536585569381714,21.0,7.050000190734863,-13.800000190734863,37.19792175292969,0,
 353257,-0.1845703125,-0.957763671875,-0.027099609375,-2.7134146690368652,1.2195122241973877,0.6707317233085632,20.549999237060547,6.599999904632568,-12.75,37.19792175292969,0,
 353267,-0.185546875,-0.95263671875,-0.0224609375,-2.012195110321045,1.1890244483947754,0.396341472864151,20.549999237060547,6.599999904632568,-12.75,37.245845794677734,0,
 353277,-0.187255859375,-0.9501953125,-0.032958984375,-1.0365853309631348,0.9146341681480408,-0.21341463923454285,20.700000762939453,6.449999809265137,-12.449999809265137,37.006229400634766,0,
 353287,-0.180908203125,-0.957763671875,-0.029296875,-1.1280487775802612,0.7317073345184326,-0.21341463923454285,21.899999618530273,6.0,-13.649999618530273,37.006229400634766,0,
 353297,-0.19140625,-0.939208984375,-0.035400390625,-0.396341472864151,0.5792682766914368,-0.6707317233085632,20.399999618530273,6.449999809265137,-12.449999809265137,37.10207748413086,0,
 353307,-0.18310546875,-0.947509765625,-0.0302734375,-0.4878048896789551,0.4573170840740204,-1.2195122241973877,20.100000381469727,5.849999904632568,-12.75,37.006229400634766,0,
 353317,-0.190673828125,-0.9541015625,-0.023193359375,-0.5487805008888245,0.6402438879013062,-1.402438998222351,20.100000381469727,5.849999904632568,-12.75,37.19792175292969,0,
 353327,-0.185546875,-0.96875,-0.016357421875,-1.0365853309631348,0.7317073345184326,-0.792682945728302,20.549999237060547,5.400000095367432,-12.300000190734863,36.91038513183594,0,
 353338,-0.19287109375,-0.968994140625,-0.021728515625,-1.0365853309631348,1.0670732259750366,-0.7012194991111755,22.200000762939453,6.0,-12.449999809265137,36.86246109008789,0,
 353348,-0.185791015625,-0.963134765625,-0.02978515625,-1.8597561120986938,1.7682926654815674,-0.4268292784690857,21.149999618530273,5.25,-12.149999618530273,37.05415344238281,0,
 353358,-0.1865234375,-0.957763671875,-0.02783203125,-2.012195110321045,2.103658676147461,0.030487805604934692,21.149999618530273,5.25,-12.149999618530273,37.006229400634766,0,
 353368,-0.184814453125,-0.958740234375,-0.035400390625,-1.737804889678955,2.378048896789551,0.15243902802467346,20.549999237060547,9.0,-16.049999237060547,37.006229400634766,0,
 353378,-0.190185546875,-0.954833984375,-0.029296875,-1.1585365533828735,2.1646342277526855,0.5182926654815674,20.549999237060547,7.050000190734863,-12.300000190734863,37.43753433227539,0,
 353388,-0.189208984375,-0.96142578125,-0.029541015625,-0.8231707215309143,2.378048896789551,0.12195122241973877,21.0,6.599999904632568,-13.5,37.05415344238281,0,
 353398,-0.1806640625,-0.957763671875,-0.0263671875,-0.3658536672592163,1.585365891456604,-0.030487805604934692,20.700000762939453,6.0,-13.649999618530273,36.814537048339844,0,
 353408,-0.1884765625,-0.960205078125,-0.026611328125,-0.3048780560493469,1.5548781156539917,-0.12195122241973877,20.700000762939453,6.0,-13.649999618530273,37.34169006347656,0,
 353418,-0.190673828125,-0.962646484375,-0.033935546875,-0.396341472864151,1.2804877758026123,0.27439025044441223,19.950000762939453,6.900000095367432,-12.899999618530273,37.245845794677734,0,
 353428,-0.185546875,-0.951171875,-0.032958984375,0.15243902802467346,2.012195110321045,-0.396341472864151,20.549999237060547,5.849999904632568,-14.25,37.006229400634766,0,
 353438,-0.187744140625,-0.96728515625,-0.027099609375,1.1890244483947754,1.9512195587158203,-0.12195122241973877,20.399999618530273,7.199999809265137,-13.649999618530273,36.814537048339844,0,
 353448,-0.185546875,-0.959228515625,-0.028076171875,0.9451219439506531,2.317073106765747,-0.3353658616542816,20.399999618530273,7.199999809265137,-13.649999618530273,37.05415344238281,0,
 353458,-0.1826171875,-0.952880859375,-0.022216796875,0.9146341681480408,1.6463414430618286,-0.7317073345184326,20.700000762939453,6.449999809265137,-14.399999618530273,37.006229400634766,0,
 353468,-0.193115234375,-0.96630859375,-0.0205078125,0.8841463327407837,1.6158536672592163,-0.21341463923454285,20.700000762939453,7.199999809265137,-12.449999809265137,37.10207748413086,0,
 353478,-0.187744140625,-0.95556640625,-0.0322265625,0.5182926654815674,1.585365891456604,-0.15243902802467346,21.0,5.849999904632568,-15.300000190734863,37.38961410522461,0,
 353488,-0.183837890625,-0.950927734375,-0.029052734375,0.6402438879013062,2.22560977935791,-0.21341463923454285,20.100000381469727,5.400000095367432,-12.300000190734863,36.91038513183594,0,
 353498,-0.1875,-0.96240234375,-0.026611328125,1.6463414430618286,1.8902438879013062,0.3353658616542816,20.100000381469727,5.400000095367432,-12.300000190734863,36.86246109008789,0,
 353508,-0.184326171875,-0.95361328125,-0.0322265625,1.432926893234253,1.4634146690368652,0.030487805604934692,20.549999237060547,7.050000190734863,-13.050000190734863,37.19792175292969,0,
 353518,-0.1806640625,-0.96435546875,-0.0234375,1.9817073345184326,1.8597561120986938,0.3353658616542816,20.399999618530273,6.449999809265137,-12.149999618530273,37.05415344238281,0,
 353528,-0.185302734375,-0.96044921875,-0.022216796875,1.6768293380737305,1.4939024448394775,0.15243902802467346,21.299999237060547,5.099999904632568,-13.5,37.05415344238281,0,
 353538,-0.181884765625,-0.96142578125,-0.021240234375,1.2195122241973877,1.4939024448394775,0.24390244483947754,21.299999237060547,5.099999904632568,-13.5,36.814537048339844,0,
 353548,-0.1767578125,-0.9765625,-0.01904296875,0.3048780560493469,1.4634146690368652,0.24390244483947754,20.100000381469727,6.599999904632568,-13.800000190734863,37.05415344238281,0,
 353558,-0.193115234375,-0.9794921875,-0.013427734375,-0.7621951103210449,0.3353658616542816,0.6402438879013062,20.100000381469727,5.849999904632568,-15.0,37.245845794677734,0,
 353568,-0.188720703125,-0.963623046875,-0.022216796875,-2.804877996444702,-0.5487805008888245,-0.060975611209869385,21.0,4.650000095367432,-12.75,37.006229400634766,0,
 353578,-0.183349609375,-0.969970703125,-0.028564453125,-2.987804889678955,-0.8536585569381714,0.24390244483947754,20.700000762939453,5.699999809265137,-15.449999809265137,37.006229400634766,0,
 353588,-0.18994140625,-0.983154296875,-0.022216796875,-3.0487804412841797,-0.6707317233085632,0.8536585569381714,20.700000762939453,5.699999809265137,-15.449999809265137,36.86246109008789,0,
 353598,-0.1923828125,-0.97607421875,-0.025146484375,-3.8719513416290283,-0.792682945728302,0.7012194991111755,21.299999237060547,5.400000095367432,-12.300000190734863,37.006229400634766,0,
 353608,-0.18896484375,-0.969482421875,-0.031982421875,-4.115853786468506,-1.0365853309631348,0.5487805008888245,21.450000762939453,7.650000095367432,-13.649999618530273,37.245845794677734,0,
 353618,-0.19482421875,-0.979248046875,-0.024169921875,-4.542683124542236,-1.2195122241973877,-0.060975611209869385,20.700000762939453,5.25,-13.649999618530273,37.05415344238281,0,
 353628,-0.19921875,-0.9638671875,-0.028564453125,-4.5731706619262695,-0.396341472864151,-0.15243902802467346,20.700000762939453,5.25,-13.649999618530273,37.05415344238281,0,
 353638,-0.1904296875,-0.955810546875,-0.02392578125,-4.908536911010742,0.7317073345184326,0.24390244483947754,21.299999237060547,5.849999904632568,-13.800000190734863,37.245845794677734,0,
 353648,-0.190185546875,-0.95703125,-0.027099609375,-5.457317352294922,1.7987805604934692,0.5182926654815674,22.049999237060547,5.400000095367432,-12.75,37.05415344238281,0,
 353658,-0.189453125,-0.965087890625,-0.02294921875,-7.103658676147461,2.77439022064209,0.7317073345184326,19.950000762939453,7.650000095367432,-12.899999618530273,37.10207748413086,0,
 353678,-0.1767578125,-0.956298828125,-0.022705078125,-9.390244483947754,2.6219513416290283,2.0731706619262695,20.700000762939453,6.0,-14.399999618530273,37.006229400634766,0,
 353688,-0.17529296875,-0.952392578125,-0.03662109375,-8.689024925231934,2.3475611209869385,2.6219513416290283,19.950000762939453,6.449999809265137,-12.899999618530273,37.19792175292969,0,
 353698,-0.181884765625,-0.93505859375,-0.052978515625,-5.457317352294922,2.103658676147461,1.920731782913208,22.049999237060547,6.300000190734863,-12.0,37.245845794677734,0,
 353708,-0.169677734375,-0.91796875,-0.0712890625,-2.1341464519500732,1.8292683362960815,2.1341464519500732,19.350000381469727,5.099999904632568,-12.75,37.006229400634766,0,
 353718,-0.172119140625,-0.943359375,-0.048828125,-1.3414634466171265,0.12195122241973877,1.5548781156539917,19.350000381469727,5.099999904632568,-12.75,37.006229400634766,0,
 353728,-0.187255859375,-0.95166015625,-0.05419921875,-1.3719512224197388,-0.4268292784690857,0.9146341681480408,21.149999618530273,7.199999809265137,-12.899999618530273,36.86246109008789,0,
 353738,-0.18359375,-0.949951171875,-0.04443359375,-0.5487805008888245,-1.0060975551605225,0.24390244483947754,19.950000762939453,5.699999809265137,-13.649999618530273,37.05415344238281,0,
 353748,-0.193603515625,-0.961669921875,-0.039306640625,-0.5792682766914368,-0.8231707215309143,-0.3658536672592163,19.950000762939453,6.900000095367432,-13.649999618530273,36.814537048339844,0,
 353758,-0.1953125,-0.97119140625,-0.036376953125,-1.3109756708145142,-0.3353658616542816,0.060975611209869385,22.200000762939453,5.25,-12.449999809265137,37.245845794677734,0,
 353768,-0.194091796875,-0.967529296875,-0.03125,-2.0731706619262695,0.4268292784690857,0.18292683362960815,22.200000762939453,5.25,-12.449999809265137,37.19792175292969,0,
 353778,-0.192138671875,-0.973388671875,-0.02978515625,-3.353658676147461,0.8231707215309143,0.4268292784690857,20.700000762939453,8.100000381469727,-15.449999809265137,36.86246109008789,0,
 353788,-0.190185546875,-0.9609375,-0.03271484375,-4.6646342277526855,1.4939024448394775,0.8231707215309143,20.549999237060547,5.099999904632568,-12.300000190734863,37.245845794677734,0,
 353798,-0.19384765625,-0.967041015625,-0.01953125,-5.396341800689697,1.737804889678955,1.0670732259750366,21.299999237060547,5.400000095367432,-13.050000190734863,37.006229400634766,0,
 353808,-0.204833984375,-0.94384765625,-0.042236328125,-6.128048896789551,3.262195110321045,2.0426828861236572,21.299999237060547,5.400000095367432,-13.050000190734863,37.10207748413086,0,
 353818,-0.183349609375,-0.93798828125,-0.052734375,-4.542683124542236,3.8719513416290283,-0.3048780560493469,20.399999618530273,4.949999809265137,-12.149999618530273,37.245845794677734,0,
 353828,-0.185546875,-0.965087890625,-0.029052734375,-2.896341562271118,4.786585330963135,0.3048780560493469,20.700000762939453,6.900000095367432,-12.899999618530273,36.86246109008789,0,
 353838,-0.189697265625,-0.95361328125,-0.036865234375,-4.878048896789551,4.237804889678955,-1.0670732259750366,21.450000762939453,5.699999809265137,-12.149999618530273,37.05415344238281,0,
 353848,-0.185546875,-0.93408203125,-0.05517578125,-5.396341800689697,3.8719513416290283,-0.8536585569381714,21.149999618530273,7.199999809265137,-13.649999618530273,37.006229400634766,0,
 353858,-0.183349609375,-0.937744140625,-0.06201171875,-3.7195122241973877,4.481707572937012,-1.5243902206420898,21.149999618530273,7.199999809265137,-13.649999618530273,37.245845794677734,0,
 353868,-0.18359375,-0.94287109375,-0.061767578125,-2.1341464519500732,4.0853657722473145,-1.8902438879013062,21.149999618530273,4.949999809265137,-12.149999618530273,37.05415344238281,0,
 353878,-0.184326171875,-0.950439453125,-0.047607421875,-1.1890244483947754,4.115853786468506,-2.4390244483947754,20.100000381469727,5.849999904632568,-12.75,37.006229400634766,0,
 353888,-0.178955078125,-0.96142578125,-0.046630859375,-0.09146341681480408,3.1402440071105957,-1.737804889678955,20.700000762939453,5.699999809265137,-12.449999809265137,37.245845794677734,0,
 353898,-0.172607421875,-0.962890625,-0.04638671875,-0.24390244483947754,1.4634146690368652,-1.7987805604934692,20.700000762939453,5.699999809265137,-12.449999809265137,37.05415344238281,0,
 353908,-0.17724609375,-0.967041015625,-0.055908203125,-0.4573170840740204,0.24390244483947754,-1.0365853309631348,22.5,5.849999904632568,-13.800000190734863,37.19792175292969,0,
 353918,-0.186767578125,-0.971923828125,-0.05126953125,0.27439025044441223,-0.9146341681480408,-0.21341463923454285,21.75,5.849999904632568,-12.300000190734863,37.34169006347656,0,
 353928,-0.1845703125,-0.970458984375,-0.050537109375,0.6707317233085632,-1.920731782913208,-0.24390244483947754,21.149999618530273,5.699999809265137,-11.699999809265137,36.91038513183594,0,
 353938,-0.18505859375,-0.973388671875,-0.03369140625,1.585365891456604,-2.317073106765747,0.6097561120986938,21.299999237060547,6.599999904632568,-13.050000190734863,37.006229400634766,0,
 353948,-0.198486328125,-0.9814453125,-0.028564453125,1.25,-2.4390244483947754,0.9756097793579102,21.299999237060547,6.599999904632568,-13.050000190734863,37.245845794677734,0,
 353958,-0.19482421875,-0.9716796875,-0.03125,-0.5792682766914368,-1.7682926654815674,1.1280487775802612,20.549999237060547,5.849999904632568,-13.050000190734863,37.05415344238281,0,
 353968,-0.19287109375,-0.977783203125,-0.034423828125,-2.2865853309631348,-0.7317073345184326,1.4634146690368652,20.100000381469727,7.050000190734863,-13.800000190734863,37.245845794677734,0,
 353978,-0.19580078125,-0.988037109375,-0.031494140625,-3.445122003555298,0.030487805604934692,1.0670732259750366,21.149999618530273,6.0,-12.449999809265137,37.05415344238281,0,
 353988,-0.18896484375,-0.97705078125,-0.037841796875,-5.8231706619262695,-0.5182926654815674,0.6402438879013062,19.049999237060547,3.9000000953674316,-12.0,36.91038513183594,0,
 353998,-0.185302734375,-0.966064453125,-0.05615234375,-6.310975551605225,-1.1890244483947754,0.9756097793579102,19.799999237060547,5.849999904632568,-11.550000190734863,37.34169006347656,0,
 354008,-0.186767578125,-0.9560546875,-0.0693359375,-5.304878234863281,-1.8292683362960815,0.9146341681480408,21.299999237060547,5.400000095367432,-12.0,37.10207748413086,0,
 354018,-0.18310546875,-0.96337890625,-0.062255859375,-2.865853786468506,-2.5609755516052246,2.0426828861236572,21.299999237060547,5.849999904632568,-12.0,37.006229400634766,0,
 354028,-0.180908203125,-0.978759765625,-0.04931640625,-0.5792682766914368,-2.804877996444702,2.7439024448394775,19.799999237060547,5.849999904632568,-12.300000190734863,36.86246109008789,0,
 354038,-0.192626953125,-0.994140625,-0.04443359375,-0.27439025044441223,-3.7195122241973877,3.9939024448394775,19.799999237060547,5.849999904632568,-12.300000190734863,37.006229400634766,0,
 354048,-0.195556640625,-0.991943359375,-0.038818359375,-1.0365853309631348,-4.817073345184326,4.603658676147461,21.75,6.300000190734863,-12.75,37.245845794677734,0,
 354058,-0.1884765625,-0.999267578125,-0.03662109375,-2.8353660106658936,-5.579268455505371,6.006097793579102,20.549999237060547,5.849999904632568,-12.75,37.245845794677734,0,
 354068,-0.1875,-0.990478515625,-0.062255859375,-3.628048896789551,-9.085366249084473,7.530488014221191,20.549999237060547,6.300000190734863,-12.449999809265137,36.86246109008789,0,
 354078,-0.184814453125,-0.980712890625,-0.0732421875,-1.0365853309631348,-9.634146690368652,9.481707572937012,20.549999237060547,6.300000190734863,-12.0,37.19792175292969,0,
 354088,-0.19189453125,-1.00048828125,-0.07470703125,-0.15243902802467346,-10.731707572937012,11.463415145874023,22.5,5.849999904632568,-15.300000190734863,37.19792175292969,0,
 354098,-0.1904296875,-1.022705078125,-0.064697265625,-1.0365853309631348,-13.292683601379395,12.804878234863281,20.700000762939453,6.449999809265137,-12.449999809265137,37.006229400634766,0,
 354108,-0.1884765625,-1.0537109375,-0.060302734375,-4.45121955871582,-15.792683601379395,15.70121955871582,20.100000381469727,5.849999904632568,-13.199999809265137,37.10207748413086,0,
 354119,-0.201416015625,-1.07861328125,-0.04150390625,-7.347561359405518,-18.90243911743164,17.65243911743164,20.100000381469727,5.849999904632568,-11.25,37.006229400634766,0,
 354129,-0.216552734375,-1.076416015625,-0.06396484375,-8.810976028442383,-21.280488967895508,19.725610733032227,20.100000381469727,5.849999904632568,-11.25,37.05415344238281,0,
 354139,-0.2177734375,-1.040283203125,-0.08642578125,-4.756097793579102,-22.774391174316406,22.926830291748047,22.799999237060547,4.349999904632568,-13.5,37.10207748413086,0,
 354149,-0.2353515625,-1.0390625,-0.104736328125,0.4878048896789551,-23.323171615600586,25.70121955871582,20.100000381469727,4.650000095367432,-14.25,37.245845794677734,0,
 354159,-0.2275390625,-1.06982421875,-0.0947265625,2.012195110321045,-24.542682647705078,29.573171615600586,22.049999237060547,4.349999904632568,-13.050000190734863,36.91038513183594,0,
 354169,-0.21923828125,-1.075439453125,-0.0693359375,0.8536585569381714,-24.268293380737305,34.024391174316406,22.049999237060547,4.349999904632568,-13.050000190734863,37.006229400634766,0,
 354179,-0.199462890625,-1.05224609375,-0.055908203125,0.3658536672592163,-25.70121955871582,38.719512939453125,22.049999237060547,4.349999904632568,-13.050000190734863,37.006229400634766,0,
 354189,-0.2275390625,-1.0390625,-0.01416015625,1.585365891456604,-26.920732498168945,44.39024353027344,21.899999618530273,5.25,-14.399999618530273,37.05415344238281,0,
 354199,-0.2451171875,-1.022216796875,-0.010009765625,6.5853657722473145,-27.225610733032227,44.085365295410156,23.549999237060547,4.349999904632568,-13.5,37.05415344238281,0,
 354209,-0.248046875,-1.131103515625,-0.015625,3.170731782913208,-27.012195587158203,41.34146499633789,23.549999237060547,4.349999904632568,-13.5,37.245845794677734,0,
 354219,-0.25341796875,-1.1796875,-0.017333984375,-5.945122241973877,-26.920732498168945,39.26829528808594,23.549999237060547,4.349999904632568,-13.5,36.86246109008789,0,
 354229,-0.26953125,-1.115234375,-0.039794921875,-3.5060975551605225,-26.524391174316406,33.04878234863281,24.149999618530273,4.050000190734863,-12.899999618530273,37.19792175292969,0,
 354239,-0.25634765625,-1.193115234375,-0.049560546875,3.5365853309631348,-25.518293380737305,21.4939022064209,23.850000381469727,2.549999952316284,-13.949999809265137,37.245845794677734,0,
 354249,-0.23828125,-1.147705078125,-0.07421875,-0.3658536672592163,-22.713415145874023,9.268292427062988,24.600000381469727,2.549999952316284,-14.699999809265137,37.05415344238281,0,
 354259,-0.21826171875,-1.035888671875,-0.081298828125,-5.5182929039001465,-19.908536911010742,2.2865853309631348,24.600000381469727,2.549999952316284,-14.699999809265137,37.19792175292969,0,
 354269,-0.217041015625,-1.020751953125,-0.11474609375,-6.158536911010742,-18.292682647705078,1.3719512224197388,24.600000381469727,2.549999952316284,-14.699999809265137,37.006229400634766,0,
 354279,-0.235107421875,-1.063232421875,-0.09423828125,-6.737804889678955,-15.060976028442383,-0.4573170840740204,24.0,2.25,-14.550000190734863,37.19792175292969,0,
 354289,-0.193115234375,-0.97119140625,-0.072021484375,-15.243903160095215,-9.481707572937012,-3.75,24.899999618530273,2.8499999046325684,-13.199999809265137,37.245845794677734,0,
 354299,-0.159912109375,-0.892822265625,-0.051025390625,-17.68292808532715,-6.79878044128418,-4.542683124542236,24.899999618530273,2.8499999046325684,-13.199999809265137,37.245845794677734,0,
 354309,-0.134765625,-0.890625,-0.038330078125,-14.02439022064209,-6.7682929039001465,-2.2560975551605225,24.899999618530273,2.8499999046325684,-13.199999809265137,37.05415344238281,0,
 354319,-0.125732421875,-0.89697265625,-0.04931640625,-15.42682933807373,-8.963415145874023,0.3353658616542816,24.450000762939453,1.9500000476837158,-13.800000190734863,37.006229400634766,0,
 354329,-0.11962890625,-0.865966796875,-0.094970703125,-18.323171615600586,-11.158536911010742,3.170731782913208,24.149999618530273,2.549999952316284,-12.899999618530273,37.05415344238281,0,
 354339,-0.134033203125,-0.890380859375,-0.12890625,-14.207317352294922,-13.62804889678955,1.3109756708145142,25.950000762939453,2.25,-14.25,37.05415344238281,0,
 354349,-0.17919921875,-0.912841796875,-0.170654296875,-12.896341323852539,-14.817073822021484,-2.9573171138763428,25.950000762939453,2.25,-14.25,37.245845794677734,0,
 354359,-0.2265625,-0.91357421875,-0.138427734375,-16.036584854125977,-12.5,-5.213414669036865,24.899999618530273,0.44999998807907104,-12.149999618530273,37.10207748413086,0,
 354369,-0.265625,-0.84814453125,-0.1318359375,-21.43292808532715,-6.737804889678955,-6.707317352294922,25.200000762939453,0.75,-13.050000190734863,36.814537048339844,0,
 354379,-0.27587890625,-0.8681640625,-0.146240234375,-18.140243530273438,-0.6707317233085632,-8.018292427062988,24.600000381469727,0.44999998807907104,-13.949999809265137,37.006229400634766,0,
 354389,-0.27099609375,-0.956787109375,-0.12353515625,-9.237805366516113,5.640244007110596,-19.45121955871582,24.600000381469727,0.44999998807907104,-13.949999809265137,37.006229400634766,0,
 354399,-0.23583984375,-0.9111328125,-0.0576171875,-12.896341323852539,12.408536911010742,-33.84146499633789,25.5,0.75,-13.5,37.19792175292969,0,
 354409,-0.21728515625,-0.72607421875,0.0166015625,-21.40243911743164,14.908536911010742,-35.57926940917969,23.399999618530273,1.350000023841858,-13.949999809265137,37.245845794677734,0,
 354419,-0.204833984375,-0.65185546875,0.0673828125,-19.359756469726562,12.195121765136719,-29.512195587158203,23.399999618530273,0.15000000596046448,-13.199999809265137,37.245845794677734,0,
 354429,-0.218994140625,-0.681640625,0.099853515625,-13.262195587158203,6.493902683258057,-22.98780632019043,23.100000381469727,1.350000023841858,-11.699999809265137,37.05415344238281,0,
 354439,-0.245849609375,-0.6962890625,0.110595703125,-11.79878044128418,2.1341464519500732,-20.0,23.100000381469727,1.350000023841858,-11.699999809265137,37.19792175292969,0,
 354449,-0.252197265625,-0.672607421875,0.117431640625,-11.006097793579102,-0.6707317233085632,-18.079269409179688,22.5,0.75,-12.0,36.91038513183594,0,
 354459,-0.2431640625,-0.642578125,0.131103515625,-8.658536911010742,-2.4390244483947754,-16.676830291748047,22.200000762939453,-0.15000000596046448,-13.649999618530273,37.006229400634766,0,
 354469,-0.2470703125,-0.624755859375,0.111328125,-5.54878044128418,-4.817073345184326,-14.72560977935791,22.200000762939453,-0.15000000596046448,-12.449999809265137,37.006229400634766,0,
 354479,-0.257080078125,-0.677490234375,0.095703125,-0.3353658616542816,-5.762195110321045,-13.47560977935791,22.200000762939453,-0.15000000596046448,-12.449999809265137,37.19792175292969,0,
 354489,-0.201171875,-0.646240234375,0.089111328125,-0.4268292784690857,-6.829268455505371,-19.63414764404297,24.149999618530273,-1.649999976158142,-15.149999618530273,37.19792175292969,0,
 354499,-0.153564453125,-0.549072265625,0.09814453125,-2.4695122241973877,-8.87195110321045,-21.067073822021484,22.649999618530273,2.549999952316284,-13.649999618530273,37.10207748413086,0,
 354509,-0.12353515625,-0.442626953125,0.073486328125,-2.896341562271118,-12.62195110321045,-18.04878044128418,22.5,0.0,-12.300000190734863,36.814537048339844,0,
 354519,-0.10400390625,-0.3876953125,-0.0439453125,-2.804877996444702,-16.707317352294922,-5.091463565826416,21.299999237060547,0.30000001192092896,-12.75,37.245845794677734,0,
 354529,-0.202392578125,-0.510498046875,-0.3310546875,-59.57317352294922,-1.6463414430618286,15.42682933807373,21.299999237060547,0.30000001192092896,-12.75,37.006229400634766,0,
 354539,-0.1982421875,0.01708984375,-0.102783203125,-157.3780517578125,12.317073822021484,82.95732116699219,21.899999618530273,0.44999998807907104,-12.899999618530273,37.006229400634766,0,
 354549,0.200927734375,1.01220703125,-0.14453125,-105.03048706054688,8.140244483947754,183.0487823486328,22.649999618530273,0.15000000596046448,-13.649999618530273,37.245845794677734,0,
 354559,0.682373046875,0.930419921875,-0.128662109375,-46.432926177978516,-6.7682929039001465,257.5,23.549999237060547,-0.30000001192092896,-11.550000190734863,36.86246109008789,0,
 354569,0.693115234375,0.3720703125,-0.006103515625,-36.280487060546875,-21.524391174316406,259.32928466796875,23.549999237060547,-0.30000001192092896,-11.550000190734863,37.006229400634766,0,
 354579,0.9052734375,-0.02587890625,-0.01318359375,4.72560977935791,-75.70121765136719,243.3841552734375,24.149999618530273,-1.350000023841858,-11.399999618530273,37.245845794677734,0,
 354589,-2.5810546875,-7.999755859375,-3.326416015625,-382.8658752441406,237.89634704589844,-64.1463394165039,27.75,-0.30000001192092896,-14.550000190734863,37.34169006347656,0,
 354599,-3.32958984375,3.81005859375,-0.001220703125,-316.70733642578125,-44.42073440551758,-526.981689453125,24.75,-0.30000001192092896,-10.050000190734863,37.006229400634766,0,
 354609,-0.06640625,1.1103515625,1.525146484375,-98.07926940917969,119.93902587890625,-73.17073059082031,26.25,0.30000001192092896,-11.25,36.91038513183594,0,
 354619,2.370361328125,0.50537109375,-1.04345703125,655.5792846679688,114.35975646972656,170.94512939453125,26.25,0.30000001192092896,-11.25,37.19792175292969,0,
 354629,-1.200439453125,0.56787109375,8.0,-215.09146118164062,218.0487823486328,-211.25,24.75,0.75,-9.75,37.10207748413086,0,
 354639,0.1767578125,-1.24560546875,3.302978515625,-179.48170471191406,197.6829376220703,-156.76829528808594,23.399999618530273,3.299999952316284,-9.899999618530273,37.05415344238281,0,
 354649,2.01513671875,-2.3759765625,-0.121826171875,24.268293380737305,14.786585807800293,101.58536529541016,24.149999618530273,0.8999999761581421,-9.449999809265137,37.34169006347656,0,
 354659,0.468505859375,-2.394775390625,-0.694091796875,-30.79268455505371,-43.23170852661133,165.2134246826172,24.149999618530273,0.8999999761581421,-9.449999809265137,36.718692779541016,0,
 354669,-0.0498046875,-1.104248046875,-1.2685546875,34.878047943115234,-57.04268264770508,192.43902587890625,25.649999618530273,-0.44999998807907104,-9.449999809265137,37.245845794677734,0,
 354679,-0.115478515625,-0.58154296875,-0.5830078125,85.64024353027344,-43.75,173.84146118164062,26.25,-0.30000001192092896,-9.300000190734863,37.006229400634766,0,
 354689,0.015380859375,-0.369384765625,-0.2080078125,74.7256088256836,-55.274391174316406,122.95732116699219,26.549999237060547,-0.8999999761581421,-9.449999809265137,37.05415344238281,0,
 354699,-0.100341796875,-0.18212890625,0.020263671875,55.88414764404297,-76.00609588623047,81.43292999267578,28.200000762939453,-0.30000001192092896,-11.25,37.10207748413086,0,
 354709,-0.315673828125,-0.58349609375,0.10205078125,40.42683029174805,-81.43292999267578,59.969512939453125,28.200000762939453,-0.30000001192092896,-11.25,37.006229400634766,0,
 354719,-0.6953125,-0.778564453125,0.109130859375,-5.0,-77.13414764404297,15.945122718811035,28.049999237060547,-2.549999952316284,-10.949999809265137,37.19792175292969,0,
 354800,-0.292236328125,-0.969970703125,-0.345703125,-28.292682647705078,43.23170852661133,40.94512176513672,28.200000762939453,-1.0499999523162842,-12.75,37.05415344238281,0,
 354810,-0.237060546875,-1.010986328125,-0.4716796875,1.7682926654815674,34.32926940917969,64.8780517578125,27.75,-2.700000047683716,-12.300000190734863,37.006229400634766,0,
 354820,-0.22216796875,-0.9111328125,-0.46875,12.5,22.530488967895508,71.4024429321289,26.850000381469727,-2.8499999046325684,-12.149999618530273,37.05415344238281,0,
 354830,-0.211669921875,-0.806884765625,-0.434326171875,12.65243911743164,6.371951580047607,67.59146118164062,28.049999237060547,-2.549999952316284,-7.949999809265137,37.05415344238281,0,
 354840,-0.21826171875,-0.744873046875,-0.38623046875,8.75,-8.59756088256836,58.29268264770508,28.049999237060547,-2.549999952316284,-7.949999809265137,37.05415344238281,0,
 354850,-0.30029296875,-0.6669921875,-0.309326171875,1.585365891456604,-18.689023971557617,46.280487060546875,28.350000381469727,-2.8499999046325684,-10.949999809265137,36.91038513183594,0,
 354860,-0.3876953125,-0.66162109375,-0.202880859375,3.5975611209869385,-25.274391174316406,33.53658676147461,28.799999237060547,-3.75,-10.949999809265137,37.006229400634766,0,
 354870,-0.42626953125,-0.7353515625,-0.1171875,2.804877996444702,-27.865854263305664,17.225610733032227,29.549999237060547,-3.299999952316284,-10.949999809265137,37.05415344238281,0,
 354880,-0.46875,-0.7744140625,-0.044677734375,-4.2682929039001465,-27.34756088256836,4.359755992889404,28.950000762939453,-3.1500000953674316,-11.25,37.34169006347656,0,
 354890,-0.5244140625,-0.804931640625,-0.047119140625,-12.408536911010742,-21.73780632019043,-3.8109757900238037,28.950000762939453,-3.1500000953674316,-11.25,37.245845794677734,0,
 354900,-0.580322265625,-0.812255859375,-0.0234375,-13.567073822021484,-12.37804889678955,-8.04878044128418,28.950000762939453,-4.650000095367432,-13.800000190734863,37.10207748413086,0,
 354910,-0.54833984375,-0.873291015625,-0.010498046875,-11.036585807800293,-0.8841463327407837,-8.87195110321045,29.399999618530273,-3.450000047683716,-12.0,37.006229400634766,0,
 354920,-0.482421875,-1.00439453125,-0.01171875,-10.457317352294922,8.90243911743164,-5.97560977935791,27.450000762939453,-2.700000047683716,-11.550000190734863,37.006229400634766,0,
 354930,-0.470703125,-0.948486328125,-0.10205078125,-20.731708526611328,15.091464042663574,1.6768293380737305,27.450000762939453,-2.700000047683716,-11.550000190734863,37.19792175292969,0,
 354940,-0.460205078125,-0.865478515625,-0.1669921875,-19.939023971557617,18.292682647705078,9.939024925231934,29.549999237060547,-2.0999999046325684,-9.449999809265137,37.245845794677734,0,
 354950,-0.42333984375,-0.839599609375,-0.209716796875,-10.396341323852539,18.780488967895508,15.060976028442383,29.399999618530273,-3.1500000953674316,-9.75,37.05415344238281,0,
 354960,-0.376220703125,-0.84033203125,-0.270263671875,-2.9268293380737305,16.0060977935791,20.33536720275879,28.350000381469727,-4.050000190734863,-11.699999809265137,37.006229400634766,0,
 354970,-0.327392578125,-0.78466796875,-0.30419921875,4.1768293380737305,3.932926893234253,20.274391174316406,28.200000762939453,-3.450000047683716,-10.050000190734863,37.05415344238281,0,
 354980,-0.340576171875,-0.803955078125,-0.329345703125,2.378048896789551,-2.896341562271118,14.512195587158203,28.200000762939453,-3.450000047683716,-10.050000190734863,37.006229400634766,0,
 354990,-0.34716796875,-0.74951171875,-0.294189453125,3.9634146690368652,-9.908536911010742,8.47560977935791,29.850000381469727,-2.8499999046325684,-10.949999809265137,37.245845794677734,0,
 355000,-0.3740234375,-0.68408203125,-0.279541015625,12.957317352294922,-15.12195110321045,3.4146342277526855,31.049999237060547,-3.299999952316284,-12.149999618530273,37.05415344238281,0,
 355010,-0.403564453125,-0.79150390625,-0.2236328125,10.213415145874023,-16.829269409179688,-0.5487805008888245,28.950000762939453,-3.9000000953674316,-10.5,37.245845794677734,0,
 355020,-0.434326171875,-0.845947265625,-0.161865234375,4.847560882568359,-15.884146690368652,-4.115853786468506,28.950000762939453,-3.9000000953674316,-10.5,37.10207748413086,0,
 355030,-0.484375,-0.8291015625,-0.123046875,3.353658676147461,-12.439024925231934,-5.792683124542236,29.100000381469727,-4.5,-11.399999618530273,37.245845794677734,0,
 355040,-0.501220703125,-0.832763671875,-0.0888671875,3.170731782913208,-6.554878234863281,-5.609755992889404,28.649999618530273,-5.099999904632568,-10.800000190734863,37.006229400634766,0,
 355050,-0.500244140625,-0.842041015625,-0.066650390625,3.7195122241973877,-0.8231707215309143,-3.932926893234253,29.549999237060547,-2.8499999046325684,-11.399999618530273,37.006229400634766,0,
 355060,-0.5009765625,-0.88037109375,-0.049072265625,-0.09146341681480408,4.695122241973877,-2.5,28.799999237060547,-4.5,-10.649999618530273,37.006229400634766,0,
 355070,-0.47021484375,-0.9052734375,-0.055419921875,-6.6768293380737305,8.75,-1.0060975551605225,28.799999237060547,-4.5,-10.649999618530273,36.91038513183594,0,
 355080,-0.459716796875,-0.889404296875,-0.098876953125,-10.12195110321045,10.762195587158203,0.9451219439506531,29.399999618530273,-3.9000000953674316,-10.5,37.006229400634766,0,
 355090,-0.43896484375,-0.811767578125,-0.164794921875,-5.945122241973877,10.914634704589844,2.3475611209869385,28.649999618530273,-5.099999904632568,-11.25,37.34169006347656,0,
 355100,-0.412841796875,-0.81494140625,-0.208984375,-2.8353660106658936,8.689024925231934,2.6219513416290283,28.649999618530273,-2.700000047683716,-12.0,37.05415344238281,0,
 355110,-0.390380859375,-0.829345703125,-0.23486328125,-1.6158536672592163,4.420732021331787,1.920731782913208,28.649999618530273,-2.700000047683716,-12.0,37.05415344238281,0,
 355120,-0.38232421875,-0.794677734375,-0.246826171875,2.1646342277526855,-0.3658536672592163,0.6707317233085632,28.950000762939453,-3.1500000953674316,-10.800000190734863,37.05415344238281,0,
 355130,-0.399169921875,-0.79638671875,-0.208984375,6.493902683258057,-4.1768293380737305,0.030487805604934692,28.200000762939453,-3.1500000953674316,-10.050000190734863,37.34169006347656,0,
 355140,-0.421630859375,-0.826904296875,-0.183837890625,10.365854263305664,-7.012195110321045,-0.21341463923454285,29.700000762939453,-5.400000095367432,-9.75,37.34169006347656,0,
 355150,-0.433837890625,-0.872802734375,-0.1552734375,9.939024925231934,-8.536585807800293,-1.3109756708145142,30.149999618530273,-4.349999904632568,-10.050000190734863,36.91038513183594,0,
 355160,-0.44970703125,-0.87158203125,-0.129638671875,6.189024448394775,-8.75,-1.6463414430618286,30.149999618530273,-4.349999904632568,-10.050000190734863,37.006229400634766,0,
 355170,-0.472900390625,-0.86669921875,-0.097900390625,2.7439024448394775,-6.341463565826416,-1.3109756708145142,30.450000762939453,-3.450000047683716,-11.25,37.05415344238281,0,
 355180,-0.482666015625,-0.867919921875,-0.08447265625,0.396341472864151,-3.3231709003448486,-1.1890244483947754,28.950000762939453,-4.349999904632568,-11.550000190734863,37.006229400634766,0,
 355190,-0.471435546875,-0.842529296875,-0.090087890625,-2.591463565826416,0.6707317233085632,-1.0365853309631348,27.75,-3.450000047683716,-11.25,37.19792175292969,0,
 355200,-0.457763671875,-0.856201171875,-0.1123046875,-4.2682929039001465,4.054878234863281,-1.1890244483947754,27.75,-3.450000047683716,-11.25,37.10207748413086,0,
 355210,-0.439208984375,-0.83544921875,-0.140869140625,-6.493902683258057,6.310975551605225,-0.8841463327407837,31.200000762939453,-5.849999904632568,-12.0,37.245845794677734,0,
 355220,-0.437255859375,-0.837158203125,-0.168212890625,-6.646341800689697,6.6768293380737305,-0.4573170840740204,30.149999618530273,-5.099999904632568,-11.550000190734863,37.10207748413086,0,
 355230,-0.432373046875,-0.831298828125,-0.19970703125,-5.091463565826416,5.5182929039001465,-0.7317073345184326,29.549999237060547,-4.050000190734863,-9.449999809265137,37.43753433227539,0,
 355240,-0.413330078125,-0.815185546875,-0.207275390625,-2.6524391174316406,4.0853657722473145,-0.7621951103210449,30.450000762939453,-2.700000047683716,-11.25,37.245845794677734,0,
 355250,-0.415283203125,-0.83056640625,-0.195068359375,0.4573170840740204,2.012195110321045,-0.7317073345184326,30.450000762939453,-2.700000047683716,-11.25,37.006229400634766,0,
 355260,-0.424072265625,-0.829833984375,-0.197998046875,2.22560977935791,-0.09146341681480408,-0.7012194991111755,29.399999618530273,-2.25,-11.550000190734863,37.10207748413086,0,
 355270,-0.435546875,-0.84033203125,-0.186279296875,4.2682929039001465,-2.012195110321045,-1.1585365533828735,31.649999618530273,-5.099999904632568,-9.300000190734863,37.006229400634766,0,
 355280,-0.44287109375,-0.85888671875,-0.1630859375,5.640244007110596,-2.804877996444702,-0.9756097793579102,29.549999237060547,-4.5,-11.399999618530273,37.10207748413086,0,
 355290,-0.45751953125,-0.868896484375,-0.13037109375,4.634146213531494,-3.0487804412841797,-1.2195122241973877,29.549999237060547,-4.5,-11.399999618530273,37.10207748413086,0,
 355300,-0.4619140625,-0.869384765625,-0.1259765625,2.6219513416290283,-2.4695122241973877,-0.792682945728302,30.450000762939453,-3.450000047683716,-10.800000190734863,37.05415344238281,0,
 355310,-0.467529296875,-0.87109375,-0.125732421875,0.12195122241973877,-0.9146341681480408,-0.6707317233085632,29.100000381469727,-3.75,-15.449999809265137,37.006229400634766,0,
 355320,-0.461181640625,-0.873291015625,-0.1337890625,-2.0731706619262695,1.1280487775802612,-0.060975611209869385,29.700000762939453,-3.1500000953674316,-10.5,37.19792175292969,0,
 355330,-0.4580078125,-0.8681640625,-0.146240234375,-3.2926828861236572,2.2865853309631348,0.5792682766914368,28.350000381469727,-4.5,-10.199999809265137,37.245845794677734,0,
 355340,-0.453857421875,-0.849365234375,-0.157958984375,-3.8109757900238037,3.353658676147461,1.0060975551605225,28.350000381469727,-4.5,-10.199999809265137,37.245845794677734,0,
 355350,-0.444580078125,-0.848388671875,-0.1640625,-3.47560977935791,3.5365853309631348,1.25,29.700000762939453,-4.650000095367432,-10.5,37.006229400634766,0,
 355360,-0.43994140625,-0.839111328125,-0.1748046875,-3.7804877758026123,2.987804889678955,1.25,30.149999618530273,-4.650000095367432,-10.800000190734863,37.05415344238281,0,
 355370,-0.441650390625,-0.836181640625,-0.188232421875,-2.6219513416290283,2.378048896789551,0.3658536672592163,28.350000381469727,-2.8499999046325684,-12.149999618530273,37.34169006347656,0,
 355380,-0.44384765625,-0.838623046875,-0.18408203125,-1.737804889678955,1.3719512224197388,-0.15243902802467346,28.350000381469727,-2.8499999046325684,-12.149999618530273,37.10207748413086,0,
 355390,-0.4443359375,-0.838623046875,-0.179931640625,-0.8231707215309143,0.060975611209869385,-1.0670732259750366,29.100000381469727,-3.299999952316284,-10.649999618530273,37.10207748413086,0,
 355400,-0.448974609375,-0.84619140625,-0.17626953125,0.18292683362960815,-0.7317073345184326,-1.5548781156539917,28.950000762939453,-4.650000095367432,-11.25,36.91038513183594,0,
 355410,-0.451416015625,-0.85546875,-0.16796875,0.9146341681480408,-1.1890244483947754,-1.6158536672592163,31.049999237060547,-0.44999998807907104,-12.899999618530273,36.86246109008789,0,
 355420,-0.459716796875,-0.86083984375,-0.160888671875,1.5243902206420898,-1.25,-1.4939024448394775,31.049999237060547,-3.299999952316284,-10.949999809265137,37.006229400634766,0,
 355430,-0.465576171875,-0.86083984375,-0.15087890625,-0.24390244483947754,0.09146341681480408,-1.8292683362960815,31.049999237060547,-3.299999952316284,-10.949999809265137,37.05415344238281,0,
 355440,-0.4677734375,-0.8740234375,-0.1474609375,-1.7987805604934692,0.7317073345184326,-1.097561001777649,29.700000762939453,-2.700000047683716,-10.800000190734863,37.006229400634766,0,
 355450,-0.462890625,-0.8876953125,-0.15087890625,-3.0487804412841797,1.5243902206420898,0.060975611209869385,30.899999618530273,-3.1500000953674316,-11.550000190734863,37.10207748413086,0,
 355460,-0.46337890625,-0.8701171875,-0.154296875,-3.445122003555298,2.1341464519500732,0.18292683362960815,29.100000381469727,-1.350000023841858,-9.899999618530273,37.245845794677734,0,
 355470,-0.4541015625,-0.868896484375,-0.17333984375,-3.3231709003448486,1.7987805604934692,1.1280487775802612,29.100000381469727,-1.350000023841858,-9.899999618530273,37.19792175292969,0,
 355480,-0.461669921875,-0.860107421875,-0.184326171875,-2.6524391174316406,1.5548781156539917,1.4634146690368652,29.549999237060547,-4.5,-10.949999809265137,37.34169006347656,0,
 355490,-0.44873046875,-0.85302734375,-0.193603515625,-2.0426828861236572,0.8841463327407837,1.432926893234253,29.399999618530273,-2.25,-10.800000190734863,37.05415344238281,0,
 355500,-0.449462890625,-0.85400390625,-0.1904296875,-0.7621951103210449,0.3658536672592163,1.3719512224197388,30.149999618530273,-3.450000047683716,-10.800000190734863,37.006229400634766,0,
 355510,-0.454345703125,-0.8515625,-0.1845703125,-0.6097561120986938,-0.24390244483947754,0.7012194991111755,28.049999237060547,-2.0999999046325684,-12.149999618530273,37.006229400634766,0,
 355520,-0.45458984375,-0.845458984375,-0.1845703125,0.3048780560493469,-0.7317073345184326,0.7317073345184326,28.049999237060547,-2.0999999046325684,-12.149999618530273,37.05415344238281,0,
 355531,-0.463134765625,-0.856689453125,-0.18115234375,-0.24390244483947754,-0.6097561120986938,0.15243902802467346,31.799999237060547,-2.8499999046325684,-10.649999618530273,37.34169006347656,0,
 355541,-0.463623046875,-0.846923828125,-0.1728515625,0.396341472864151,-0.4573170840740204,-0.3658536672592163,28.649999618530273,-4.349999904632568,-10.5,36.67076873779297,0,
 355551,-0.4658203125,-0.85498046875,-0.1708984375,0.18292683362960815,0.12195122241973877,-1.1890244483947754,29.100000381469727,-2.8499999046325684,-10.649999618530273,37.19792175292969,0,
 355561,-0.468505859375,-0.8623046875,-0.178466796875,-0.6097561120986938,0.15243902802467346,-1.432926893234253,29.100000381469727,-2.8499999046325684,-10.649999618530273,37.19792175292969,0,
 355571,-0.465576171875,-0.866943359375,-0.167724609375,-1.0365853309631348,0.6402438879013062,-1.6768293380737305,30.299999237060547,-4.5,-9.899999618530273,37.245845794677734,0,
 355581,-0.476806640625,-0.865478515625,-0.169921875,-1.5243902206420898,1.432926893234253,-1.737804889678955,29.700000762939453,-5.099999904632568,-10.800000190734863,37.19792175292969,0,
 355591,-0.466552734375,-0.87109375,-0.177734375,-1.737804889678955,1.7682926654815674,-1.8902438879013062,30.899999618530273,-2.25,-10.5,37.006229400634766,0,
 355601,-0.461669921875,-0.86328125,-0.18408203125,-1.8597561120986938,2.195122003555298,-0.9756097793579102,30.299999237060547,-2.8499999046325684,-10.949999809265137,37.05415344238281,0,
 355611,-0.45849609375,-0.86767578125,-0.185791015625,-1.7987805604934692,1.7987805604934692,-1.1585365533828735,30.299999237060547,-2.8499999046325684,-10.949999809265137,37.34169006347656,0,
 355621,-0.465576171875,-0.8740234375,-0.19580078125,-2.3475611209869385,1.5243902206420898,-0.4268292784690857,29.549999237060547,-4.050000190734863,-15.149999618530273,37.34169006347656,0,
 355631,-0.458984375,-0.869140625,-0.203369140625,-1.3719512224197388,1.1890244483947754,-0.030487805604934692,29.549999237060547,-2.549999952316284,-11.399999618530273,37.006229400634766,0,
 355641,-0.45751953125,-0.861083984375,-0.2001953125,-1.0670732259750366,0.6402438879013062,0.6707317233085632,29.399999618530273,-2.700000047683716,-10.050000190734863,36.91038513183594,0,
 355651,-0.46142578125,-0.859619140625,-0.19384765625,0.030487805604934692,-0.12195122241973877,0.9451219439506531,29.399999618530273,-2.700000047683716,-10.050000190734863,37.006229400634766,0,
 355661,-0.461181640625,-0.850341796875,-0.197021484375,0.6402438879013062,-0.6402438879013062,0.4878048896789551,28.350000381469727,-2.549999952316284,-10.949999809265137,37.19792175292969,0,
 355671,-0.466552734375,-0.862060546875,-0.1904296875,1.402438998222351,-1.0060975551605225,0.6097561120986938,29.850000381469727,-2.549999952316284,-11.399999618530273,37.10207748413086,0,
 355681,-0.4658203125,-0.8662109375,-0.181884765625,1.1585365533828735,-0.792682945728302,0.060975611209869385,30.75,-2.0999999046325684,-11.699999809265137,37.19792175292969,0,
 355691,-0.470703125,-0.86181640625,-0.17578125,0.7621951103210449,-0.4878048896789551,-0.4268292784690857,30.450000762939453,-1.5,-10.800000190734863,37.006229400634766,0,
 355701,-0.4755859375,-0.87353515625,-0.171142578125,0.3658536672592163,0.15243902802467346,-0.5182926654815674,30.450000762939453,-1.5,-10.800000190734863,37.10207748413086,0,
 355711,-0.4755859375,-0.864990234375,-0.18017578125,-0.6097561120986938,0.8231707215309143,-0.6402438879013062,29.549999237060547,-3.75,-10.199999809265137,37.10207748413086,0,
 355721,-0.4658203125,-0.874267578125,-0.1845703125,-1.0670732259750366,1.402438998222351,-0.6402438879013062,30.450000762939453,-5.099999904632568,-15.300000190734863,36.91038513183594,0,
 355731,-0.4609375,-0.86669921875,-0.1865234375,-1.097561001777649,1.3719512224197388,-0.6707317233085632,29.850000381469727,-4.5,-10.949999809265137,37.245845794677734,0,
 355741,-0.45849609375,-0.8681640625,-0.196533203125,-0.9146341681480408,1.5548781156539917,-0.5182926654815674,29.850000381469727,-4.5,-10.949999809265137,37.006229400634766,0,
 355751,-0.4619140625,-0.873046875,-0.201904296875,-0.6097561120986938,1.0670732259750366,0.15243902802467346,30.75,-4.949999809265137,-10.949999809265137,37.006229400634766,0,
 355761,-0.458740234375,-0.875,-0.20556640625,-0.060975611209869385,0.4573170840740204,0.3048780560493469,28.799999237060547,-4.050000190734863,-10.949999809265137,37.245845794677734,0,
 355771,-0.46435546875,-0.86669921875,-0.20263671875,0.3658536672592163,-0.15243902802467346,0.7317073345184326,30.149999618530273,-3.9000000953674316,-11.25,37.10207748413086,0,
 355781,-0.4580078125,-0.868408203125,-0.199951171875,0.7012194991111755,-0.6402438879013062,0.9756097793579102,29.700000762939453,-3.450000047683716,-10.5,37.245845794677734,0,
 355791,-0.46435546875,-0.869140625,-0.18701171875,0.9756097793579102,-1.25,1.585365891456604,29.700000762939453,-3.450000047683716,-10.5,36.86246109008789,0,
 355801,-0.469482421875,-0.86865234375,-0.190185546875,0.6402438879013062,-1.3414634466171265,1.5243902206420898,31.049999237060547,-3.299999952316284,-9.899999618530273,37.19792175292969,0,
 355811,-0.471435546875,-0.86474609375,-0.1865234375,0.6097561120986938,-1.2804877758026123,1.5548781156539917,31.799999237060547,-4.5,-12.449999809265137,37.245845794677734,0,
 355821,-0.468017578125,-0.866943359375,-0.1826171875,0.15243902802467346,-0.7317073345184326,1.6463414430618286,30.75,-2.8499999046325684,-12.149999618530273,37.006229400634766,0,
 355831,-0.46875,-0.86376953125,-0.1796875,-0.3658536672592163,-0.5487805008888245,1.0060975551605225,30.75,-2.8499999046325684,-12.149999618530273,37.245845794677734,0,
 355841,-0.471435546875,-0.85546875,-0.178955078125,-0.4573170840740204,-0.030487805604934692,0.3048780560493469,30.149999618530273,-2.700000047683716,-10.050000190734863,36.86246109008789,0,
 355851,-0.466796875,-0.86572265625,-0.171875,-0.8841463327407837,0.6707317233085632,-0.5487805008888245,28.950000762939453,-2.700000047683716,-11.550000190734863,37.05415344238281,0,
 355861,-0.46533203125,-0.87841796875,-0.17919921875,-1.3414634466171265,1.0365853309631348,-0.6097561120986938,29.700000762939453,-3.450000047683716,-11.25,37.245845794677734,0,
 355871,-0.468994140625,-0.862548828125,-0.190185546875,-2.682926893234253,1.0060975551605225,-0.4878048896789551,31.049999237060547,-3.75,-10.949999809265137,37.006229400634766,0,
 355881,-0.46533203125,-0.86962890625,-0.197509765625,-1.737804889678955,0.8231707215309143,0.3048780560493469,31.049999237060547,-3.75,-10.949999809265137,37.006229400634766,0,
 355891,-0.457763671875,-0.863037109375,-0.20458984375,-1.25,0.060975611209869385,0.4573170840740204,30.299999237060547,-4.050000190734863,-10.649999618530273,37.19792175292969,0,
 355901,-0.451171875,-0.864013671875,-0.211669921875,0.12195122241973877,-0.5487805008888245,1.402438998222351,30.299999237060547,-3.75,-9.899999618530273,37.245845794677734,0,
 355911,-0.453369140625,-0.86669921875,-0.207275390625,0.7317073345184326,-0.9756097793579102,1.2804877758026123,30.75,-3.75,-10.199999809265137,37.05415344238281,0,
 355921,-0.460693359375,-0.860107421875,-0.194580078125,0.8841463327407837,-1.3719512224197388,1.1890244483947754,30.75,-3.75,-10.199999809265137,37.245845794677734,0,
 355931,-0.46533203125,-0.859375,-0.188720703125,1.0060975551605225,-1.1890244483947754,1.1280487775802612,29.549999237060547,-3.299999952316284,-10.949999809265137,37.006229400634766,0,
 355941,-0.470458984375,-0.861328125,-0.18115234375,0.060975611209869385,-0.8231707215309143,0.5182926654815674,30.299999237060547,-4.050000190734863,-11.399999618530273,37.10207748413086,0,
 355951,-0.46728515625,-0.865478515625,-0.180908203125,-0.792682945728302,-0.12195122241973877,0.0,30.450000762939453,-3.1500000953674316,-12.0,37.05415344238281,0,
 355961,-0.470458984375,-0.85986328125,-0.18359375,-1.097561001777649,0.7621951103210449,-0.21341463923454285,30.450000762939453,-3.1500000953674316,-11.550000190734863,37.19792175292969,0,
 355971,-0.46533203125,-0.860595703125,-0.179931640625,-1.8597561120986938,0.9451219439506531,-0.21341463923454285,30.450000762939453,-3.1500000953674316,-11.550000190734863,37.05415344238281,0,
 355981,-0.46533203125,-0.863037109375,-0.184814453125,-2.22560977935791,1.097561001777649,-0.030487805604934692,29.100000381469727,-4.949999809265137,-10.199999809265137,36.86246109008789,0,
 355991,-0.46142578125,-0.864013671875,-0.19677734375,-1.920731782913208,0.8536585569381714,0.4573170840740204,28.950000762939453,-2.25,-10.050000190734863,37.34169006347656,0,
 356001,-0.45751953125,-0.85693359375,-0.203125,-0.8231707215309143,0.5792682766914368,0.9146341681480408,29.100000381469727,-2.8499999046325684,-10.649999618530273,37.10207748413086,0,
 356011,-0.448974609375,-0.863525390625,-0.20703125,0.27439025044441223,-0.3048780560493469,0.9756097793579102,29.100000381469727,-2.8499999046325684,-10.649999618530273,37.10207748413086,0,
 356021,-0.45751953125,-0.863037109375,-0.20703125,0.7012194991111755,-1.0060975551605225,1.6768293380737305,29.100000381469727,-3.75,-11.699999809265137,37.006229400634766,0,
 356031,-0.4619140625,-0.8583984375,-0.20947265625,1.402438998222351,-1.3109756708145142,1.25,28.799999237060547,-4.5,-10.199999809265137,37.006229400634766,0,
 356041,-0.46484375,-0.853271484375,-0.19091796875,0.9146341681480408,-1.585365891456604,0.8231707215309143,30.149999618530273,-4.349999904632568,-12.300000190734863,37.10207748413086,0,
 356051,-0.465087890625,-0.85302734375,-0.18212890625,1.402438998222351,-1.6463414430618286,1.1280487775802612,27.600000381469727,-4.050000190734863,-10.649999618530273,37.245845794677734,0,
 356061,-0.46728515625,-0.8486328125,-0.182373046875,1.097561001777649,-0.8841463327407837,0.18292683362960815,27.600000381469727,-4.050000190734863,-10.649999618530273,37.006229400634766,0,
 356071,-0.470458984375,-0.85302734375,-0.181640625,0.6097561120986938,-0.6707317233085632,-0.4268292784690857,30.450000762939453,-3.1500000953674316,-10.5,37.05415344238281,0,
 356081,-0.465087890625,-0.849609375,-0.1748046875,0.3048780560493469,-0.030487805604934692,-1.920731782913208,29.850000381469727,-4.050000190734863,-10.649999618530273,37.006229400634766,0,
 356091,-0.46630859375,-0.86572265625,-0.16943359375,0.396341472864151,1.0670732259750366,-3.0182926654815674,29.700000762939453,-3.9000000953674316,-11.25,37.10207748413086,0,
 356101,-0.46484375,-0.868408203125,-0.173095703125,-0.8231707215309143,1.4634146690368652,-3.5975611209869385,29.700000762939453,-3.9000000953674316,-11.25,37.05415344238281,0,
 356111,-0.456787109375,-0.84716796875,-0.181884765625,-1.2195122241973877,1.8292683362960815,-3.7195122241973877,28.950000762939453,-2.25,-12.0,37.245845794677734,0,
 356121,-0.450927734375,-0.864990234375,-0.1845703125,-0.5182926654815674,2.22560977935791,-3.567073345184326,28.350000381469727,-2.549999952316284,-9.899999618530273,37.245845794677734,0,
 356131,-0.448486328125,-0.87353515625,-0.203857421875,-0.15243902802467346,1.4939024448394775,-3.079268455505371,30.450000762939453,-5.099999904632568,-15.300000190734863,36.814537048339844,0,
 356141,-0.44189453125,-0.853759765625,-0.21240234375,0.4878048896789551,0.12195122241973877,-2.5609755516052246,29.100000381469727,-4.5,-9.899999618530273,37.245845794677734,0,
 356151,-0.4443359375,-0.853515625,-0.221435546875,3.262195110321045,-1.5548781156539917,-1.4634146690368652,29.100000381469727,-4.5,-9.899999618530273,37.10207748413086,0,
 356161,-0.444580078125,-0.86474609375,-0.220703125,6.189024448394775,-3.5365853309631348,-1.097561001777649,28.950000762939453,-3.450000047683716,-10.050000190734863,37.006229400634766,0,
 356171,-0.450927734375,-0.875,-0.211181640625,8.231707572937012,-5.396341800689697,-0.5182926654815674,29.100000381469727,-3.75,-11.399999618530273,37.05415344238281,0,
 356181,-0.47119140625,-0.877197265625,-0.19970703125,8.018292427062988,-7.347561359405518,-0.030487805604934692,28.799999237060547,-4.949999809265137,-10.199999809265137,37.006229400634766,0,
 356191,-0.4931640625,-0.85693359375,-0.18359375,5.853658676147461,-7.987804889678955,0.7012194991111755,29.399999618530273,-3.1500000953674316,-10.800000190734863,37.05415344238281,0,
 356201,-0.5234375,-0.8701171875,-0.16796875,5.152439117431641,-5.853658676147461,0.8536585569381714,30.149999618530273,-3.450000047683716,-11.550000190734863,37.19792175292969,0,
 356211,-0.498291015625,-0.9287109375,-0.12890625,4.420732021331787,-3.8109757900238037,0.792682945728302,28.950000762939453,-3.1500000953674316,-12.300000190734863,37.34169006347656,0,
 356221,-0.477783203125,-0.920654296875,-0.10302734375,-1.7987805604934692,-5.365853786468506,0.060975611209869385,30.450000762939453,-1.0499999523162842,-12.0,37.19792175292969,0,
 356231,-0.512451171875,-0.905029296875,-0.109130859375,-5.396341800689697,-6.158536911010742,1.402438998222351,30.75,-1.350000023841858,-14.399999618530273,37.006229400634766,0,
 356241,-0.526611328125,-0.880615234375,-0.135498046875,-6.402439117431641,-3.445122003555298,4.939024448394775,30.75,-1.350000023841858,-14.399999618530273,37.10207748413086,0,
 356251,-0.499267578125,-0.849853515625,-0.1259765625,-2.012195110321045,2.4390244483947754,8.506097793579102,29.549999237060547,-2.549999952316284,-11.399999618530273,37.34169006347656,0,
 356261,-0.47314453125,-0.83984375,-0.107177734375,4.207317352294922,4.908536911010742,11.432927131652832,29.399999618530273,-2.700000047683716,-11.550000190734863,37.006229400634766,0,
 356271,-0.46630859375,-0.831787109375,-0.10107421875,10.396341323852539,4.817073345184326,12.92682933807373,29.850000381469727,-4.5,-10.949999809265137,37.006229400634766,0,
 356281,-0.474609375,-0.828369140625,-0.1025390625,14.45121955871582,2.987804889678955,12.469512939453125,28.950000762939453,-3.1500000953674316,-11.550000190734863,37.006229400634766,0,
 356292,-0.53759765625,-0.868408203125,-0.15625,19.268293380737305,1.8597561120986938,8.231707572937012,28.950000762939453,-3.1500000953674316,-11.550000190734863,37.10207748413086,0,
 356302,-0.551513671875,-0.864013671875,-0.174560546875,19.176830291748047,4.02439022064209,0.792682945728302,29.700000762939453,-4.650000095367432,-11.550000190734863,37.245845794677734,0,
 356312,-0.6064453125,-0.88330078125,-0.239990234375,16.4939022064209,5.579268455505371,-10.762195587158203,28.950000762939453,-4.650000095367432,-12.0,37.38961410522461,0,
 356322,-0.61572265625,-0.876220703125,-0.277099609375,14.84756088256836,9.481707572937012,-20.94512176513672,29.850000381469727,-3.299999952316284,-12.449999809265137,37.19792175292969,0,
 356332,-0.579345703125,-0.849609375,-0.2490234375,12.896341323852539,14.695122718811035,-30.94512176513672,29.850000381469727,-3.299999952316284,-12.449999809265137,37.006229400634766,0,
 356342,-0.53662109375,-0.837890625,-0.20751953125,17.89634132385254,16.768293380737305,-46.34146499633789,27.75,-3.450000047683716,-11.550000190734863,37.19792175292969,0,
 356352,-0.4970703125,-0.8837890625,-0.18359375,14.87804889678955,15.853658676147461,-48.658538818359375,29.399999618530273,-3.9000000953674316,-11.25,37.245845794677734,0,
 356362,-0.421875,-0.9052734375,-0.16796875,8.262195587158203,15.0,-49.54268264770508,29.549999237060547,-2.549999952316284,-11.399999618530273,37.10207748413086,0,
 356372,-0.4033203125,-0.87158203125,-0.142333984375,4.817073345184326,15.853658676147461,-45.57926940917969,28.799999237060547,-2.0999999046325684,-10.949999809265137,36.86246109008789,0,
 356382,-0.337158203125,-0.841796875,-0.13671875,3.8109757900238037,15.762195587158203,-40.121952056884766,28.799999237060547,-2.0999999046325684,-10.949999809265137,37.05415344238281,0,
 356392,-0.25244140625,-0.846435546875,-0.125,5.457317352294922,13.20121955871582,-32.04268264770508,28.049999237060547,-0.15000000596046448,-14.399999618530273,36.91038513183594,0,
 356402,-0.2177734375,-0.8447265625,-0.107421875,4.481707572937012,12.134146690368652,-24.664634704589844,27.600000381469727,-0.8999999761581421,-14.399999618530273,37.245845794677734,0,
 356412,-0.1796875,-0.8447265625,-0.091796875,3.6890244483947754,9.420731544494629,-13.384146690368652,26.700000762939453,-3.450000047683716,-11.550000190734863,36.91038513183594,0,
 356422,-0.16064453125,-0.869873046875,-0.110107421875,2.682926893234253,6.981707572937012,-3.932926893234253,26.700000762939453,-3.450000047683716,-11.550000190734863,37.006229400634766,0,
 356432,-0.1630859375,-0.859375,-0.1201171875,0.6402438879013062,4.817073345184326,5.121951103210449,30.299999237060547,-2.8499999046325684,-10.949999809265137,37.34169006347656,0,
 356442,-0.19775390625,-0.82568359375,-0.162841796875,3.079268455505371,2.5304877758026123,12.987805366516113,29.549999237060547,-4.050000190734863,-13.949999809265137,37.006229400634766,0,
 356452,-0.237060546875,-0.82666015625,-0.19921875,4.481707572937012,0.4878048896789551,16.707317352294922,28.200000762939453,-3.1500000953674316,-10.5,37.05415344238281,0,
 356462,-0.297607421875,-0.823974609375,-0.192626953125,5.884146690368652,-1.3414634466171265,17.68292808532715,27.75,-1.5,-10.5,37.34169006347656,0,
 356482,-0.377685546875,-0.86328125,-0.187255859375,3.628048896789551,-6.493902683258057,16.43292808532715,27.75,-2.700000047683716,-10.800000190734863,37.245845794677734,0,
 356492,-0.4033203125,-0.861572265625,-0.183837890625,1.5548781156539917,-8.04878044128418,11.768293380737305,26.100000381469727,-0.15000000596046448,-11.399999618530273,37.34169006347656,0,
 356502,-0.486328125,-0.86279296875,-0.17724609375,2.896341562271118,-7.591463565826416,6.829268455505371,28.200000762939453,-4.650000095367432,-13.050000190734863,37.245845794677734,0,
 356512,-0.514892578125,-0.885498046875,-0.166748046875,3.7804877758026123,-7.682927131652832,1.097561001777649,28.200000762939453,-4.650000095367432,-13.050000190734863,37.10207748413086,0,
 356522,-0.51171875,-0.911376953125,-0.1494140625,3.8109757900238037,-5.152439117431641,-5.396341800689697,27.600000381469727,-2.549999952316284,-11.399999618530273,36.86246109008789,0,
 356532,-0.533203125,-0.90966796875,-0.13427734375,4.207317352294922,-2.987804889678955,-10.54878044128418,27.600000381469727,-2.549999952316284,-11.399999618530273,36.91038513183594,0,
 356542,-0.523193359375,-0.923583984375,-0.122802734375,4.817073345184326,-0.3658536672592163,-15.914634704589844,26.700000762939453,-3.9000000953674316,-13.800000190734863,37.10207748413086,0,
 356552,-0.50732421875,-0.927734375,-0.101318359375,6.646341800689697,1.5243902206420898,-19.60365867614746,26.25,-2.700000047683716,-10.800000190734863,37.245845794677734,0,
 356562,-0.4892578125,-0.9375,-0.10400390625,7.317073345184326,4.420732021331787,-22.68292808532715,26.25,-2.700000047683716,-10.800000190734863,37.05415344238281,0,
 356572,-0.44775390625,-0.9482421875,-0.121337890625,8.079268455505371,6.981707572937012,-24.420732498168945,29.399999618530273,-0.75,-15.75,37.245845794677734,0,
 356582,-0.416259765625,-0.96728515625,-0.133056640625,8.170731544494629,7.713414669036865,-24.725610733032227,26.25,-1.0499999523162842,-16.799999237060547,37.10207748413086,0,
 356592,-0.39453125,-0.9619140625,-0.12646484375,5.670732021331787,8.87195110321045,-22.80487823486328,27.450000762939453,0.30000001192092896,-12.0,37.19792175292969,0,
 356602,-0.37939453125,-0.923828125,-0.135009765625,2.4390244483947754,10.42682933807373,-21.03658676147461,27.450000762939453,0.30000001192092896,-12.0,37.05415344238281,0,
 356612,-0.353759765625,-0.90625,-0.13818359375,2.865853786468506,10.42682933807373,-19.14634132385254,26.25,-1.0499999523162842,-12.0,37.10207748413086,0,
 356622,-0.343505859375,-0.89404296875,-0.145751953125,2.77439022064209,9.756097793579102,-17.713415145874023,26.549999237060547,-2.0999999046325684,-10.949999809265137,37.006229400634766,0,
 356632,-0.3330078125,-0.875,-0.149169921875,2.22560977935791,8.079268455505371,-16.219512939453125,27.600000381469727,-0.44999998807907104,-12.149999618530273,37.10207748413086,0,
 356642,-0.315185546875,-0.86328125,-0.157958984375,2.1646342277526855,5.670732021331787,-15.0,27.600000381469727,0.44999998807907104,-14.399999618530273,37.245845794677734,0,
 356652,-0.314697265625,-0.855712890625,-0.163330078125,3.1097562313079834,3.4146342277526855,-13.59756088256836,27.600000381469727,0.44999998807907104,-14.399999618530273,37.34169006347656,0,
 356662,-0.307861328125,-0.84033203125,-0.1455078125,3.47560977935791,0.9756097793579102,-12.682927131652832,26.700000762939453,-0.75,-11.550000190734863,37.05415344238281,0,
 356672,-0.3095703125,-0.848876953125,-0.14501953125,6.189024448394775,-0.8841463327407837,-11.768293380737305,26.549999237060547,-0.15000000596046448,-10.949999809265137,37.05415344238281,0,
 356682,-0.32421875,-0.855712890625,-0.14404296875,6.707317352294922,-2.317073106765747,-11.219511985778809,26.549999237060547,-0.44999998807907104,-11.699999809265137,37.006229400634766,0,
 356692,-0.3330078125,-0.860595703125,-0.134521484375,7.317073345184326,-3.3231709003448486,-11.25,26.549999237060547,-0.44999998807907104,-11.699999809265137,37.006229400634766,0,
 356702,-0.342529296875,-0.8720703125,-0.140869140625,8.140244483947754,-3.445122003555298,-11.585366249084473,26.850000381469727,-2.549999952316284,-12.149999618530273,37.19792175292969,0,
 356712,-0.350830078125,-0.88134765625,-0.1357421875,8.445121765136719,-2.987804889678955,-12.164634704589844,27.600000381469727,-0.15000000596046448,-10.649999618530273,37.34169006347656,0,
 356722,-0.367919921875,-0.890625,-0.12890625,9.207317352294922,-3.079268455505371,-13.353658676147461,26.549999237060547,-0.44999998807907104,-9.899999618530273,36.814537048339844,0,
 356732,-0.3759765625,-0.912109375,-0.126708984375,8.963415145874023,-2.4390244483947754,-15.27439022064209,25.950000762939453,0.75,-11.550000190734863,37.006229400634766,0,
 356742,-0.375732421875,-0.911376953125,-0.12841796875,8.079268455505371,-1.7073171138763428,-17.530488967895508,25.950000762939453,0.75,-11.550000190734863,37.006229400634766,0,
 356752,-0.375244140625,-0.916259765625,-0.125244140625,8.414634704589844,-1.0060975551605225,-18.841463088989258,26.100000381469727,-1.649999976158142,-13.199999809265137,37.245845794677734,0,
 356762,-0.370361328125,-0.933837890625,-0.127685546875,9.359756469726562,-0.4878048896789551,-20.0,26.549999237060547,0.8999999761581421,-11.699999809265137,37.38961410522461,0,
 356772,-0.36083984375,-0.945068359375,-0.11669921875,9.29878044128418,0.7012194991111755,-20.091463088989258,25.5,0.0,-12.300000190734863,37.19792175292969,0,
 356782,-0.3525390625,-0.94482421875,-0.11328125,8.689024925231934,1.4939024448394775,-20.030488967895508,25.5,0.0,-12.300000190734863,37.10207748413086,0,
 356792,-0.34716796875,-0.959716796875,-0.112060546875,7.408536911010742,3.079268455505371,-17.378049850463867,24.149999618530273,-0.15000000596046448,-11.699999809265137,37.006229400634766,0,
 356802,-0.328125,-0.95947265625,-0.115478515625,5.762195110321045,2.9268293380737305,-15.640244483947754,25.950000762939453,0.75,-12.0,37.006229400634766,0,
 356812,-0.318359375,-0.955322265625,-0.117431640625,5.121951103210449,2.012195110321045,-13.506097793579102,24.899999618530273,0.8999999761581421,-12.149999618530273,36.91038513183594,0,
 356822,-0.308837890625,-0.9462890625,-0.114013671875,4.6646342277526855,1.4634146690368652,-11.12804889678955,24.75,0.30000001192092896,-11.550000190734863,37.245845794677734,0,
 356832,-0.30810546875,-0.9375,-0.113037109375,4.390244007110596,0.7012194991111755,-8.506097793579102,24.75,0.30000001192092896,-11.550000190734863,37.006229400634766,0,
 356842,-0.302490234375,-0.948974609375,-0.12353515625,3.9634146690368652,0.15243902802467346,-6.280488014221191,26.700000762939453,-0.30000001192092896,-10.800000190734863,37.19792175292969,0,
 356852,-0.299072265625,-0.943115234375,-0.11865234375,3.567073345184326,-0.6402438879013062,-5.060975551605225,26.850000381469727,-2.8499999046325684,-13.649999618530273,37.10207748413086,0,
 356862,-0.3134765625,-0.93408203125,-0.1201171875,3.4146342277526855,-1.1890244483947754,-3.9024391174316406,23.850000381469727,0.15000000596046448,-10.949999809265137,37.05415344238281,0,
 356872,-0.315185546875,-0.924560546875,-0.114501953125,3.445122003555298,-1.6768293380737305,-2.8353660106658936,23.850000381469727,0.15000000596046448,-10.949999809265137,37.05415344238281,0,
 356882,-0.31298828125,-0.925537109375,-0.10595703125,3.3841464519500732,-1.6768293380737305,-2.591463565826416,25.5,0.75,-12.0,37.10207748413086,0,
 356892,-0.318359375,-0.928466796875,-0.111328125,2.1646342277526855,-1.432926893234253,-2.408536672592163,26.700000762939453,-0.30000001192092896,-12.300000190734863,37.19792175292969,0,
 356902,-0.31689453125,-0.9296875,-0.107177734375,1.3109756708145142,-1.3719512224197388,-2.7134146690368652,24.75,1.5,-12.300000190734863,37.245845794677734,0,
 356912,-0.32080078125,-0.9267578125,-0.1064453125,1.097561001777649,-1.1280487775802612,-2.5609755516052246,25.200000762939453,0.75,-12.0,37.19792175292969,0,
 356922,-0.320068359375,-0.92626953125,-0.10205078125,0.8841463327407837,-0.792682945728302,-3.3841464519500732,25.200000762939453,0.75,-12.0,37.10207748413086,0,
 356932,-0.32763671875,-0.929443359375,-0.100341796875,1.1585365533828735,0.060975611209869385,-3.7804877758026123,25.5,1.5,-11.550000190734863,37.34169006347656,0,
 356942,-0.327392578125,-0.911376953125,-0.10205078125,2.3475611209869385,0.7317073345184326,-5.121951103210449,25.950000762939453,0.75,-14.25,37.10207748413086,0,
 356952,-0.3251953125,-0.907470703125,-0.1171875,4.817073345184326,1.2804877758026123,-7.103658676147461,24.450000762939453,0.30000001192092896,-15.75,37.10207748413086,0,
 356962,-0.312255859375,-0.918212890625,-0.117919921875,6.006097793579102,1.920731782913208,-7.591463565826416,24.450000762939453,0.30000001192092896,-15.75,37.19792175292969,0,
 356972,-0.310302734375,-0.931640625,-0.115234375,5.579268455505371,1.2195122241973877,-8.109756469726562,25.350000381469727,0.44999998807907104,-12.449999809265137,37.05415344238281,0,
 356982,-0.319091796875,-0.928466796875,-0.1064453125,3.658536672592163,0.7621951103210449,-8.719511985778809,25.5,1.0499999523162842,-13.5,37.34169006347656,0,
 356992,-0.321044921875,-0.927734375,-0.1015625,2.3475611209869385,1.097561001777649,-8.658536911010742,25.649999618530273,0.15000000596046448,-11.699999809265137,37.34169006347656,0,
 357002,-0.29345703125,-0.93017578125,-0.10546875,1.9817073345184326,0.9756097793579102,-8.384146690368652,25.5,1.0499999523162842,-11.550000190734863,37.05415344238281,0,
 357012,-0.29443359375,-0.947998046875,-0.107666015625,1.1280487775802612,0.18292683362960815,-7.591463565826416,25.5,1.0499999523162842,-11.550000190734863,36.86246109008789,0,
 357022,-0.302490234375,-0.94140625,-0.103271484375,-0.7621951103210449,0.12195122241973877,-7.256097793579102,24.75,1.0499999523162842,-11.550000190734863,37.006229400634766,0,
 357032,-0.293212890625,-0.93359375,-0.099365234375,-1.25,0.15243902802467346,-5.945122241973877,25.649999618530273,0.44999998807907104,-12.149999618530273,37.006229400634766,0,
 357042,-0.297119140625,-0.93408203125,-0.103759765625,-1.432926893234253,0.5487805008888245,-5.030488014221191,24.75,0.30000001192092896,-13.5,37.245845794677734,0,
 357052,-0.29443359375,-0.937255859375,-0.1015625,-1.3719512224197388,0.3658536672592163,-4.237804889678955,24.75,0.30000001192092896,-13.5,37.245845794677734,0,
 357062,-0.296875,-0.928955078125,-0.110595703125,-1.1585365533828735,0.24390244483947754,-3.1097562313079834,24.0,1.0499999523162842,-12.300000190734863,37.10207748413086,0,
 357072,-0.299560546875,-0.927978515625,-0.1123046875,-0.5182926654815674,0.18292683362960815,-1.7682926654815674,24.899999618530273,0.44999998807907104,-11.699999809265137,37.006229400634766,0,
 357082,-0.298583984375,-0.93603515625,-0.112548828125,-0.030487805604934692,-0.18292683362960815,-1.3719512224197388,23.850000381469727,0.8999999761581421,-12.149999618530273,37.34169006347656,0,
 357092,-0.301025390625,-0.930908203125,-0.10693359375,0.4573170840740204,-0.09146341681480408,-0.8231707215309143,23.850000381469727,0.8999999761581421,-12.899999618530273,37.05415344238281,0,
 357102,-0.307861328125,-0.9365234375,-0.1044921875,0.7012194991111755,-0.6402438879013062,-0.24390244483947754,23.850000381469727,0.8999999761581421,-12.899999618530273,37.34169006347656,0,
 357112,-0.3056640625,-0.938720703125,-0.108642578125,1.0365853309631348,-0.792682945728302,0.060975611209869385,24.0,1.0499999523162842,-12.300000190734863,37.10207748413086,0,
 357123,-0.31005859375,-0.93359375,-0.104248046875,0.5487805008888245,-0.792682945728302,0.24390244483947754,25.350000381469727,-0.15000000596046448,-13.199999809265137,37.34169006347656,0,
 357133,-0.306640625,-0.93896484375,-0.099853515625,0.3353658616542816,-0.6402438879013062,0.5792682766914368,25.950000762939453,0.75,-13.050000190734863,37.05415344238281,0,
 357143,-0.30810546875,-0.94677734375,-0.1025390625,-0.15243902802467346,-0.7012194991111755,1.1280487775802612,25.200000762939453,0.75,-11.550000190734863,37.245845794677734,0,
 357153,-0.3056640625,-0.921630859375,-0.10107421875,-0.3658536672592163,-0.18292683362960815,0.27439025044441223,25.200000762939453,0.75,-11.550000190734863,37.05415344238281,0,
 357163,-0.30419921875,-0.92138671875,-0.1005859375,0.12195122241973877,0.18292683362960815,0.4268292784690857,23.399999618530273,-0.15000000596046448,-12.149999618530273,36.91038513183594,0,
 357173,-0.313720703125,-0.91796875,-0.101318359375,1.432926893234253,0.396341472864151,-0.396341472864151,25.5,0.75,-11.550000190734863,37.245845794677734,0,
 357183,-0.314208984375,-0.91259765625,-0.103759765625,2.5304877758026123,0.3658536672592163,-1.8292683362960815,24.899999618530273,1.649999976158142,-12.899999618530273,37.19792175292969,0,
 357193,-0.298095703125,-0.920654296875,-0.101806640625,2.591463565826416,0.6707317233085632,-2.8353660106658936,24.899999618530273,1.649999976158142,-12.899999618530273,37.245845794677734,0,
 357203,-0.294677734375,-0.93603515625,-0.09619140625,2.195122003555298,0.3048780560493469,-2.865853786468506,26.549999237060547,1.350000023841858,-12.899999618530273,37.006229400634766,0,
 357213,-0.290771484375,-0.9296875,-0.096923828125,-0.15243902802467346,0.12195122241973877,-3.0487804412841797,25.5,0.0,-12.300000190734863,37.006229400634766,0,
 357223,-0.290771484375,-0.915771484375,-0.103759765625,-1.5548781156539917,-0.21341463923454285,-2.408536672592163,24.0,0.75,-11.550000190734863,37.006229400634766,0,
 357233,-0.289794921875,-0.91943359375,-0.1044921875,-0.4573170840740204,-0.5487805008888245,-2.0426828861236572,24.149999618530273,1.350000023841858,-12.149999618530273,37.006229400634766,0,
 357243,-0.296630859375,-0.94140625,-0.094482421875,0.060975611209869385,-0.18292683362960815,-1.4634146690368652,24.149999618530273,1.350000023841858,-12.149999618530273,37.19792175292969,0,
 357253,-0.29345703125,-0.922607421875,-0.09814453125,-1.1890244483947754,0.5182926654815674,-0.09146341681480408,24.899999618530273,1.350000023841858,-12.149999618530273,37.006229400634766,0,
 357263,-0.300048828125,-0.931396484375,-0.09912109375,-0.4268292784690857,0.21341463923454285,0.12195122241973877,26.549999237060547,-1.350000023841858,-15.149999618530273,37.10207748413086,0,
 357273,-0.310302734375,-0.937255859375,-0.0966796875,-0.6707317233085632,0.6707317233085632,-0.396341472864151,26.549999237060547,0.44999998807907104,-12.449999809265137,37.19792175292969,0,
 357283,-0.3017578125,-0.9306640625,-0.10791015625,-0.060975611209869385,1.097561001777649,-1.0365853309631348,26.549999237060547,0.44999998807907104,-12.449999809265137,37.34169006347656,0,
 357293,-0.30419921875,-0.91650390625,-0.1103515625,2.1646342277526855,0.9756097793579102,-1.7682926654815674,26.700000762939453,0.75,-12.300000190734863,37.34169006347656,0,
 357303,-0.297607421875,-0.9248046875,-0.1025390625,2.2865853309631348,0.6097561120986938,-2.5609755516052246,25.950000762939453,1.5,-12.0,36.86246109008789,0,
 357313,-0.297607421875,-0.9423828125,-0.1044921875,0.7621951103210449,0.6402438879013062,-2.591463565826416,24.450000762939453,0.30000001192092896,-12.0,37.006229400634766,0,
 357323,-0.29150390625,-0.935546875,-0.105224609375,0.030487805604934692,0.4573170840740204,-2.408536672592163,24.450000762939453,1.9500000476837158,-11.550000190734863,37.245845794677734,0,
 357333,-0.2919921875,-0.939697265625,-0.10009765625,0.3353658616542816,0.27439025044441223,-2.3475611209869385,24.450000762939453,1.9500000476837158,-11.550000190734863,37.10207748413086,0,
 357343,-0.29443359375,-0.93896484375,-0.09814453125,-0.4268292784690857,0.3658536672592163,-1.737804889678955,24.899999618530273,1.350000023841858,-10.949999809265137,37.05415344238281,0,
 357353,-0.294921875,-0.94189453125,-0.09033203125,-1.3414634466171265,0.5487805008888245,-1.432926893234253,25.200000762939453,0.75,-13.050000190734863,37.006229400634766,0,
 357363,-0.289306640625,-0.93310546875,-0.0927734375,-1.585365891456604,0.7621951103210449,-0.4878048896789551,25.350000381469727,0.8999999761581421,-14.699999809265137,37.34169006347656,0,
 357373,-0.2861328125,-0.9365234375,-0.0966796875,-1.920731782913208,0.6097561120986938,0.6707317233085632,25.350000381469727,0.8999999761581421,-14.699999809265137,37.10207748413086,0,
 357383,-0.289306640625,-0.9375,-0.1015625,-1.4634146690368652,0.396341472864151,0.9756097793579102,24.600000381469727,0.44999998807907104,-12.899999618530273,37.05415344238281,0,
 357393,-0.294921875,-0.922607421875,-0.1044921875,0.3353658616542816,0.8536585569381714,0.7012194991111755,24.75,1.9500000476837158,-13.5,36.91038513183594,0,
 357403,-0.298583984375,-0.919921875,-0.108642578125,0.9756097793579102,0.5792682766914368,0.5487805008888245,24.75,0.75,-12.300000190734863,36.86246109008789,0,
 357413,-0.2880859375,-0.935302734375,-0.099365234375,0.12195122241973877,-0.09146341681480408,0.3048780560493469,23.850000381469727,-0.15000000596046448,-13.649999618530273,37.34169006347656,0,
 357423,-0.30126953125,-0.92333984375,-0.10498046875,-1.0365853309631348,-0.3048780560493469,0.15243902802467346,23.850000381469727,-0.15000000596046448,-13.649999618530273,37.05415344238281,0,
 357433,-0.3076171875,-0.925048828125,-0.11181640625,-0.6707317233085632,-0.21341463923454285,-0.396341472864151,24.75,1.9500000476837158,-11.25,37.245845794677734,0,
 357443,-0.298828125,-0.91748046875,-0.103271484375,0.3048780560493469,0.3658536672592163,-1.25,25.950000762939453,1.5,-11.25,37.245845794677734,0,
 357453,-0.288818359375,-0.93212890625,-0.0966796875,1.402438998222351,0.4573170840740204,-1.2804877758026123,24.75,1.9500000476837158,-12.300000190734863,36.67076873779297,0,
 357463,-0.291748046875,-0.93408203125,-0.095703125,1.097561001777649,0.09146341681480408,-1.5548781156539917,24.75,1.9500000476837158,-12.300000190734863,37.19792175292969,0,
 357473,-0.290771484375,-0.932861328125,-0.09814453125,-0.27439025044441223,-0.3658536672592163,-1.6463414430618286,23.549999237060547,2.25,-12.75,37.34169006347656,0,
 357483,-0.287109375,-0.923095703125,-0.10595703125,-0.6707317233085632,-0.5487805008888245,-0.5182926654815674,25.350000381469727,0.8999999761581421,-13.199999809265137,37.05415344238281,0,
 357493,-0.28515625,-0.92822265625,-0.109375,-0.5182926654815674,-0.6097561120986938,-0.4878048896789551,23.399999618530273,0.15000000596046448,-12.149999618530273,37.19792175292969,0,
 357503,-0.294189453125,-0.926513671875,-0.099365234375,-0.3658536672592163,-0.7012194991111755,0.060975611209869385,25.200000762939453,0.30000001192092896,-13.050000190734863,37.006229400634766,0,
 357513,-0.29833984375,-0.927978515625,-0.093994140625,0.4573170840740204,-0.21341463923454285,0.5182926654815674,25.200000762939453,0.30000001192092896,-13.050000190734863,37.245845794677734,0,
 357523,-0.294189453125,-0.9462890625,-0.092529296875,0.6707317233085632,0.030487805604934692,0.18292683362960815,24.450000762939453,1.0499999523162842,-12.75,37.05415344238281,0,
 357533,-0.302978515625,-0.952392578125,-0.0830078125,0.15243902802467346,0.0,0.9146341681480408,24.75,0.75,-12.300000190734863,37.34169006347656,0,
 357543,-0.308837890625,-0.941162109375,-0.095458984375,-0.6097561120986938,-0.12195122241973877,0.060975611209869385,25.200000762939453,0.30000001192092896,-12.300000190734863,37.34169006347656,0,
 357553,-0.29833984375,-0.925048828125,-0.10205078125,-1.0060975551605225,0.5792682766914368,-0.24390244483947754,25.200000762939453,0.30000001192092896,-12.300000190734863,37.245845794677734,0,
 357563,-0.294921875,-0.93994140625,-0.09326171875,-0.396341472864151,1.3414634466171265,0.15243902802467346,25.350000381469727,3.299999952316284,-13.949999809265137,37.245845794677734,0,
 357573,-0.291259765625,-0.944091796875,-0.100830078125,-0.9451219439506531,1.402438998222351,0.060975611209869385,23.850000381469727,1.350000023841858,-14.399999618530273,37.10207748413086,0,
 357583,-0.2890625,-0.935302734375,-0.10693359375,-1.7987805604934692,1.2804877758026123,0.396341472864151,25.950000762939453,0.75,-13.050000190734863,37.34169006347656,0,
 357593,-0.28759765625,-0.9267578125,-0.10595703125,-1.920731782913208,0.8841463327407837,0.030487805604934692,25.200000762939453,1.5,-12.0,37.05415344238281,0,
 357603,-0.29248046875,-0.925048828125,-0.10888671875,-1.6463414430618286,0.24390244483947754,0.24390244483947754,25.200000762939453,1.5,-12.0,36.718692779541016,0,
 357613,-0.28662109375,-0.919189453125,-0.109375,-0.9451219439506531,-0.030487805604934692,-0.27439025044441223,26.25,0.75,-12.300000190734863,37.05415344238281,0,
 357623,-0.286865234375,-0.9267578125,-0.10791015625,0.060975611209869385,-0.21341463923454285,-0.060975611209869385,24.450000762939453,1.5,-12.0,37.245845794677734,0,
 357633,-0.295166015625,-0.9267578125,-0.10400390625,0.6402438879013062,-0.8231707215309143,0.21341463923454285,24.899999618530273,1.350000023841858,-12.449999809265137,37.245845794677734,0,
 357643,-0.293701171875,-0.924560546875,-0.095458984375,0.9146341681480408,-0.4573170840740204,-0.24390244483947754,24.899999618530273,1.350000023841858,-12.449999809265137,37.245845794677734,0,
 357653,-0.292236328125,-0.9169921875,-0.092529296875,1.4939024448394775,0.27439025044441223,-0.4573170840740204,25.200000762939453,3.1500000953674316,-12.75,37.006229400634766,0,
 357663,-0.293701171875,-0.93798828125,-0.0869140625,1.3719512224197388,0.6402438879013062,0.12195122241973877,24.149999618530273,2.549999952316284,-12.899999618530273,36.91038513183594,0,
 357673,-0.2939453125,-0.940185546875,-0.093505859375,-0.060975611209869385,0.0,-0.5487805008888245,24.450000762939453,0.0,-13.050000190734863,37.19792175292969,0,
 357683,-0.29345703125,-0.9384765625,-0.1015625,-1.2195122241973877,0.21341463923454285,-1.1280487775802612,24.149999618530273,0.8999999761581421,-12.899999618530273,36.91038513183594,0,
 357693,-0.2998046875,-0.926025390625,-0.103515625,-1.920731782913208,0.27439025044441223,-1.1890244483947754,24.149999618530273,0.8999999761581421,-12.899999618530273,36.86246109008789,0,
 357703,-0.293212890625,-0.931884765625,-0.10546875,-0.8231707215309143,0.3658536672592163,-0.8841463327407837,24.899999618530273,1.649999976158142,-12.449999809265137,37.19792175292969,0,
 357713,-0.296142578125,-0.934814453125,-0.10595703125,-0.4268292784690857,0.4268292784690857,-1.0365853309631348,25.5,1.5,-12.300000190734863,37.245845794677734,0,
 357723,-0.28857421875,-0.933349609375,-0.097412109375,-0.3658536672592163,0.5182926654815674,-0.21341463923454285,24.75,1.0499999523162842,-13.050000190734863,37.05415344238281,0,
 357733,-0.2919921875,-0.939208984375,-0.099365234375,-0.24390244483947754,0.27439025044441223,-0.09146341681480408,24.75,1.0499999523162842,-13.050000190734863,37.34169006347656,0,
 357743,-0.296630859375,-0.93896484375,-0.10107421875,-0.7012194991111755,0.5182926654815674,-0.15243902802467346,25.5,3.9000000953674316,-13.5,37.05415344238281,0,
 357753,-0.296630859375,-0.934814453125,-0.107666015625,-0.24390244483947754,0.9756097793579102,-0.030487805604934692,24.149999618530273,1.350000023841858,-13.199999809265137,37.19792175292969,0,
 360186,-0.268310546875,-0.93408203125,-0.087890625,0.4268292784690857,0.3048780560493469,0.21341463923454285,23.549999237060547,2.25,-12.75,37.05415344238281,0,
 360196,-0.268310546875,-0.929443359375,-0.095458984375,0.3658536672592163,0.030487805604934692,0.21341463923454285,22.649999618530273,0.8999999761581421,-13.949999809265137,37.006229400634766,0,
 360206,-0.2734375,-0.929931640625,-0.087646484375,0.396341472864151,-0.6097561120986938,0.060975611209869385,22.649999618530273,0.8999999761581421,-13.949999809265137,37.10207748413086,0,
 360216,-0.27294921875,-0.9365234375,-0.08642578125,0.5487805008888245,-0.396341472864151,0.18292683362960815,24.149999618530273,3.299999952316284,-13.649999618530273,37.006229400634766,0,
 360226,-0.279541015625,-0.943359375,-0.083251953125,0.3353658616542816,-0.4268292784690857,0.3353658616542816,22.799999237060547,0.0,-14.25,37.05415344238281,0,
 360236,-0.28515625,-0.93994140625,-0.087646484375,0.09146341681480408,-0.5792682766914368,0.3048780560493469,25.200000762939453,2.700000047683716,-13.800000190734863,37.19792175292969,0,
 360246,-0.278076171875,-0.9453125,-0.084716796875,-0.030487805604934692,-0.27439025044441223,-0.24390244483947754,22.649999618530273,0.15000000596046448,-13.949999809265137,37.05415344238281,0,
 360256,-0.2744140625,-0.947265625,-0.079833984375,-0.3048780560493469,0.4573170840740204,0.18292683362960815,22.649999618530273,0.15000000596046448,-13.949999809265137,37.245845794677734,0,
 360266,-0.2802734375,-0.94189453125,-0.07958984375,-0.5487805008888245,0.4878048896789551,0.060975611209869385,23.549999237060547,0.75,-14.25,37.10207748413086,0,
 360276,-0.28564453125,-0.9365234375,-0.078125,-0.4878048896789551,0.5487805008888245,0.0,23.25,1.0499999523162842,-12.300000190734863,37.19792175292969,0,
 360286,-0.28173828125,-0.940673828125,-0.083251953125,-0.5487805008888245,0.6402438879013062,-0.15243902802467346,24.450000762939453,-0.75,-13.5,37.34169006347656,0,
 360296,-0.274169921875,-0.939697265625,-0.08154296875,-1.25,0.7317073345184326,0.09146341681480408,24.450000762939453,-0.75,-13.5,36.91038513183594,0,
 360306,-0.273681640625,-0.939453125,-0.08447265625,-1.3414634466171265,0.8536585569381714,-0.18292683362960815,23.25,2.25,-12.300000190734863,37.05415344238281,0,
 360316,-0.27001953125,-0.939453125,-0.09326171875,-1.2195122241973877,1.1890244483947754,0.5487805008888245,22.649999618530273,1.350000023841858,-13.199999809265137,37.10207748413086,0,
 360326,-0.27099609375,-0.93359375,-0.09228515625,-0.9146341681480408,0.9756097793579102,0.6097561120986938,24.600000381469727,-0.44999998807907104,-13.949999809265137,37.05415344238281,0,
 360336,-0.2646484375,-0.926025390625,-0.093505859375,-1.0060975551605225,0.3048780560493469,0.7621951103210449,23.399999618530273,2.8499999046325684,-13.199999809265137,37.006229400634766,0,
 360346,-0.276611328125,-0.9208984375,-0.097412109375,0.09146341681480408,0.3658536672592163,0.7012194991111755,23.399999618530273,2.8499999046325684,-13.199999809265137,37.10207748413086,0,
 360356,-0.27392578125,-0.930419921875,-0.09765625,0.792682945728302,-0.3048780560493469,0.18292683362960815,23.850000381469727,0.8999999761581421,-13.649999618530273,37.245845794677734,0,
 360366,-0.2744140625,-0.9365234375,-0.089111328125,1.6158536672592163,-0.4573170840740204,0.060975611209869385,23.100000381469727,2.8499999046325684,-12.149999618530273,37.05415344238281,0,
 360377,-0.276611328125,-0.9443359375,-0.09033203125,1.25,-0.3658536672592163,0.12195122241973877,24.0,3.1500000953674316,-12.75,37.19792175292969,0,
 360387,-0.27685546875,-0.9443359375,-0.080078125,0.060975611209869385,-0.3658536672592163,0.030487805604934692,24.0,3.1500000953674316,-12.75,37.245845794677734,0,
 360397,-0.276123046875,-0.935302734375,-0.08154296875,-0.18292683362960815,0.27439025044441223,0.060975611209869385,23.850000381469727,0.44999998807907104,-13.199999809265137,37.05415344238281,0,
 360407,-0.280517578125,-0.939453125,-0.08251953125,-0.030487805604934692,0.18292683362960815,0.27439025044441223,23.399999618530273,0.8999999761581421,-14.399999618530273,37.19792175292969,0,
 360417,-0.28076171875,-0.944091796875,-0.07421875,-0.8231707215309143,0.3658536672592163,0.030487805604934692,23.850000381469727,1.649999976158142,-13.649999618530273,37.245845794677734,0,
 360427,-0.27734375,-0.938720703125,-0.077392578125,-1.0365853309631348,0.8536585569381714,0.060975611209869385,23.850000381469727,4.050000190734863,-14.699999809265137,37.38961410522461,0,
 360437,-0.2802734375,-0.947021484375,-0.080322265625,-1.097561001777649,0.6707317233085632,0.4878048896789551,23.850000381469727,4.050000190734863,-14.699999809265137,37.10207748413086,0,
 360447,-0.27685546875,-0.9443359375,-0.091064453125,-1.2195122241973877,0.5792682766914368,0.3658536672592163,24.149999618530273,0.8999999761581421,-13.949999809265137,37.10207748413086,0,
 360457,-0.275390625,-0.933837890625,-0.08642578125,-0.7012194991111755,0.7317073345184326,0.396341472864151,23.850000381469727,1.350000023841858,-11.699999809265137,37.245845794677734,0,
 360467,-0.27197265625,-0.933349609375,-0.087646484375,-0.4268292784690857,0.396341472864151,0.18292683362960815,24.75,2.25,-13.5,37.245845794677734,0,
 360477,-0.2734375,-0.941650390625,-0.093505859375,-0.4573170840740204,0.030487805604934692,0.4268292784690857,24.75,2.25,-13.5,37.006229400634766,0,
 360487,-0.270263671875,-0.9365234375,-0.087158203125,-0.27439025044441223,-0.396341472864151,-0.060975611209869385,24.600000381469727,1.350000023841858,-12.449999809265137,37.10207748413086,0,
 360497,-0.274169921875,-0.934326171875,-0.091064453125,-0.030487805604934692,-0.21341463923454285,-0.030487805604934692,24.149999618530273,4.050000190734863,-13.949999809265137,37.10207748413086,0,
 360507,-0.2724609375,-0.940185546875,-0.086181640625,0.030487805604934692,0.21341463923454285,0.030487805604934692,24.899999618530273,2.549999952316284,-12.449999809265137,37.38961410522461,0,
 360517,-0.276611328125,-0.93603515625,-0.0869140625,-0.18292683362960815,0.09146341681480408,0.27439025044441223,22.799999237060547,3.1500000953674316,-12.75,37.245845794677734,0,
 360527,-0.26904296875,-0.9306640625,-0.08447265625,0.060975611209869385,0.3048780560493469,0.4878048896789551,22.799999237060547,3.1500000953674316,-12.75,37.34169006347656,0,
 360537,-0.268798828125,-0.9404296875,-0.078857421875,0.24390244483947754,0.3658536672592163,0.4268292784690857,24.600000381469727,0.44999998807907104,-13.649999618530273,36.86246109008789,0,
 360547,-0.2802734375,-0.931884765625,-0.09033203125,0.030487805604934692,0.6097561120986938,0.27439025044441223,23.25,1.9500000476837158,-12.0,37.34169006347656,0,
 360557,-0.272705078125,-0.938720703125,-0.08203125,-0.5487805008888245,0.6707317233085632,0.5487805008888245,22.799999237060547,1.0499999523162842,-12.75,37.05415344238281,0,
 360567,-0.272216796875,-0.939697265625,-0.0830078125,-0.9756097793579102,0.4573170840740204,0.4573170840740204,22.799999237060547,1.0499999523162842,-12.75,37.05415344238281,0,
 360577,-0.275634765625,-0.930908203125,-0.084228515625,-0.7317073345184326,0.0,0.24390244483947754,24.149999618530273,1.649999976158142,-14.399999618530273,37.19792175292969,0,
 360587,-0.27783203125,-0.935546875,-0.085693359375,-0.7621951103210449,0.24390244483947754,0.15243902802467346,24.600000381469727,2.549999952316284,-12.899999618530273,37.05415344238281,0,
 360597,-0.276611328125,-0.937744140625,-0.087646484375,-0.24390244483947754,0.5792682766914368,0.27439025044441223,23.850000381469727,2.0999999046325684,-13.649999618530273,37.19792175292969,0,
 360607,-0.27978515625,-0.94189453125,-0.090576171875,-0.09146341681480408,0.5182926654815674,0.5182926654815674,22.649999618530273,1.649999976158142,-13.199999809265137,37.34169006347656,0,
 360617,-0.28076171875,-0.939208984375,-0.0810546875,-0.24390244483947754,0.5182926654815674,0.3353658616542816,22.649999618530273,1.649999976158142,-13.199999809265137,37.245845794677734,0,
 360627,-0.27734375,-0.940673828125,-0.084716796875,-0.27439025044441223,0.5182926654815674,-0.09146341681480408,23.850000381469727,1.649999976158142,-13.199999809265137,37.05415344238281,0,
 360637,-0.27880859375,-0.943603515625,-0.083251953125,-0.030487805604934692,0.18292683362960815,0.12195122241973877,24.450000762939453,1.0499999523162842,-16.5,36.814537048339844,0,
 360647,-0.27880859375,-0.938232421875,-0.078857421875,-0.4268292784690857,0.0,-0.030487805604934692,23.850000381469727,1.649999976158142,-12.149999618530273,37.006229400634766,0,
 360657,-0.2724609375,-0.94140625,-0.07861328125,-0.6402438879013062,0.7012194991111755,-0.4268292784690857,23.850000381469727,1.649999976158142,-12.149999618530273,37.245845794677734,0,
 360667,-0.26953125,-0.93994140625,-0.081298828125,-1.2195122241973877,0.8231707215309143,0.24390244483947754,22.200000762939453,0.44999998807907104,-12.149999618530273,37.19792175292969,0,
 360677,-0.274658203125,-0.935791015625,-0.085693359375,-1.1890244483947754,1.1585365533828735,0.5182926654815674,24.0,3.1500000953674316,-13.800000190734863,37.006229400634766,0,
 360687,-0.271240234375,-0.93310546875,-0.08740234375,-1.0670732259750366,1.0060975551605225,0.4573170840740204,24.149999618530273,2.0999999046325684,-12.449999809265137,36.814537048339844,0,
 360697,-0.271484375,-0.925537109375,-0.096435546875,-1.1585365533828735,0.8231707215309143,0.24390244483947754,24.0,0.75,-12.300000190734863,37.05415344238281,0,
 360707,-0.270263671875,-0.936279296875,-0.09375,-0.8841463327407837,1.0060975551605225,0.4268292784690857,24.0,0.75,-12.300000190734863,37.245845794677734,0,
 360717,-0.273681640625,-0.9306640625,-0.091552734375,-0.15243902802467346,0.27439025044441223,0.18292683362960815,24.450000762939453,3.1500000953674316,-12.75,37.245845794677734,0,
 360727,-0.2734375,-0.933837890625,-0.095458984375,-0.09146341681480408,0.15243902802467346,0.18292683362960815,23.399999618530273,2.0999999046325684,-12.899999618530273,37.34169006347656,0,
 360737,-0.2724609375,-0.935546875,-0.09130859375,0.21341463923454285,-0.12195122241973877,0.27439025044441223,24.0,2.25,-16.5,36.814537048339844,0,
 360747,-0.277587890625,-0.9384765625,-0.087646484375,0.5487805008888245,-0.15243902802467346,0.21341463923454285,24.0,2.25,-16.5,37.10207748413086,0,
 360757,-0.275390625,-0.946533203125,-0.07958984375,0.8231707215309143,-0.18292683362960815,0.27439025044441223,24.0,1.5,-12.75,37.38961410522461,0,
 360767,-0.275634765625,-0.948486328125,-0.08056640625,0.12195122241973877,-0.12195122241973877,0.060975611209869385,23.25,1.5,-13.5,37.34169006347656,0,
 360777,-0.287109375,-0.945556640625,-0.08349609375,-0.18292683362960815,-0.12195122241973877,0.4268292784690857,24.899999618530273,2.0999999046325684,-12.449999809265137,37.34169006347656,0,
 360787,-0.27978515625,-0.941162109375,-0.083740234375,-0.6402438879013062,0.24390244483947754,0.4878048896789551,23.399999618530273,3.299999952316284,-12.449999809265137,37.006229400634766,0,
 360797,-0.2822265625,-0.936767578125,-0.082275390625,-0.5792682766914368,0.4268292784690857,0.4573170840740204,23.399999618530273,3.299999952316284,-12.449999809265137,37.245845794677734,0,
 360807,-0.27783203125,-0.942626953125,-0.08984375,-0.5487805008888245,0.5792682766914368,0.0,24.899999618530273,1.649999976158142,-13.649999618530273,37.245845794677734,0,
 360817,-0.27587890625,-0.93896484375,-0.08447265625,-0.3353658616542816,0.6402438879013062,-0.21341463923454285,25.5,3.1500000953674316,-14.25,37.34169006347656,0,
 360827,-0.277587890625,-0.94189453125,-0.081298828125,-0.4878048896789551,0.6097561120986938,0.21341463923454285,25.649999618530273,2.0999999046325684,-13.649999618530273,37.006229400634766,0,
 360837,-0.2705078125,-0.942138671875,-0.087158203125,-0.5792682766914368,0.09146341681480408,0.396341472864151,25.649999618530273,2.0999999046325684,-13.649999618530273,36.91038513183594,0,
 360847,-0.2783203125,-0.940185546875,-0.08447265625,-1.097561001777649,0.27439025044441223,0.27439025044441223,24.450000762939453,1.5,-13.5,37.006229400634766,0,
 360857,-0.28125,-0.934814453125,-0.087158203125,-0.8231707215309143,0.09146341681480408,0.5792682766914368,24.0,1.5,-12.0,37.245845794677734,0,
 360867,-0.271728515625,-0.934814453125,-0.0908203125,-0.12195122241973877,0.18292683362960815,0.7012194991111755,23.549999237060547,2.700000047683716,-13.050000190734863,37.006229400634766,0,
 360877,-0.275390625,-0.938232421875,-0.0888671875,-0.7012194991111755,0.18292683362960815,0.3353658616542816,23.850000381469727,2.549999952316284,-13.199999809265137,37.006229400634766,0,
 360887,-0.281494140625,-0.93505859375,-0.08837890625,-0.7621951103210449,-0.12195122241973877,0.24390244483947754,23.850000381469727,2.549999952316284,-13.199999809265137,37.10207748413086,0,
 360897,-0.27880859375,-0.936767578125,-0.08447265625,-0.3353658616542816,0.3048780560493469,0.09146341681480408,22.799999237060547,1.0499999523162842,-13.800000190734863,37.10207748413086,0,
 360917,-0.27880859375,-0.944091796875,-0.080322265625,-1.0365853309631348,0.6097561120986938,0.5487805008888245,24.450000762939453,1.9500000476837158,-13.5,37.10207748413086,0,
 360927,-0.272705078125,-0.935546875,-0.08251953125,-0.9146341681480408,1.1890244483947754,0.3658536672592163,24.450000762939453,1.9500000476837158,-13.5,36.91038513183594,0,
 360937,-0.275634765625,-0.940185546875,-0.08544921875,-1.4634146690368652,0.7012194991111755,0.27439025044441223,22.799999237060547,2.25,-13.050000190734863,37.245845794677734,0,
 360947,-0.2734375,-0.93994140625,-0.091552734375,-1.1585365533828735,0.6402438879013062,0.5792682766914368,23.850000381469727,0.15000000596046448,-14.699999809265137,37.19792175292969,0,
 360957,-0.2744140625,-0.930908203125,-0.086181640625,-0.5792682766914368,0.4268292784690857,0.5487805008888245,23.399999618530273,2.0999999046325684,-13.649999618530273,37.34169006347656,0,
 360967,-0.275146484375,-0.9423828125,-0.092041015625,-0.4573170840740204,-0.12195122241973877,0.9146341681480408,24.450000762939453,1.5,-12.300000190734863,37.245845794677734,0,
 360977,-0.275634765625,-0.939453125,-0.090087890625,-0.4573170840740204,-0.12195122241973877,0.792682945728302,24.450000762939453,1.5,-12.300000190734863,37.006229400634766,0,
 360987,-0.271484375,-0.930419921875,-0.091064453125,0.396341472864151,-0.15243902802467346,0.7317073345184326,25.350000381469727,2.0999999046325684,-12.899999618530273,37.19792175292969,0,
 360997,-0.27587890625,-0.935791015625,-0.089111328125,0.6402438879013062,-0.12195122241973877,0.6097561120986938,23.399999618530273,0.8999999761581421,-13.199999809265137,37.34169006347656,0,
 361007,-0.27587890625,-0.946044921875,-0.08447265625,0.09146341681480408,-0.09146341681480408,0.4573170840740204,23.100000381469727,0.15000000596046448,-13.199999809265137,37.006229400634766,0,
 361017,-0.283447265625,-0.939453125,-0.08447265625,0.15243902802467346,-0.15243902802467346,0.0,23.100000381469727,0.15000000596046448,-13.199999809265137,37.19792175292969,0,
 361027,-0.28173828125,-0.9404296875,-0.086181640625,0.0,0.18292683362960815,-0.3048780560493469,24.600000381469727,2.549999952316284,-13.199999809265137,36.86246109008789,0,
 361037,-0.274169921875,-0.94384765625,-0.07763671875,-0.060975611209869385,0.24390244483947754,-0.18292683362960815,25.649999618530273,1.350000023841858,-11.699999809265137,37.34169006347656,0,
 361047,-0.276123046875,-0.941162109375,-0.078369140625,-0.8536585569381714,0.4573170840740204,0.15243902802467346,26.100000381469727,-0.44999998807907104,-14.399999618530273,37.006229400634766,0,
 361057,-0.27099609375,-0.934326171875,-0.088134765625,-1.5548781156539917,1.0670732259750366,0.6097561120986938,24.450000762939453,2.25,-12.0,37.006229400634766,0,
 361067,-0.273681640625,-0.9326171875,-0.0947265625,-1.3719512224197388,0.8231707215309143,0.9451219439506531,24.450000762939453,2.25,-12.0,37.10207748413086,0,
 361077,-0.27587890625,-0.934326171875,-0.0888671875,-0.4878048896789551,0.7317073345184326,1.0365853309631348,24.0,2.700000047683716,-12.0,37.006229400634766,0,
 361087,-0.2734375,-0.935546875,-0.085205078125,-0.3658536672592163,0.6707317233085632,0.6402438879013062,24.899999618530273,1.350000023841858,-14.399999618530273,37.34169006347656,0,
 361097,-0.275634765625,-0.932861328125,-0.08544921875,-0.5487805008888245,0.24390244483947754,0.3658536672592163,24.450000762939453,1.0499999523162842,-13.050000190734863,37.10207748413086,0,
 361107,-0.271240234375,-0.935791015625,-0.08642578125,-0.24390244483947754,0.0,0.21341463923454285,24.0,2.700000047683716,-14.550000190734863,37.10207748413086,0,
 361117,-0.27734375,-0.928466796875,-0.08837890625,-0.6402438879013062,-0.030487805604934692,-0.15243902802467346,23.549999237060547,0.75,-13.5,37.34169006347656,0,
 361127,-0.2744140625,-0.930419921875,-0.09228515625,-0.21341463923454285,0.5792682766914368,-0.12195122241973877,24.0,0.75,-12.300000190734863,36.814537048339844,0,
 361137,-0.27392578125,-0.943359375,-0.087646484375,0.4268292784690857,0.4573170840740204,-0.15243902802467346,23.850000381469727,1.649999976158142,-13.199999809265137,37.10207748413086,0,
 361147,-0.275634765625,-0.94873046875,-0.08349609375,-0.4268292784690857,0.7012194991111755,0.09146341681480408,23.100000381469727,0.8999999761581421,-15.449999809265137,37.245845794677734,0,
 361157,-0.275634765625,-0.9423828125,-0.088134765625,-0.4268292784690857,0.4268292784690857,0.09146341681480408,23.100000381469727,0.8999999761581421,-15.449999809265137,37.245845794677734,0,
 361167,-0.27294921875,-0.940673828125,-0.091796875,-0.27439025044441223,0.6707317233085632,0.6097561120986938,24.450000762939453,0.30000001192092896,-13.050000190734863,37.05415344238281,0,
 361178,-0.275146484375,-0.93994140625,-0.091552734375,0.060975611209869385,0.7012194991111755,0.3658536672592163,23.850000381469727,1.649999976158142,-12.449999809265137,36.91038513183594,0,
 361188,-0.275146484375,-0.938720703125,-0.087890625,-0.12195122241973877,0.24390244483947754,0.4573170840740204,25.200000762939453,1.9500000476837158,-13.5,37.10207748413086,0,
 361198,-0.270751953125,-0.94189453125,-0.084228515625,-0.5487805008888245,0.3048780560493469,0.8231707215309143,24.600000381469727,2.0999999046325684,-12.899999618530273,37.34169006347656,0,
 361208,-0.278564453125,-0.93994140625,-0.084228515625,-0.6402438879013062,0.09146341681480408,0.9756097793579102,24.600000381469727,2.0999999046325684,-12.899999618530273,37.19792175292969,0,
 361218,-0.27978515625,-0.933349609375,-0.094970703125,-0.4268292784690857,0.060975611209869385,0.6707317233085632,23.850000381469727,1.350000023841858,-13.649999618530273,37.245845794677734,0,
 361228,-0.273193359375,-0.932373046875,-0.085205078125,-0.15243902802467346,0.3353658616542816,0.3353658616542816,24.149999618530273,0.44999998807907104,-12.149999618530273,37.245845794677734,0,
 361238,-0.278564453125,-0.9326171875,-0.08154296875,0.4268292784690857,0.396341472864151,0.4268292784690857,24.0,1.5,-12.300000190734863,37.05415344238281,0,
 361248,-0.275146484375,-0.94189453125,-0.079345703125,-0.09146341681480408,0.3048780560493469,-0.3658536672592163,24.0,1.5,-12.300000190734863,37.34169006347656,0,
 361258,-0.27197265625,-0.938720703125,-0.078857421875,-0.8231707215309143,0.396341472864151,-0.24390244483947754,24.899999618530273,2.549999952316284,-13.649999618530273,37.245845794677734,0,
 361268,-0.273681640625,-0.943115234375,-0.073974609375,-1.1585365533828735,0.7012194991111755,-0.18292683362960815,23.549999237060547,1.9500000476837158,-14.550000190734863,37.34169006347656,0,
 361278,-0.272216796875,-0.939453125,-0.078369140625,-1.8292683362960815,0.5792682766914368,-0.060975611209869385,24.450000762939453,1.9500000476837158,-12.75,37.006229400634766,0,
 361288,-0.2734375,-0.937744140625,-0.0859375,-1.8902438879013062,1.0365853309631348,0.27439025044441223,24.600000381469727,1.649999976158142,-12.899999618530273,37.245845794677734,0,
 361298,-0.267578125,-0.933837890625,-0.086181640625,-1.2195122241973877,0.6097561120986938,0.27439025044441223,24.600000381469727,1.649999976158142,-12.899999618530273,37.19792175292969,0,
 361308,-0.270751953125,-0.935302734375,-0.09423828125,-0.9756097793579102,0.7621951103210449,0.3048780560493469,23.549999237060547,2.25,-12.300000190734863,37.19792175292969,0,
 361318,-0.279052734375,-0.9365234375,-0.092529296875,-0.5792682766914368,0.27439025044441223,0.5182926654815674,24.450000762939453,1.9500000476837158,-13.5,37.34169006347656,0,
 361328,-0.272216796875,-0.93017578125,-0.101806640625,0.060975611209869385,0.09146341681480408,-0.060975611209869385,23.399999618530273,2.549999952316284,-13.949999809265137,37.19792175292969,0,
 361338,-0.278564453125,-0.9375,-0.09375,0.8231707215309143,-0.27439025044441223,0.12195122241973877,23.399999618530273,2.549999952316284,-13.949999809265137,37.245845794677734,0,
 361348,-0.27392578125,-0.9375,-0.09228515625,1.3719512224197388,-0.3658536672592163,0.030487805604934692,23.100000381469727,1.350000023841858,-12.899999618530273,37.10207748413086,0,
 361358,-0.27685546875,-0.950927734375,-0.083984375,0.18292683362960815,0.4573170840740204,0.15243902802467346,22.5,1.9500000476837158,-14.550000190734863,37.245845794677734,0,
 361368,-0.274658203125,-0.93798828125,-0.077880859375,0.030487805604934692,0.3353658616542816,0.4268292784690857,24.75,1.5,-13.050000190734863,37.05415344238281,0,
 361378,-0.273193359375,-0.9326171875,-0.083740234375,0.21341463923454285,0.6402438879013062,0.4573170840740204,24.75,2.25,-13.050000190734863,37.34169006347656,0,
 361388,-0.269287109375,-0.93798828125,-0.076171875,-0.6707317233085632,0.4268292784690857,0.27439025044441223,24.75,2.25,-13.050000190734863,37.19792175292969,0,
 361398,-0.27978515625,-0.9384765625,-0.077392578125,-0.9756097793579102,0.6707317233085632,0.396341472864151,23.399999618530273,2.0999999046325684,-11.699999809265137,37.245845794677734,0,
 361408,-0.2744140625,-0.94091796875,-0.0810546875,-1.1585365533828735,0.6402438879013062,0.6097561120986938,24.600000381469727,0.8999999761581421,-12.899999618530273,37.34169006347656,0,
 361418,-0.27490234375,-0.939453125,-0.08251953125,-1.1585365533828735,0.792682945728302,0.5182926654815674,23.549999237060547,1.9500000476837158,-12.0,36.91038513183594,0,
 361428,-0.274169921875,-0.933349609375,-0.0830078125,-0.8536585569381714,0.9146341681480408,-0.060975611209869385,23.549999237060547,1.9500000476837158,-12.0,37.34169006347656,0,
 361438,-0.279541015625,-0.936767578125,-0.08984375,-0.8231707215309143,0.8231707215309143,-0.21341463923454285,23.25,2.700000047683716,-13.050000190734863,37.34169006347656,0,
 361448,-0.274658203125,-0.934814453125,-0.085205078125,-0.4878048896789551,0.4268292784690857,-0.6402438879013062,24.0,2.700000047683716,-13.050000190734863,37.006229400634766,0,
 361458,-0.275146484375,-0.9296875,-0.091064453125,0.0,0.4878048896789551,-0.9146341681480408,25.350000381469727,2.0999999046325684,-16.200000762939453,37.245845794677734,0,
 361468,-0.279052734375,-0.9384765625,-0.082275390625,0.09146341681480408,-0.21341463923454285,-0.8536585569381714,24.600000381469727,2.549999952316284,-12.449999809265137,36.86246109008789,0,
 361478,-0.27978515625,-0.943359375,-0.084228515625,-0.3048780560493469,0.09146341681480408,-1.432926893234253,24.600000381469727,2.549999952316284,-12.449999809265137,37.245845794677734,0,
 361488,-0.27294921875,-0.96142578125,-0.08251953125,-1.8597561120986938,-0.6402438879013062,-0.792682945728302,24.0,1.9500000476837158,-12.0,37.245845794677734,0,
 361498,-0.28369140625,-0.928955078125,-0.08154296875,-0.6402438879013062,0.24390244483947754,-0.3658536672592163,22.649999618530273,0.8999999761581421,-12.449999809265137,37.34169006347656,0,
 361508,-0.280517578125,-0.939453125,-0.080078125,-0.6707317233085632,0.6402438879013062,-0.09146341681480408,24.450000762939453,2.25,-12.300000190734863,37.34169006347656,0,
 361518,-0.2685546875,-0.941162109375,-0.088623046875,-0.5487805008888245,0.9451219439506531,0.6402438879013062,24.450000762939453,2.25,-12.300000190734863,37.10207748413086,0,
 361528,-0.26806640625,-0.931884765625,-0.0849609375,-1.0365853309631348,1.0670732259750366,0.8841463327407837,23.549999237060547,1.5,-13.050000190734863,37.38961410522461,0,
 361538,-0.264892578125,-0.931396484375,-0.097412109375,0.030487805604934692,0.7012194991111755,0.396341472864151,24.0,1.9500000476837158,-12.300000190734863,37.245845794677734,0,
 361548,-0.27392578125,-0.94287109375,-0.08740234375,0.12195122241973877,0.5792682766914368,0.8841463327407837,24.0,0.75,-14.25,37.245845794677734,0,
 361558,-0.274658203125,-0.93505859375,-0.086669921875,0.12195122241973877,-0.3048780560493469,0.18292683362960815,25.950000762939453,1.9500000476837158,-16.799999237060547,37.533382415771484,0,
 361568,-0.2724609375,-0.939453125,-0.08740234375,0.21341463923454285,-0.21341463923454285,0.060975611209869385,25.950000762939453,1.9500000476837158,-16.799999237060547,37.006229400634766,0,
 361578,-0.27587890625,-0.94384765625,-0.0830078125,0.396341472864151,-0.27439025044441223,0.3048780560493469,23.549999237060547,0.75,-13.800000190734863,37.10207748413086,0,
 361588,-0.276123046875,-0.941162109375,-0.086669921875,0.15243902802467346,0.18292683362960815,-0.030487805604934692,23.850000381469727,2.0999999046325684,-13.649999618530273,37.245845794677734,0,
 361598,-0.272705078125,-0.943115234375,-0.091064453125,0.21341463923454285,0.5182926654815674,0.09146341681480408,23.399999618530273,1.350000023841858,-12.149999618530273,37.10207748413086,0,
 361608,-0.272705078125,-0.940185546875,-0.086669921875,-0.060975611209869385,0.7621951103210449,-0.060975611209869385,23.399999618530273,1.350000023841858,-12.149999618530273,37.10207748413086,0,
 361618,-0.2626953125,-0.9404296875,-0.086669921875,0.15243902802467346,0.3353658616542816,0.4268292784690857,23.549999237060547,1.5,-13.5,37.006229400634766,0,
 361628,-0.27001953125,-0.94140625,-0.078369140625,-0.15243902802467346,-0.12195122241973877,-0.12195122241973877,22.649999618530273,1.649999976158142,-11.399999618530273,37.245845794677734,0,
 361638,-0.278076171875,-0.94287109375,-0.08349609375,-0.3658536672592163,-0.4268292784690857,0.396341472864151,23.549999237060547,1.9500000476837158,-12.300000190734863,37.34169006347656,0,
 361648,-0.27099609375,-0.939453125,-0.087646484375,-0.12195122241973877,-0.3353658616542816,0.15243902802467346,24.0,1.9500000476837158,-13.050000190734863,37.245845794677734,0,
 361658,-0.27197265625,-0.9365234375,-0.08056640625,0.21341463923454285,-0.12195122241973877,0.7317073345184326,24.0,1.9500000476837158,-13.050000190734863,37.05415344238281,0,
 361668,-0.272216796875,-0.94775390625,-0.085205078125,0.09146341681480408,0.09146341681480408,0.4268292784690857,24.75,1.9500000476837158,-14.25,37.006229400634766,0,
 361678,-0.273193359375,-0.9326171875,-0.083740234375,-0.4573170840740204,-0.09146341681480408,0.5792682766914368,22.5,1.9500000476837158,-13.050000190734863,37.34169006347656,0,
 361688,-0.27734375,-0.931640625,-0.086181640625,-0.4878048896789551,0.27439025044441223,0.18292683362960815,23.100000381469727,1.350000023841858,-13.949999809265137,37.05415344238281,0,
 361698,-0.278076171875,-0.939453125,-0.075439453125,0.0,0.0,0.030487805604934692,23.100000381469727,1.350000023841858,-13.949999809265137,37.34169006347656,0,
 361708,-0.276123046875,-0.93310546875,-0.083984375,-0.396341472864151,0.15243902802467346,-0.09146341681480408,22.799999237060547,1.9500000476837158,-13.050000190734863,37.245845794677734,0,
 361718,-0.271240234375,-0.936767578125,-0.073974609375,-0.8536585569381714,0.27439025044441223,-0.5487805008888245,24.450000762939453,2.25,-12.75,37.006229400634766,0,
 361728,-0.269775390625,-0.939208984375,-0.078857421875,-0.5792682766914368,0.3353658616542816,-0.21341463923454285,24.149999618530273,2.549999952316284,-12.899999618530273,37.245845794677734,0,
 361738,-0.268310546875,-0.935791015625,-0.083740234375,-0.9756097793579102,0.396341472864151,0.15243902802467346,24.899999618530273,2.8499999046325684,-12.149999618530273,37.006229400634766,0,
 361748,-0.27490234375,-0.93994140625,-0.08447265625,-0.6402438879013062,1.097561001777649,0.3658536672592163,24.899999618530273,2.8499999046325684,-12.149999618530273,37.34169006347656,0,
 361758,-0.2666015625,-0.940185546875,-0.0859375,-0.6402438879013062,0.6707317233085632,0.5487805008888245,22.5,1.9500000476837158,-14.25,37.05415344238281,0,
 361768,-0.26953125,-0.934814453125,-0.089111328125,-0.7621951103210449,0.27439025044441223,0.5487805008888245,22.5,0.75,-14.550000190734863,36.91038513183594,0,
 361778,-0.27294921875,-0.931884765625,-0.091064453125,-0.18292683362960815,0.09146341681480408,0.15243902802467346,23.399999618530273,2.549999952316284,-13.649999618530273,37.19792175292969,0,
 361788,-0.274658203125,-0.939453125,-0.087158203125,0.27439025044441223,-0.030487805604934692,0.3048780560493469,23.399999618530273,2.549999952316284,-13.649999618530273,37.006229400634766,0,
 361798,-0.27880859375,-0.950927734375,-0.08447265625,0.4573170840740204,-0.6402438879013062,0.27439025044441223,24.149999618530273,2.0999999046325684,-13.649999618530273,37.05415344238281,0,
 361808,-0.276611328125,-0.941162109375,-0.087158203125,0.4573170840740204,-0.24390244483947754,0.12195122241973877,23.850000381469727,2.8499999046325684,-12.899999618530273,37.245845794677734,0,
 361818,-0.27294921875,-0.94384765625,-0.081787109375,0.12195122241973877,-0.060975611209869385,0.24390244483947754,24.75,2.700000047683716,-12.75,37.245845794677734,0,
 361828,-0.279296875,-0.947998046875,-0.08251953125,-0.3353658616542816,0.21341463923454285,0.060975611209869385,23.850000381469727,1.649999976158142,-12.899999618530273,37.05415344238281,0,
 361838,-0.280029296875,-0.940673828125,-0.076171875,-0.6707317233085632,0.8231707215309143,0.0,23.850000381469727,1.649999976158142,-12.899999618530273,37.19792175292969,0,
 361848,-0.28076171875,-0.936767578125,-0.073486328125,-0.8231707215309143,1.4634146690368652,0.3353658616542816,25.5,2.25,-13.5,37.245845794677734,0,
 361858,-0.271728515625,-0.941162109375,-0.07275390625,-0.8536585569381714,1.0365853309631348,0.3658536672592163,25.200000762939453,3.9000000953674316,-16.5,37.006229400634766,0,
 361868,-0.275634765625,-0.94091796875,-0.078369140625,-1.1890244483947754,1.1890244483947754,-0.15243902802467346,24.899999618530273,2.549999952316284,-16.200000762939453,37.34169006347656,0,
 361878,-0.27294921875,-0.935546875,-0.081298828125,-1.6463414430618286,1.097561001777649,-0.18292683362960815,24.899999618530273,2.549999952316284,-16.200000762939453,37.245845794677734,0,
 361888,-0.26806640625,-0.933349609375,-0.090576171875,-0.9756097793579102,0.7621951103210449,-0.030487805604934692,24.75,1.9500000476837158,-13.5,37.245845794677734,0,
 361898,-0.260498046875,-0.931396484375,-0.093017578125,-0.27439025044441223,0.5487805008888245,-0.060975611209869385,23.549999237060547,2.25,-14.25,37.38961410522461,0,
 361908,-0.266845703125,-0.926513671875,-0.099365234375,0.27439025044441223,0.4878048896789551,-0.12195122241973877,24.0,2.700000047683716,-13.050000190734863,37.10207748413086,0,
 361918,-0.261474609375,-0.9306640625,-0.097412109375,0.9756097793579102,-0.060975611209869385,0.09146341681480408,23.100000381469727,1.350000023841858,-12.449999809265137,37.006229400634766,0,
 361928,-0.267333984375,-0.936767578125,-0.087890625,1.25,-0.3353658616542816,-0.18292683362960815,23.100000381469727,1.350000023841858,-12.449999809265137,37.19792175292969,0,
 361938,-0.2666015625,-0.946044921875,-0.09326171875,1.1585365533828735,-0.792682945728302,-0.15243902802467346,22.049999237060547,4.349999904632568,-12.0,37.245845794677734,0,
 361948,-0.271728515625,-0.950927734375,-0.0849609375,0.4573170840740204,-1.3109756708145142,-0.27439025044441223,24.149999618530273,0.8999999761581421,-13.649999618530273,37.10207748413086,0,
 361958,-0.274658203125,-0.93310546875,-0.0888671875,0.5182926654815674,-0.9451219439506531,-0.4268292784690857,23.100000381469727,2.549999952316284,-12.899999618530273,37.006229400634766,0,
 361968,-0.27734375,-0.947021484375,-0.071044921875,0.7621951103210449,-0.3658536672592163,-0.3353658616542816,23.100000381469727,2.549999952316284,-12.899999618530273,37.245845794677734,0,
 361978,-0.262939453125,-0.962646484375,-0.06884765625,-0.15243902802467346,-0.3353658616542816,-0.3353658616542816,23.850000381469727,2.8499999046325684,-13.949999809265137,37.05415344238281,0,
 361988,-0.281982421875,-0.9404296875,-0.061279296875,-1.6768293380737305,-0.5487805008888245,0.21341463923454285,24.450000762939453,1.5,-12.75,37.245845794677734,0,
 361999,-0.28564453125,-0.93359375,-0.06689453125,-1.737804889678955,0.060975611209869385,-0.030487805604934692,24.149999618530273,1.350000023841858,-14.399999618530273,37.245845794677734,0,
 362009,-0.279296875,-0.943359375,-0.07470703125,-1.1585365533828735,0.9146341681480408,-0.6707317233085632,23.549999237060547,2.25,-12.300000190734863,37.006229400634766,0,
 362019,-0.276611328125,-0.940673828125,-0.07373046875,-1.9512195587158203,1.7682926654815674,-0.4878048896789551,23.549999237060547,2.25,-12.300000190734863,37.245845794677734,0,
 362029,-0.274169921875,-0.930908203125,-0.078369140625,-2.7134146690368652,1.8597561120986938,-0.6707317233085632,25.5,2.700000047683716,-14.550000190734863,37.19792175292969,0,
 362039,-0.26513671875,-0.9296875,-0.087158203125,-2.3475611209869385,1.5548781156539917,-0.6707317233085632,25.200000762939453,2.25,-13.800000190734863,37.10207748413086,0,
 362049,-0.274169921875,-0.93408203125,-0.09228515625,-1.0670732259750366,1.1280487775802612,-0.27439025044441223,24.0,3.1500000953674316,-12.0,37.19792175292969,0,
 362059,-0.2646484375,-0.934326171875,-0.1005859375,-1.1890244483947754,1.0670732259750366,-0.792682945728302,24.0,3.1500000953674316,-12.0,37.006229400634766,0,
 362069,-0.27001953125,-0.928955078125,-0.0986328125,-0.3048780560493469,1.402438998222351,-1.1585365533828735,24.899999618530273,2.8499999046325684,-13.949999809265137,37.05415344238281,0,
