timestamp,accl_x,accl_y,accl_z,gyro_x,gyro_y,gyro_z,mag_x,mag_y,mag_z,temp,emg,
 335761,-0.156982421875,-0.9599609375,-0.233642578125,0.7317073345184326,-0.6402438879013062,5.27439022064209,22.049999237060547,2.700000047683716,-6.75,40.21706008911133,0,
 335771,-0.164794921875,-0.94873046875,-0.232177734375,2.378048896789551,-1.8597561120986938,6.189024448394775,20.549999237060547,3.9000000953674316,-6.0,39.977447509765625,0,
 335781,-0.173828125,-0.948974609375,-0.2275390625,3.7804877758026123,-2.7439024448394775,5.579268455505371,21.450000762939453,6.0,-7.650000095367432,40.16913604736328,0,
 335791,-0.177734375,-0.941650390625,-0.238037109375,5.54878044128418,-3.841463565826416,5.457317352294922,21.450000762939453,6.0,-7.650000095367432,40.3608283996582,0,
 335801,-0.12939453125,-0.823974609375,-0.305419921875,7.378048896789551,-2.804877996444702,3.9939024448394775,21.899999618530273,4.050000190734863,-4.949999809265137,40.025367736816406,0,
 335811,-0.234130859375,-1.019775390625,-0.281982421875,25.121952056884766,7.865853786468506,11.219511985778809,21.149999618530273,2.8499999046325684,-7.199999809265137,40.3608283996582,0,
 335821,-0.18896484375,-1.1865234375,0.008544921875,22.2560977935791,9.45121955871582,9.207317352294922,22.200000762939453,3.75,-4.949999809265137,40.3608283996582,0,
 335831,-0.089111328125,-1.041259765625,-0.047607421875,-16.463415145874023,-6.920732021331787,6.036585330963135,19.950000762939453,4.5,-7.199999809265137,40.16913604736328,0,
 335841,-0.172119140625,-0.786376953125,-0.347900390625,-3.9024391174316406,-5.27439022064209,3.170731782913208,19.950000762939453,4.5,-7.199999809265137,40.264984130859375,0,
 335851,-0.159912109375,-0.76904296875,-0.445556640625,15.731707572937012,-3.8719513416290283,0.0,21.149999618530273,4.050000190734863,-6.150000095367432,40.21706008911133,0,
 335861,-0.117919921875,-0.856201171875,-0.24658203125,21.463415145874023,-9.237805366516113,-1.1585365533828735,21.450000762939453,3.299999952316284,-4.650000095367432,40.025367736816406,0,
 335871,-0.14892578125,-1.042236328125,-0.072509765625,6.036585330963135,-14.054878234863281,-2.1341464519500732,21.299999237060547,3.9000000953674316,-8.25,40.3608283996582,0,
 335881,-0.203125,-1.00390625,-0.128173828125,-1.9817073345184326,-10.792683601379395,-1.8597561120986938,21.299999237060547,3.9000000953674316,-8.25,40.3608283996582,0,
 335891,-0.21044921875,-0.907470703125,-0.20458984375,0.3048780560493469,-3.9634146690368652,-1.2804877758026123,21.75,2.700000047683716,-6.300000190734863,40.07329177856445,0,
 335901,-0.185791015625,-0.904052734375,-0.188720703125,2.4390244483947754,0.9146341681480408,-0.6707317233085632,21.899999618530273,2.8499999046325684,-6.449999809265137,40.40875244140625,0,
 335911,-0.171630859375,-0.98828125,-0.142333984375,-5.182927131652832,4.115853786468506,-0.5182926654815674,20.549999237060547,3.450000047683716,-4.800000190734863,40.07329177856445,0,
 335921,-0.204345703125,-1.002685546875,-0.127197265625,-15.091464042663574,7.896341800689697,-2.012195110321045,20.549999237060547,3.450000047683716,-4.800000190734863,40.16913604736328,0,
 335931,-0.21044921875,-0.987548828125,-0.153076171875,-20.70121955871582,10.518293380737305,-3.658536672592163,22.200000762939453,4.050000190734863,-6.150000095367432,40.16913604736328,0,
 335941,-0.18359375,-0.962646484375,-0.1806640625,-23.170732498168945,12.5,-4.1768293380737305,21.75,3.9000000953674316,-5.550000190734863,40.16913604736328,0,
 335951,-0.16943359375,-0.959228515625,-0.22705078125,-21.0060977935791,12.256097793579102,-2.896341562271118,21.299999237060547,2.25,-4.050000190734863,40.21706008911133,0,
 335961,-0.16748046875,-0.94580078125,-0.249267578125,-16.64634132385254,11.036585807800293,-0.9146341681480408,21.299999237060547,2.25,-4.050000190734863,40.16913604736328,0,
 335971,-0.156982421875,-0.921630859375,-0.267822265625,-9.085366249084473,8.536585807800293,0.6707317233085632,21.149999618530273,4.050000190734863,-4.199999809265137,40.16913604736328,0,
 335981,-0.154052734375,-0.9111328125,-0.284912109375,-0.09146341681480408,5.030488014221191,2.6524391174316406,21.299999237060547,5.400000095367432,-7.050000190734863,40.3608283996582,0,
 335991,-0.1357421875,-0.920166015625,-0.287841796875,6.737804889678955,0.3048780560493469,4.237804889678955,21.0,3.9000000953674316,-5.550000190734863,40.40875244140625,0,
 336001,-0.14892578125,-0.913818359375,-0.249267578125,10.487805366516113,-5.457317352294922,5.030488014221191,21.299999237060547,4.650000095367432,-6.300000190734863,40.3608283996582,0,
 336011,-0.1708984375,-0.906005859375,-0.24462890625,13.170731544494629,-9.268292427062988,3.1097562313079834,21.299999237060547,4.650000095367432,-6.300000190734863,39.977447509765625,0,
 336021,-0.170654296875,-0.901123046875,-0.21337890625,15.42682933807373,-11.219511985778809,0.4573170840740204,21.299999237060547,3.1500000953674316,-6.0,40.16913604736328,0,
 336031,-0.158935546875,-0.958740234375,-0.197509765625,15.914634704589844,-12.134146690368652,-1.3719512224197388,21.299999237060547,3.9000000953674316,-6.0,40.07329177856445,0,
 336041,-0.19384765625,-0.912353515625,-0.181884765625,12.286585807800293,-11.554878234863281,-1.3719512224197388,22.049999237060547,3.450000047683716,-9.0,40.21706008911133,0,
 336051,-0.219970703125,-0.95166015625,-0.137451171875,8.231707572937012,-7.439024448394775,-4.2682929039001465,22.049999237060547,3.450000047683716,-9.0,40.3608283996582,0,
 336061,-0.210693359375,-1.01171875,-0.14013671875,2.6524391174316406,-1.25,-6.310975551605225,21.299999237060547,4.349999904632568,-7.800000190734863,39.977447509765625,0,
 336071,-0.139404296875,-1.082275390625,-0.17041015625,-2.2865853309631348,3.4146342277526855,-2.4695122241973877,21.149999618530273,5.699999809265137,-6.150000095367432,40.264984130859375,0,
 336081,-0.107421875,-1.02392578125,-0.234619140625,-7.469512462615967,3.170731782913208,8.109756469726562,21.75,4.349999904632568,-6.75,40.3608283996582,0,
 336091,-0.1220703125,-1.12646484375,-0.24267578125,-4.054878234863281,0.3353658616542816,21.707317352294922,21.75,4.349999904632568,-6.75,40.3608283996582,0,
 336101,-0.12353515625,-1.1982421875,-0.255126953125,-4.45121955871582,-6.737804889678955,35.73170852661133,22.5,3.450000047683716,-6.75,40.21706008911133,0,
 336111,-0.13916015625,-1.278076171875,-0.21484375,-4.1768293380737305,-18.35365867614746,52.164634704589844,21.299999237060547,2.700000047683716,-6.75,40.16913604736328,0,
 336121,-0.274658203125,-1.480224609375,-0.31689453125,-6.95121955871582,-24.542682647705078,74.45121765136719,23.25,2.25,-7.050000190734863,40.16913604736328,0,
 336131,-0.21533203125,-1.29638671875,-0.198974609375,-24.176830291748047,-36.585365295410156,105.18292999267578,23.25,2.25,-7.050000190734863,40.025367736816406,0,
 336141,-0.297607421875,-1.222412109375,-0.256103515625,-31.64634132385254,-45.73170852661133,111.1280517578125,25.5,1.5,-11.25,40.264984130859375,0,
 336151,-0.309326171875,-1.04833984375,-0.135498046875,-26.341463088989258,-53.75,127.53048706054688,24.600000381469727,1.350000023841858,-7.199999809265137,40.21706008911133,0,
 336161,-0.331787109375,-0.97900390625,-0.20361328125,-23.53658676147461,-61.067073822021484,133.41464233398438,24.600000381469727,2.0999999046325684,-6.900000095367432,40.025367736816406,0,
 336171,-0.3759765625,-0.9150390625,-0.157958984375,-9.085366249084473,-57.80487823486328,125.91463470458984,26.100000381469727,0.44999998807907104,-7.650000095367432,40.16913604736328,0,
 336181,-0.38134765625,-0.825927734375,-0.15283203125,7.957317352294922,-51.18902587890625,101.73780822753906,27.0,0.0,-6.300000190734863,40.3608283996582,0,
 336191,-0.476318359375,-0.859375,-0.1533203125,19.329269409179688,-39.57317352294922,78.20121765136719,26.549999237060547,-2.0999999046325684,-6.150000095367432,40.264984130859375,0,
 336201,-0.34716796875,-0.737548828125,-0.097412109375,12.408536911010742,-17.012195587158203,51.85975646972656,26.700000762939453,-1.5,-9.300000190734863,40.40875244140625,0,
 336211,-0.184326171875,-0.53173828125,-0.08984375,-6.036585330963135,-9.329268455505371,38.07926940917969,28.049999237060547,-0.8999999761581421,-8.399999618530273,40.025367736816406,0,
 336221,-0.099853515625,-0.246337890625,-0.0361328125,-29.481708526611328,-16.219512939453125,46.67683029174805,28.049999237060547,-0.8999999761581421,-8.399999618530273,40.07329177856445,0,
 336231,-0.13525390625,-0.18408203125,-0.103271484375,-25.30487823486328,-27.5,55.853660583496094,28.950000762939453,-3.450000047683716,-7.800000190734863,40.16913604736328,0,
 336241,-0.26611328125,-0.548095703125,-0.310546875,-6.554878234863281,-29.93902587890625,50.97561264038086,28.200000762939453,0.0,-12.300000190734863,39.977447509765625,0,
 336251,-0.249267578125,-0.7041015625,-0.41357421875,-16.676830291748047,-13.993903160095215,32.713417053222656,29.399999618530273,-3.1500000953674316,-9.300000190734863,40.21706008911133,0,
 336261,-0.147216796875,-0.44140625,-0.3310546875,-33.84146499633789,2.77439022064209,10.579268455505371,29.399999618530273,-3.1500000953674316,-9.300000190734863,40.07329177856445,0,
 336271,-0.132080078125,-0.4443359375,-0.275634765625,-17.65243911743164,4.1768293380737305,-4.634146213531494,30.75,-3.299999952316284,-8.399999618530273,40.21706008911133,0,
 336281,-0.14208984375,-0.62353515625,-0.18603515625,-0.8231707215309143,1.9817073345184326,-11.37195110321045,28.950000762939453,-1.9500000476837158,-8.25,40.264984130859375,0,
 336291,-0.22314453125,-0.4921875,0.008056640625,3.75,20.33536720275879,-26.03658676147461,27.600000381469727,-2.549999952316284,-7.949999809265137,40.16913604736328,0,
 336301,-0.39501953125,-0.61767578125,-0.18017578125,23.93292808532715,22.530488967895508,-21.73780632019043,27.600000381469727,-2.549999952316284,-7.949999809265137,39.88159942626953,0,
 336311,-0.57080078125,-0.978271484375,-0.143310546875,21.0060977935791,22.80487823486328,-15.884146690368652,28.799999237060547,-1.649999976158142,-8.399999618530273,40.16913604736328,0,
 336321,-0.35498046875,-1.15625,-0.25341796875,17.926830291748047,17.19512176513672,3.262195110321045,28.950000762939453,-1.5,-7.5,40.264984130859375,0,
 336331,-0.272216796875,-1.272705078125,-0.26025390625,5.670732021331787,12.408536911010742,18.628049850463867,27.0,-1.5,-9.0,40.025367736816406,0,
 336341,-2.628173828125,-3.091552734375,-1.212646484375,-47.8658561706543,-21.920732498168945,-86.06707763671875,27.450000762939453,-1.0499999523162842,-7.050000190734863,39.977447509765625,0,
 336352,-0.985107421875,-1.123779296875,0.177978515625,-70.70121765136719,17.987804412841797,-0.5487805008888245,27.299999237060547,-3.299999952316284,-7.949999809265137,40.16913604736328,0,
 336362,-1.035400390625,-0.32861328125,0.02587890625,8.567073822021484,14.29878044128418,6.615853786468506,26.850000381469727,-2.549999952316284,-7.199999809265137,40.16913604736328,0,
 336372,-0.051513671875,-0.808349609375,-0.13818359375,15.396342277526855,-0.5182926654815674,22.957317352294922,28.350000381469727,-1.649999976158142,-7.199999809265137,40.264984130859375,0,
 336382,0.095703125,-0.9619140625,-0.2373046875,-5.152439117431641,-19.573171615600586,64.45121765136719,28.950000762939453,-1.9500000476837158,-6.75,40.40875244140625,0,
 336392,-0.661865234375,-1.326416015625,-0.4365234375,-18.658536911010742,-28.658536911010742,48.59756088256836,28.950000762939453,-1.9500000476837158,-6.75,40.16913604736328,0,
 336402,-0.400634765625,-0.798583984375,-0.249267578125,-2.591463565826416,-31.615854263305664,61.43292999267578,29.100000381469727,-3.299999952316284,-7.650000095367432,40.025367736816406,0,
 336412,-0.64697265625,-1.149658203125,-0.198974609375,-17.621952056884766,-24.78658676147461,42.103660583496094,29.850000381469727,-2.549999952316284,-7.199999809265137,40.16913604736328,0,
 336422,-0.17919921875,-0.573486328125,-0.13818359375,-3.841463565826416,-26.524391174316406,53.32317352294922,30.899999618530273,-2.25,-9.0,40.07329177856445,0,
 336432,-0.29248046875,-0.713134765625,-0.256591796875,2.6524391174316406,-23.292682647705078,47.95731735229492,30.899999618530273,-2.25,-9.0,40.264984130859375,0,
 336442,-0.40625,-0.829833984375,-0.26708984375,1.8597561120986938,-25.060976028442383,39.14634323120117,31.200000762939453,-4.349999904632568,-9.300000190734863,40.16913604736328,0,
 336452,-0.512451171875,-0.705322265625,-0.25244140625,6.554878234863281,-23.628049850463867,30.426830291748047,29.700000762939453,-3.9000000953674316,-10.5,40.07329177856445,0,
 336462,-0.491943359375,-0.689697265625,-0.183837890625,9.634146690368652,-18.475610733032227,18.04878044128418,30.450000762939453,-3.9000000953674316,-9.0,40.3608283996582,0,
 336472,-0.420166015625,-0.7060546875,-0.128662109375,10.579268455505371,-13.384146690368652,7.378048896789551,30.450000762939453,-3.9000000953674316,-9.0,40.16913604736328,0,
 336482,-0.403564453125,-0.745849609375,-0.1474609375,8.353658676147461,-11.52439022064209,0.3658536672592163,31.200000762939453,-3.450000047683716,-8.550000190734863,40.16913604736328,0,
 336492,-0.506103515625,-0.83154296875,-0.158447265625,6.615853786468506,-9.329268455505371,-4.054878234863281,29.700000762939453,-4.349999904632568,-9.75,40.264984130859375,0,
 336502,-0.5166015625,-0.897216796875,-0.1767578125,5.731707572937012,-4.634146213531494,-11.554878234863281,30.149999618530273,-3.1500000953674316,-9.0,40.025367736816406,0,
 336512,-0.469482421875,-0.844482421875,-0.137451171875,2.6219513416290283,1.5548781156539917,-16.036584854125977,30.299999237060547,-4.050000190734863,-7.650000095367432,40.3608283996582,0,
 336522,-0.419189453125,-0.825927734375,-0.121826171875,4.329268455505371,5.54878044128418,-17.591463088989258,29.399999618530273,-2.700000047683716,-8.25,40.07329177856445,0,
 336532,-0.45947265625,-0.873046875,-0.19091796875,4.512195110321045,9.237805366516113,-16.890243530273438,29.549999237060547,-3.299999952316284,-9.449999809265137,39.977447509765625,0,
 336542,-0.494140625,-0.8056640625,-0.184814453125,1.5548781156539917,12.37804889678955,-20.792682647705078,29.100000381469727,-2.8499999046325684,-9.149999618530273,40.3608283996582,0,
 336552,-0.457763671875,-0.761962890625,-0.13330078125,0.9451219439506531,18.75,-26.89024543762207,30.149999618530273,-3.1500000953674316,-12.75,40.07329177856445,0,
 336562,-0.372802734375,-0.935791015625,-0.140869140625,0.8841463327407837,23.04878044128418,-30.09146499633789,30.149999618530273,-3.1500000953674316,-12.75,40.07329177856445,0,
 336572,-0.32568359375,-1.005126953125,-0.161376953125,-7.835366249084473,20.33536720275879,-26.615854263305664,29.850000381469727,-2.549999952316284,-7.650000095367432,40.21706008911133,0,
 336582,-0.279052734375,-0.98974609375,-0.24462890625,-17.378049850463867,18.140243530273438,-15.640244483947754,29.850000381469727,-2.8499999046325684,-8.699999809265137,40.16913604736328,0,
 336592,-0.416748046875,-1.1171875,-0.27783203125,-13.414634704589844,12.07317066192627,-1.2804877758026123,29.700000762939453,-2.25,-7.5,39.88159942626953,0,
 336602,-0.3681640625,-0.953125,-0.317138671875,-18.018293380737305,8.32317066192627,3.445122003555298,29.700000762939453,-2.25,-7.5,40.025367736816406,0,
 336612,-0.371826171875,-0.88671875,-0.282958984375,-5.640244007110596,2.0426828861236572,12.134146690368652,28.350000381469727,-1.649999976158142,-7.199999809265137,40.3608283996582,0,
 336622,-0.350830078125,-0.89404296875,-0.302978515625,2.804877996444702,-5.0,19.542682647705078,29.100000381469727,-2.549999952316284,-6.449999809265137,40.3608283996582,0,
 336632,-0.330078125,-0.859619140625,-0.336669921875,6.95121955871582,-11.40243911743164,23.93292808532715,29.399999618530273,-2.25,-7.5,40.21706008911133,0,
 336642,-0.39501953125,-0.85400390625,-0.287109375,14.603658676147461,-18.567073822021484,26.219512939453125,29.399999618530273,-2.25,-7.5,40.3608283996582,0,
 336692,-0.5166015625,-0.81591796875,-0.138916015625,4.542683124542236,-12.195121765136719,0.9146341681480408,31.649999618530273,-2.700000047683716,-9.300000190734863,40.16913604736328,0,
 336702,-0.490234375,-0.79052734375,-0.115234375,2.103658676147461,-4.939024448394775,-6.219512462615967,30.149999618530273,-3.1500000953674316,-9.300000190734863,40.025367736816406,0,
 336712,-0.486083984375,-0.790771484375,-0.108642578125,2.103658676147461,1.2195122241973877,-13.993903160095215,30.149999618530273,-4.650000095367432,-9.75,40.3608283996582,0,
 336722,-0.522216796875,-0.796142578125,-0.120849609375,1.7073171138763428,7.286585330963135,-21.310976028442383,28.049999237060547,-3.299999952316284,-8.699999809265137,40.21706008911133,0,
 336732,-0.54541015625,-0.752685546875,-0.142333984375,-1.7682926654815674,15.213415145874023,-31.219512939453125,28.049999237060547,-3.299999952316284,-8.699999809265137,40.21706008911133,0,
 336742,-0.51318359375,-0.744140625,-0.143798828125,-1.8902438879013062,24.23780632019043,-43.628047943115234,28.799999237060547,-3.299999952316284,-7.650000095367432,40.07329177856445,0,
 336752,-0.44775390625,-0.754150390625,-0.142578125,-1.5548781156539917,35.335365295410156,-66.58536529541016,29.100000381469727,-1.649999976158142,-9.149999618530273,40.50459671020508,0,
 336762,-0.38671875,-0.84912109375,-0.1572265625,-6.79878044128418,35.42683029174805,-69.66463470458984,27.299999237060547,-0.44999998807907104,-9.449999809265137,40.21706008911133,0,
 336772,-0.329833984375,-0.93798828125,-0.2060546875,-10.304878234863281,30.975610733032227,-66.43292999267578,27.299999237060547,-0.44999998807907104,-9.449999809265137,40.21706008911133,0,
 336782,-0.2802734375,-0.989013671875,-0.237548828125,-12.5,27.13414764404297,-58.07926940917969,27.75,-3.9000000953674316,-7.5,40.21706008911133,0,
 336792,-0.25830078125,-0.970947265625,-0.2861328125,-8.353658676147461,23.323171615600586,-46.371952056884766,27.299999237060547,0.44999998807907104,-8.399999618530273,40.07329177856445,0,
 336802,-0.243408203125,-0.980712890625,-0.287109375,-4.45121955871582,15.914634704589844,-33.75,27.450000762939453,-1.9500000476837158,-8.550000190734863,40.07329177856445,0,
 336812,-0.22021484375,-0.999267578125,-0.272705078125,-3.0182926654815674,5.731707572937012,-21.79878044128418,27.450000762939453,-1.9500000476837158,-8.550000190734863,40.16913604736328,0,
 336822,-0.240966796875,-1.01123046875,-0.285400390625,-0.5182926654815674,-2.408536672592163,-10.304878234863281,26.850000381469727,0.44999998807907104,-6.449999809265137,40.21706008911133,0,
 336832,-0.278564453125,-0.973388671875,-0.296142578125,6.615853786468506,-7.1646342277526855,0.8231707215309143,25.5,0.75,-8.550000190734863,40.21706008911133,0,
 336842,-0.37841796875,-1.028564453125,-0.30126953125,7.042683124542236,-9.87804889678955,12.134146690368652,27.299999237060547,-0.44999998807907104,-6.900000095367432,40.264984130859375,0,
 336852,-0.346923828125,-0.981689453125,-0.23193359375,8.262195587158203,-10.731707572937012,15.030488014221191,27.299999237060547,-0.44999998807907104,-6.900000095367432,40.21706008911133,0,
 336862,-0.3935546875,-1.0302734375,-0.23828125,5.060975551605225,-14.115854263305664,17.68292808532715,28.049999237060547,-0.44999998807907104,-6.449999809265137,40.07329177856445,0,
 336872,-0.380126953125,-1.03271484375,-0.222900390625,0.24390244483947754,-15.182927131652832,17.80487823486328,27.450000762939453,0.0,-7.800000190734863,40.16913604736328,0,
 336882,-0.3955078125,-0.978271484375,-0.23388671875,-1.7073171138763428,-15.670732498168945,16.4939022064209,28.799999237060547,-0.15000000596046448,-7.199999809265137,40.3608283996582,0,
 336892,-0.41064453125,-0.9677734375,-0.252685546875,-4.786585330963135,-15.243903160095215,15.70121955871582,28.950000762939453,-0.75,-7.050000190734863,40.21706008911133,0,
 336902,-0.418212890625,-0.959228515625,-0.263916015625,-9.634146690368652,-14.268293380737305,15.182927131652832,29.700000762939453,-0.75,-7.050000190734863,40.07329177856445,0,
 336912,-0.421142578125,-0.88623046875,-0.260009765625,-7.469512462615967,-14.390244483947754,14.237805366516113,28.200000762939453,-1.9500000476837158,-7.050000190734863,40.3608283996582,0,
 336922,-0.41064453125,-0.893310546875,-0.2333984375,-6.280488014221191,-11.981707572937012,13.567073822021484,28.200000762939453,-0.75,-8.25,40.40875244140625,0,
 336932,-0.377197265625,-0.861083984375,-0.21044921875,-7.1646342277526855,-10.640244483947754,12.713415145874023,28.950000762939453,-1.0499999523162842,-8.25,40.07329177856445,0,
 336942,-0.330322265625,-0.849365234375,-0.20947265625,-6.280488014221191,-10.396341323852539,11.25,28.950000762939453,-1.0499999523162842,-8.25,40.025367736816406,0,
 336952,-0.34375,-0.877685546875,-0.1884765625,-5.5182929039001465,-11.52439022064209,10.335366249084473,28.350000381469727,-0.8999999761581421,-7.199999809265137,40.16913604736328,0,
 336962,-0.31494140625,-0.867919921875,-0.169189453125,-8.719511985778809,-12.987805366516113,10.12195110321045,27.0,-3.9000000953674316,-12.0,40.3608283996582,0,
 336972,-0.29638671875,-0.836669921875,-0.19189453125,-11.25,-13.079268455505371,9.908536911010742,28.950000762939453,-1.9500000476837158,-9.300000190734863,40.16913604736328,0,
 336982,-0.197509765625,-0.850341796875,-0.185546875,-9.84756088256836,-12.591464042663574,10.060976028442383,28.950000762939453,-1.9500000476837158,-9.300000190734863,40.07329177856445,0,
 336992,-0.3193359375,-0.573974609375,-0.0107421875,-3.8719513416290283,-9.634146690368652,15.304878234863281,29.100000381469727,-2.549999952316284,-8.399999618530273,40.21706008911133,0,
 337002,-0.44384765625,-0.724609375,-0.048828125,4.0853657722473145,0.5487805008888245,6.6768293380737305,30.299999237060547,-2.0999999046325684,-7.650000095367432,40.025367736816406,0,
 337012,-0.364501953125,-0.946044921875,-0.141845703125,10.42682933807373,3.2926828861236572,7.103658676147461,29.850000381469727,-3.75,-8.399999618530273,40.07329177856445,0,
 337022,-0.285400390625,-0.936279296875,-0.279541015625,2.6219513416290283,-3.1402440071105957,16.310976028442383,29.850000381469727,-3.75,-8.399999618530273,40.16913604736328,0,
 337032,-0.228515625,-1.041259765625,-0.3193359375,3.841463565826416,-10.060976028442383,26.18902587890625,28.799999237060547,-2.0999999046325684,-10.199999809265137,40.025367736816406,0,
 337042,-0.25146484375,-1.0576171875,-0.369140625,0.5792682766914368,-16.981708526611328,33.20122146606445,29.100000381469727,-2.549999952316284,-8.399999618530273,40.16913604736328,0,
 337052,-0.341064453125,-1.04638671875,-0.357177734375,-2.5,-22.164634704589844,38.628047943115234,30.75,-2.8499999046325684,-8.399999618530273,40.50459671020508,0,
 337062,-0.271240234375,-0.89453125,-0.26904296875,-3.841463565826416,-24.29878044128418,43.23170852661133,30.75,-2.8499999046325684,-8.399999618530273,40.16913604736328,0,
 337072,-0.01806640625,-0.927978515625,-0.28955078125,-9.17682933807373,-33.871952056884766,55.30487823486328,30.299999237060547,-3.299999952316284,-9.149999618530273,40.21706008911133,0,
 337082,0.230224609375,-1.239990234375,-0.333740234375,-25.64024543762207,-54.57317352294922,73.78048706054688,30.75,-4.5,-7.949999809265137,40.552520751953125,0,
 337092,0.02392578125,-1.29443359375,-0.2734375,-56.25,-73.32317352294922,85.60975646972656,29.549999237060547,-4.050000190734863,-8.699999809265137,40.07329177856445,0,
 337102,-0.222412109375,-0.9697265625,-0.19140625,-72.53048706054688,-67.71341705322266,65.1524429321289,30.899999618530273,-4.650000095367432,-9.0,40.07329177856445,0,
 337112,-0.36181640625,-0.46533203125,0.0595703125,-72.5,-47.469512939453125,54.20731735229492,30.899999618530273,-4.650000095367432,-9.0,40.21706008911133,0,
 337122,-0.746826171875,-0.203125,0.064453125,-53.719512939453125,-43.04878234863281,59.32926940917969,31.799999237060547,-5.699999809265137,-8.699999809265137,40.3608283996582,0,
 337132,-0.75927734375,-0.076171875,0.1142578125,-30.70121955871582,-32.65243911743164,63.658538818359375,31.950000762939453,-5.849999904632568,-9.0,40.025367736816406,0,
 337142,-0.7470703125,-0.23779296875,0.0087890625,-8.384146690368652,-29.54268455505371,63.719512939453125,32.400001525878906,-7.050000190734863,-8.550000190734863,39.977447509765625,0,
 337152,-0.619140625,-0.4248046875,-0.14697265625,0.4268292784690857,-17.469512939453125,56.09756088256836,32.400001525878906,-7.050000190734863,-8.550000190734863,40.07329177856445,0,
 337162,-0.1142578125,-2.947021484375,-0.69677734375,8.414634704589844,-4.847560882568359,42.89634323120117,31.200000762939453,-3.450000047683716,-10.800000190734863,40.16913604736328,0,
 337173,-0.13037109375,0.2724609375,0.19189453125,-76.09756469726562,26.829269409179688,-71.58536529541016,31.5,-7.199999809265137,-9.899999618530273,40.07329177856445,0,
 337183,-0.956787109375,-0.923828125,-0.570556640625,-47.74390411376953,30.762195587158203,-13.018293380737305,31.799999237060547,-6.0,-9.149999618530273,40.16913604736328,0,
 337193,-0.146728515625,-1.020263671875,-0.1455078125,32.713417053222656,38.871952056884766,-57.74390411376953,31.799999237060547,-6.0,-9.149999618530273,40.3608283996582,0,
 337203,-0.497314453125,-1.307373046875,-0.459228515625,16.036584854125977,31.829269409179688,2.6524391174316406,31.649999618530273,-6.300000190734863,-9.75,40.16913604736328,0,
 337213,-0.394775390625,-1.408203125,-0.506103515625,13.90243911743164,-8.963415145874023,35.39634323120117,32.54999923706055,-6.900000095367432,-9.449999809265137,40.264984130859375,0,
 337223,-0.57958984375,-1.113037109375,-0.488525390625,27.19512176513672,-18.170732498168945,53.68902587890625,32.54999923706055,-4.050000190734863,-9.149999618530273,40.3608283996582,0,
 337233,-0.621826171875,-0.837890625,-0.341796875,43.963417053222656,-28.719512939453125,69.8780517578125,32.54999923706055,-4.050000190734863,-9.149999618530273,40.21706008911133,0,
 337243,-0.593017578125,-0.926513671875,-0.331298828125,40.42683029174805,-37.0121955871582,73.01829528808594,31.5,-7.199999809265137,-9.149999618530273,39.977447509765625,0,
 337253,-0.69091796875,-0.802734375,-0.236572265625,42.682926177978516,-33.871952056884766,56.067073822021484,33.599998474121094,-5.849999904632568,-9.75,40.21706008911133,0,
 337263,-0.643798828125,-0.722412109375,-0.163818359375,46.64634323120117,-20.18292808532715,31.43292808532715,32.400001525878906,-5.849999904632568,-10.5,40.40875244140625,0,
 337273,-0.58447265625,-0.76123046875,-0.0712890625,35.0,-5.5182929039001465,5.70121955871582,33.900001525878906,-9.0,-12.75,40.3608283996582,0,
 337283,-0.465087890625,-0.65283203125,0.0234375,27.073171615600586,0.09146341681480408,-19.420732498168945,32.849998474121094,-8.699999809265137,-9.75,39.977447509765625,0,
 337293,-0.388671875,-0.530517578125,0.005615234375,27.59146499633789,2.77439022064209,-45.914634704589844,33.29999923706055,-7.650000095367432,-9.899999618530273,40.16913604736328,0,
 337303,-0.477783203125,-0.519287109375,-0.069580078125,12.408536911010742,14.054878234863281,-74.78659057617188,32.849998474121094,-7.050000190734863,-12.0,40.3608283996582,0,
 337313,-0.573974609375,-0.43115234375,-0.123291015625,-14.115854263305664,30.457317352294922,-93.6280517578125,33.150001525878906,-7.800000190734863,-11.25,40.16913604736328,0,
 337323,-0.669677734375,-0.26220703125,-0.04150390625,-69.57317352294922,43.75,-84.0243911743164,33.150001525878906,-7.800000190734863,-11.25,40.16913604736328,0,
 337333,-0.496826171875,-0.302490234375,-0.092041015625,-49.20731735229492,47.28658676147461,-93.59756469726562,33.75,-5.25,-10.649999618530273,40.264984130859375,0,
 337343,-0.34521484375,-0.892578125,-0.07421875,-51.18902587890625,44.48170852661133,-113.14024353027344,33.0,-4.5,-8.699999809265137,40.264984130859375,0,
 337353,0.239990234375,-1.27001953125,0.13525390625,-73.71951293945312,37.103660583496094,-48.780487060546875,30.149999618530273,-3.9000000953674316,-9.0,40.3608283996582,0,
 337363,0.318603515625,-1.220458984375,-0.15869140625,-50.3658561706543,30.426830291748047,6.432927131652832,30.149999618530273,-3.9000000953674316,-9.0,40.16913604736328,0,
 337373,0.02001953125,-0.853271484375,-0.358154296875,-19.14634132385254,16.768293380737305,73.56707763671875,29.700000762939453,-5.400000095367432,-8.25,40.264984130859375,0,
 337383,-0.616943359375,-0.978515625,-0.51416015625,13.719512939453125,10.762195587158203,100.0,30.149999618530273,-4.349999904632568,-8.550000190734863,40.07329177856445,0,
 337393,-8.0,-2.74365234375,2.352294921875,194.11585998535156,78.20121765136719,-47.80487823486328,32.25,-5.699999809265137,-8.399999618530273,40.3608283996582,0,
 337403,-2.42236328125,-0.358154296875,-0.187744140625,-119.29878234863281,48.17073440551758,25.85365867614746,32.25,-5.699999809265137,-8.399999618530273,40.40875244140625,0,
 337413,-0.06103515625,-0.795166015625,-1.08251953125,-0.8841463327407837,-19.542682647705078,-6.463414669036865,31.799999237060547,-5.699999809265137,-7.650000095367432,40.3608283996582,0,
 337423,-0.265380859375,-0.947265625,-0.58935546875,38.658538818359375,-23.231708526611328,36.463417053222656,31.5,-6.449999809265137,-7.949999809265137,40.3608283996582,0,
 337433,0.1103515625,-1.118896484375,-0.8203125,23.628049850463867,-23.780488967895508,44.817073822021484,31.049999237060547,-5.25,-9.149999618530273,40.07329177856445,0,
 337443,-0.12158203125,-0.980712890625,-0.433349609375,27.43902587890625,-37.225608825683594,49.72561264038086,31.049999237060547,-5.25,-9.149999618530273,40.264984130859375,0,
 337453,-0.360595703125,-0.7978515625,-0.31884765625,1.7073171138763428,-33.53658676147461,36.310977935791016,31.950000762939453,-5.849999904632568,-6.75,40.16913604736328,0,
 337463,-0.31787109375,-0.66455078125,-0.111572265625,-9.481707572937012,-29.908536911010742,12.134146690368652,31.950000762939453,-7.5,-7.800000190734863,40.07329177856445,0,
 337473,-0.3427734375,-0.634765625,-0.05517578125,-19.969512939453125,-29.05487823486328,1.5548781156539917,34.04999923706055,-8.399999618530273,-8.699999809265137,40.16913604736328,0,
 337483,-0.71142578125,-0.572509765625,0.0986328125,-19.420732498168945,-29.7560977935791,-1.1280487775802612,32.400001525878906,-7.5,-10.050000190734863,40.025367736816406,0,
 337493,-0.716796875,-0.381103515625,0.08837890625,-28.231708526611328,-20.914634704589844,-11.859756469726562,34.04999923706055,-5.699999809265137,-8.699999809265137,40.3608283996582,0,
 337503,-0.603515625,-0.618408203125,0.076904296875,-2.4390244483947754,-10.243902206420898,-21.615854263305664,30.299999237060547,-4.050000190734863,-8.699999809265137,40.264984130859375,0,
 337513,-0.533447265625,-0.868408203125,-0.06005859375,3.75,5.091463565826416,-23.628049850463867,32.25,-6.0,-8.399999618530273,40.16913604736328,0,
 337523,-0.769775390625,-1.21728515625,-0.163330078125,-2.4390244483947754,22.5,-19.481708526611328,31.950000762939453,-6.300000190734863,-9.0,40.3608283996582,0,
 337533,-0.49609375,-0.831787109375,-0.00048828125,-11.432927131652832,32.80487823486328,-38.68902587890625,31.950000762939453,-6.300000190734863,-9.0,40.16913604736328,0,
 337543,-0.344482421875,-0.73193359375,-0.175048828125,-10.304878234863281,33.29268264770508,-16.0060977935791,31.5,-5.699999809265137,-7.650000095367432,40.16913604736328,0,
 337553,-0.5517578125,-1.001953125,-0.22705078125,15.213415145874023,34.78658676147461,-16.4939022064209,33.150001525878906,-5.400000095367432,-8.550000190734863,40.3608283996582,0,
 337563,-0.4892578125,-0.86376953125,-0.328857421875,-1.3719512224197388,36.49390411376953,-12.042683601379395,30.899999618530273,-4.650000095367432,-8.550000190734863,40.264984130859375,0,
 337573,-0.435791015625,-0.799072265625,-0.389892578125,5.3353657722473145,31.89024543762207,-8.445121765136719,30.899999618530273,-4.650000095367432,-8.550000190734863,40.07329177856445,0,
 337583,-0.373291015625,-0.8955078125,-0.42236328125,16.585365295410156,22.378049850463867,-1.6158536672592163,31.649999618530273,-6.599999904632568,-7.050000190734863,40.21706008911133,0,
 337593,-0.366455078125,-0.895751953125,-0.46142578125,13.170731544494629,9.17682933807373,3.6890244483947754,31.200000762939453,-6.300000190734863,-7.5,40.50459671020508,0,
 337603,-0.39990234375,-0.830078125,-0.477294921875,11.463415145874023,-0.5792682766914368,4.695122241973877,30.75,-5.25,-8.699999809265137,40.21706008911133,0,
 337613,-0.4248046875,-0.775390625,-0.412841796875,16.25,-10.182927131652832,4.603658676147461,30.75,-5.25,-8.699999809265137,40.3608283996582,0,
 337623,-0.400146484375,-0.77587890625,-0.35986328125,23.628049850463867,-18.628049850463867,2.865853786468506,31.799999237060547,-4.949999809265137,-7.949999809265137,40.025367736816406,0,
 337633,-0.435546875,-0.86376953125,-0.28125,28.262195587158203,-25.762195587158203,2.7439024448394775,30.299999237060547,-4.949999809265137,-6.900000095367432,39.977447509765625,0,
 337643,-0.516845703125,-0.910888671875,-0.245361328125,19.725610733032227,-28.53658676147461,3.5060975551605225,32.25,-6.0,-8.399999618530273,40.21706008911133,0,
 337653,-0.54638671875,-0.87158203125,-0.191650390625,8.536585807800293,-24.390243530273438,2.5,32.25,-6.0,-8.399999618530273,40.3608283996582,0,
 337663,-0.554443359375,-0.835205078125,-0.110595703125,0.6402438879013062,-11.219511985778809,-5.243902683258057,31.649999618530273,-5.099999904632568,-9.0,40.40875244140625,0,
 337673,-0.5673828125,-0.828125,-0.05615234375,-0.8841463327407837,-4.939024448394775,-8.292682647705078,30.75,-4.050000190734863,-10.199999809265137,40.07329177856445,0,
 337683,-0.565673828125,-0.839599609375,-0.032470703125,-2.5304877758026123,0.396341472864151,-9.786585807800293,32.25,-8.100000381469727,-10.649999618530273,40.21706008911133,0,
 337693,-0.607666015625,-0.8115234375,-0.05322265625,-3.932926893234253,10.97560977935791,-14.02439022064209,29.850000381469727,-5.25,-10.649999618530273,40.40875244140625,0,
 337703,-0.521484375,-0.85546875,-0.090087890625,-6.920732021331787,16.524391174316406,-13.262195587158203,29.850000381469727,-5.25,-10.649999618530273,40.16913604736328,0,
 337713,-0.478271484375,-0.889892578125,-0.136962890625,-9.359756469726562,18.414634704589844,-10.457317352294922,29.850000381469727,-3.75,-9.899999618530273,40.16913604736328,0,
 337723,-0.461669921875,-0.827880859375,-0.180908203125,-3.2317073345184326,17.926830291748047,-5.27439022064209,30.299999237060547,-5.25,-9.149999618530273,40.16913604736328,0,
 337733,-0.420166015625,-0.81640625,-0.2294921875,4.5731706619262695,14.512195587158203,-1.9512195587158203,32.400001525878906,-6.300000190734863,-9.300000190734863,40.40875244140625,0,
 337743,-0.41455078125,-0.8798828125,-0.27392578125,4.054878234863281,10.060976028442383,1.097561001777649,32.400001525878906,-6.300000190734863,-9.300000190734863,40.3608283996582,0,
 337753,-0.40771484375,-0.87451171875,-0.307861328125,3.7195122241973877,5.762195110321045,3.1402440071105957,29.700000762939453,-7.800000190734863,-9.75,40.264984130859375,0,
 337763,-0.4130859375,-0.815185546875,-0.338623046875,6.036585330963135,1.9512195587158203,3.932926893234253,31.649999618530273,-5.849999904632568,-9.0,40.40875244140625,0,
 337773,-0.427734375,-0.81494140625,-0.342041015625,6.036585330963135,-1.9512195587158203,4.359755992889404,31.799999237060547,-5.25,-8.399999618530273,40.025367736816406,0,
 337783,-0.455078125,-0.777099609375,-0.309814453125,7.804878234863281,-3.658536672592163,-0.3353658616542816,31.799999237060547,-5.25,-8.399999618530273,40.21706008911133,0,
 337793,-0.456298828125,-0.779052734375,-0.27587890625,11.615854263305664,-7.042683124542236,-2.8353660106658936,29.700000762939453,-6.300000190734863,-9.300000190734863,40.264984130859375,0,
 337803,-0.464599609375,-0.804931640625,-0.240478515625,11.25,-7.042683124542236,-7.560975551605225,31.200000762939453,-5.849999904632568,-10.050000190734863,40.16913604736328,0,
 337813,-0.478515625,-0.853515625,-0.2060546875,7.286585330963135,-5.030488014221191,-10.609756469726562,31.200000762939453,-5.099999904632568,-7.800000190734863,40.3608283996582,0,
 337823,-0.54296875,-0.80810546875,-0.15673828125,4.512195110321045,-1.585365891456604,-15.091464042663574,31.200000762939453,-5.099999904632568,-7.800000190734863,40.025367736816406,0,
 337833,-0.549072265625,-0.76123046875,-0.1416015625,2.591463565826416,3.4146342277526855,-21.371952056884766,31.5,-5.25,-9.449999809265137,40.264984130859375,0,
 337843,-0.51708984375,-0.726806640625,-0.1171875,2.865853786468506,9.664634704589844,-29.78658676147461,30.149999618530273,-4.650000095367432,-8.25,40.16913604736328,0,
 337853,-0.431640625,-0.6376953125,-0.005859375,2.865853786468506,16.219512939453125,-37.95731735229492,29.700000762939453,-4.650000095367432,-8.550000190734863,40.3608283996582,0,
 337863,-0.52197265625,-0.6533203125,-0.041748046875,-3.170731782913208,28.59756088256836,-51.92073440551758,29.399999618530273,-3.9000000953674316,-9.0,40.16913604736328,0,
 337873,-0.662109375,-0.62109375,-0.058837890625,-7.682927131652832,40.121952056884766,-68.50609588623047,31.049999237060547,-5.699999809265137,-9.449999809265137,40.07329177856445,0,
 337883,-0.400634765625,-0.69677734375,-0.2412109375,-10.091464042663574,49.603660583496094,-85.39634704589844,31.200000762939453,-4.650000095367432,-10.5,40.3608283996582,0,
 337893,-0.35498046875,-0.775390625,-0.30224609375,1.0670732259750366,48.963417053222656,-84.66463470458984,28.950000762939453,-2.700000047683716,-7.800000190734863,40.16913604736328,0,
 337903,-0.240966796875,-0.91796875,-0.296875,10.365854263305664,50.39634323120117,-85.36585235595703,29.549999237060547,-3.299999952316284,-7.949999809265137,40.3608283996582,0,
 337913,-0.249755859375,-0.95556640625,-0.333740234375,8.079268455505371,46.98170852661133,-81.37195587158203,29.549999237060547,-3.299999952316284,-7.949999809265137,40.552520751953125,0,
 337924,-0.29052734375,-0.953857421875,-0.293701171875,10.0,37.95731735229492,-76.21951293945312,28.649999618530273,-2.25,-7.800000190734863,39.977447509765625,0,
 337934,-0.2841796875,-0.947998046875,-0.26953125,11.036585807800293,28.628049850463867,-72.16463470458984,26.700000762939453,-1.0499999523162842,-7.800000190734863,40.264984130859375,0,
 337944,-0.26220703125,-0.9560546875,-0.317138671875,12.560976028442383,21.158536911010742,-66.43292999267578,26.700000762939453,-2.700000047683716,-5.25,40.264984130859375,0,
 337954,-0.21728515625,-0.95361328125,-0.33203125,14.908536911010742,13.47560977935791,-60.73170852661133,26.700000762939453,-2.700000047683716,-5.25,40.16913604736328,0,
 337964,-0.230224609375,-0.96630859375,-0.301513671875,18.109756469726562,5.182927131652832,-54.024391174316406,26.25,0.0,-9.0,40.264984130859375,0,
 337974,-0.273193359375,-0.970458984375,-0.23876953125,18.689023971557617,-0.060975611209869385,-47.65243911743164,28.649999618530273,0.75,-8.25,40.07329177856445,0,
 337984,-0.306884765625,-1.007080078125,-0.182861328125,17.5,-2.1341464519500732,-44.32926940917969,28.799999237060547,2.0999999046325684,-8.699999809265137,40.40875244140625,0,
 337994,-0.307861328125,-1.042724609375,-0.142822265625,11.890244483947754,-1.5243902206420898,-41.7378044128418,28.799999237060547,2.0999999046325684,-8.699999809265137,40.40875244140625,0,
 338004,-0.3154296875,-1.038330078125,-0.152587890625,2.7439024448394775,0.030487805604934692,-36.95122146606445,26.549999237060547,0.44999998807907104,-7.650000095367432,40.3608283996582,0,
 338014,-0.297607421875,-1.025146484375,-0.1884765625,-2.865853786468506,2.012195110321045,-30.121952056884766,26.100000381469727,0.44999998807907104,-6.150000095367432,40.07329177856445,0,
 338024,-0.280029296875,-0.971435546875,-0.212158203125,-5.182927131652832,4.420732021331787,-23.018293380737305,26.549999237060547,0.8999999761581421,-7.199999809265137,40.21706008911133,0,
 338034,-0.275634765625,-0.94775390625,-0.231689453125,-3.2317073345184326,7.530488014221191,-16.4939022064209,26.549999237060547,0.8999999761581421,-7.199999809265137,40.21706008911133,0,
 338044,-0.26416015625,-0.942626953125,-0.218994140625,-0.8536585569381714,10.060976028442383,-10.640244483947754,24.899999618530273,0.44999998807907104,-7.199999809265137,40.264984130859375,0,
 338054,-0.260498046875,-0.927490234375,-0.204345703125,-0.792682945728302,10.365854263305664,-7.22560977935791,27.450000762939453,-0.75,-6.300000190734863,40.40875244140625,0,
 338064,-0.27001953125,-0.908203125,-0.207763671875,-1.585365891456604,9.908536911010742,-6.402439117431641,24.600000381469727,0.15000000596046448,-7.650000095367432,40.07329177856445,0,
 338074,-0.275146484375,-0.878173828125,-0.2197265625,-2.77439022064209,10.243902206420898,-8.018292427062988,24.600000381469727,1.649999976158142,-8.699999809265137,39.88159942626953,0,
 338084,-0.271484375,-0.868408203125,-0.22802734375,-2.317073106765747,11.40243911743164,-10.030488014221191,24.600000381469727,1.649999976158142,-8.699999809265137,40.3608283996582,0,
 338094,-0.25927734375,-0.86279296875,-0.233154296875,-0.4268292784690857,11.920731544494629,-12.469512939453125,24.75,1.0499999523162842,-7.800000190734863,40.21706008911133,0,
 338104,-0.24853515625,-0.867919921875,-0.227294921875,0.5182926654815674,11.768293380737305,-15.0,25.350000381469727,0.8999999761581421,-5.400000095367432,40.3608283996582,0,
 338124,-0.260009765625,-0.87744140625,-0.236083984375,1.1280487775802612,12.591464042663574,-24.542682647705078,24.899999618530273,2.0999999046325684,-6.900000095367432,40.07329177856445,0,
 338134,-0.25146484375,-0.881103515625,-0.23486328125,2.3475611209869385,12.957317352294922,-27.713415145874023,23.850000381469727,1.350000023841858,-6.900000095367432,40.60044479370117,0,
 338144,-0.2421875,-0.899658203125,-0.225341796875,2.378048896789551,13.20121955871582,-29.817073822021484,24.75,1.0499999523162842,-7.5,40.025367736816406,0,
 338154,-0.242919921875,-0.917236328125,-0.212646484375,0.8536585569381714,13.32317066192627,-31.280488967895508,23.25,3.1500000953674316,-7.800000190734863,40.21706008911133,0,
 338164,-0.237060546875,-0.93505859375,-0.219482421875,0.09146341681480408,13.689024925231934,-31.829269409179688,23.25,3.1500000953674316,-7.800000190734863,40.21706008911133,0,
 338174,-0.230224609375,-0.953857421875,-0.224609375,-1.1280487775802612,14.054878234863281,-31.09756088256836,23.100000381469727,0.44999998807907104,-6.900000095367432,40.3608283996582,0,
 338184,-0.226318359375,-0.9501953125,-0.22314453125,-1.8292683362960815,14.17682933807373,-29.481708526611328,24.0,1.0499999523162842,-4.800000190734863,40.3608283996582,0,
 338194,-0.224853515625,-0.956298828125,-0.228515625,-1.2195122241973877,14.512195587158203,-27.926830291748047,24.899999618530273,0.44999998807907104,-8.699999809265137,40.16913604736328,0,
 338204,-0.21484375,-0.9599609375,-0.22998046875,-1.3414634466171265,14.57317066192627,-26.40243911743164,24.899999618530273,0.44999998807907104,-8.699999809265137,40.16913604736328,0,
 338214,-0.215087890625,-0.969482421875,-0.232177734375,-0.6707317233085632,14.359756469726562,-23.658536911010742,22.5,1.9500000476837158,-8.25,40.07329177856445,0,
 338224,-0.198486328125,-0.978759765625,-0.2333984375,-0.8841463327407837,13.59756088256836,-21.067073822021484,22.799999237060547,1.5,-7.5,40.3608283996582,0,
 338234,-0.19775390625,-0.9755859375,-0.23828125,-0.8536585569381714,12.469512939453125,-17.774391174316406,21.450000762939453,3.299999952316284,-6.150000095367432,40.16913604736328,0,
 338244,-0.193603515625,-0.982421875,-0.2470703125,-0.396341472864151,11.036585807800293,-14.969512939453125,21.75,1.9500000476837158,-5.25,40.07329177856445,0,
 338254,-0.18603515625,-0.99853515625,-0.246826171875,-0.4878048896789551,8.932927131652832,-12.317073822021484,23.25,3.450000047683716,-6.300000190734863,40.3608283996582,0,
 338264,-0.185791015625,-0.9794921875,-0.250244140625,-0.3048780560493469,7.378048896789551,-9.756097793579102,21.899999618530273,2.8499999046325684,-6.900000095367432,39.977447509765625,0,
 338274,-0.193115234375,-0.968017578125,-0.254638671875,0.4573170840740204,6.554878234863281,-9.054878234863281,22.649999618530273,1.649999976158142,-6.449999809265137,40.16913604736328,0,
 338284,-0.1875,-0.9501953125,-0.24853515625,1.402438998222351,5.396341800689697,-8.170731544494629,21.75,3.9000000953674316,-4.5,40.3608283996582,0,
 338294,-0.188232421875,-0.952880859375,-0.251220703125,2.682926893234253,4.45121955871582,-7.591463565826416,21.75,3.9000000953674316,-4.5,40.40875244140625,0,
 338304,-0.1787109375,-0.953369140625,-0.24658203125,3.170731782913208,2.77439022064209,-7.621951580047607,22.799999237060547,3.450000047683716,-6.75,40.264984130859375,0,
 338314,-0.173095703125,-0.947509765625,-0.24365234375,3.5060975551605225,1.6768293380737305,-6.890244007110596,21.149999618530273,3.299999952316284,-7.650000095367432,40.07329177856445,0,
 338324,-0.175048828125,-0.945556640625,-0.236572265625,4.02439022064209,0.7317073345184326,-6.097560882568359,22.049999237060547,3.450000047683716,-4.050000190734863,40.21706008911133,0,
 338334,-0.17529296875,-0.94580078125,-0.23193359375,3.658536672592163,0.24390244483947754,-5.060975551605225,22.049999237060547,3.450000047683716,-4.050000190734863,40.16913604736328,0,
 338344,-0.178466796875,-0.947021484375,-0.224365234375,2.987804889678955,0.060975611209869385,-4.512195110321045,21.149999618530273,3.75,-6.449999809265137,40.16913604736328,0,
 338354,-0.180908203125,-0.94091796875,-0.224365234375,2.1341464519500732,0.4878048896789551,-4.420732021331787,20.549999237060547,2.700000047683716,-5.25,40.3608283996582,0,
 338364,-0.185791015625,-0.94189453125,-0.224365234375,1.25,1.2195122241973877,-4.390244007110596,21.450000762939453,4.050000190734863,-4.949999809265137,40.025367736816406,0,
 338374,-0.185302734375,-0.9404296875,-0.225341796875,0.4878048896789551,2.0731706619262695,-4.6646342277526855,21.450000762939453,4.050000190734863,-4.949999809265137,40.3608283996582,0,
 338384,-0.188720703125,-0.941650390625,-0.22705078125,-0.09146341681480408,2.9573171138763428,-5.609755992889404,22.200000762939453,3.75,-5.699999809265137,40.21706008911133,0,
 338394,-0.187255859375,-0.9482421875,-0.2314453125,-0.3048780560493469,3.7195122241973877,-6.95121955871582,23.25,1.5,-6.75,40.21706008911133,0,
 338404,-0.188720703125,-0.94921875,-0.229248046875,-0.9451219439506531,4.45121955871582,-7.713414669036865,21.149999618530273,3.75,-7.650000095367432,40.3608283996582,0,
 338414,-0.182373046875,-0.949462890625,-0.233642578125,-1.25,5.121951103210449,-8.689024925231934,21.149999618530273,3.75,-7.650000095367432,39.88159942626953,0,
 338424,-0.183837890625,-0.957275390625,-0.2314453125,-1.1585365533828735,5.945122241973877,-9.17682933807373,21.75,4.349999904632568,-7.800000190734863,40.264984130859375,0,
 338434,-0.181396484375,-0.947021484375,-0.237548828125,-1.2195122241973877,6.097560882568359,-9.542683601379395,21.299999237060547,1.5,-5.25,40.50459671020508,0,
 338444,-0.173583984375,-0.945068359375,-0.2333984375,-1.6158536672592163,6.52439022064209,-10.518293380737305,20.100000381469727,3.1500000953674316,-6.300000190734863,40.07329177856445,0,
 338454,-0.16015625,-0.938720703125,-0.2421875,-2.317073106765747,6.737804889678955,-10.884146690368652,18.899999618530273,4.5,-5.400000095367432,40.025367736816406,0,
 338464,-0.17333984375,-0.92529296875,-0.243408203125,-2.4390244483947754,7.134146690368652,-12.195121765136719,18.899999618530273,4.5,-5.400000095367432,40.16913604736328,0,
 338474,-0.174560546875,-0.92138671875,-0.229736328125,-1.5548781156539917,7.621951580047607,-13.262195587158203,21.299999237060547,3.9000000953674316,-5.550000190734863,40.40875244140625,0,
 338484,-0.181396484375,-0.93505859375,-0.221435546875,-1.7682926654815674,9.268292427062988,-15.518293380737305,20.549999237060547,2.700000047683716,-6.0,40.264984130859375,0,
 338494,-0.176025390625,-0.950439453125,-0.21484375,-2.9268293380737305,10.640244483947754,-17.621952056884766,21.149999618530273,6.0,-7.650000095367432,40.3608283996582,0,
 338504,-0.164306640625,-0.96142578125,-0.209716796875,-5.27439022064209,12.408536911010742,-18.262195587158203,21.149999618530273,6.0,-7.650000095367432,40.40875244140625,0,
 338514,-0.149169921875,-0.972412109375,-0.212890625,-7.77439022064209,13.90243911743164,-18.38414764404297,21.450000762939453,4.050000190734863,-5.400000095367432,40.025367736816406,0,
 338524,-0.1416015625,-0.974365234375,-0.21484375,-11.12804889678955,14.756097793579102,-17.865854263305664,19.049999237060547,5.099999904632568,-5.25,40.264984130859375,0,
 338534,-0.146728515625,-0.963623046875,-0.229248046875,-14.390244483947754,15.82317066192627,-16.829269409179688,20.549999237060547,4.650000095367432,-4.050000190734863,40.264984130859375,0,
 338544,-0.1318359375,-0.948974609375,-0.2412109375,-15.54878044128418,16.280488967895508,-16.4939022064209,20.549999237060547,4.650000095367432,-4.050000190734863,40.21706008911133,0,
 338554,-0.12255859375,-0.94140625,-0.2783203125,-15.12195110321045,17.713415145874023,-17.591463088989258,21.0,6.300000190734863,-4.800000190734863,40.21706008911133,0,
 338564,-0.141845703125,-0.93603515625,-0.2763671875,-13.780488014221191,16.371952056884766,-16.585365295410156,21.0,3.450000047683716,-4.800000190734863,40.16913604736328,0,
 338574,-0.132568359375,-0.926025390625,-0.279052734375,-7.286585330963135,15.030488014221191,-17.83536720275879,21.299999237060547,4.349999904632568,-4.5,40.16913604736328,0,
 338584,-0.130615234375,-0.933837890625,-0.28857421875,-4.054878234863281,13.47560977935791,-18.567073822021484,21.299999237060547,4.349999904632568,-4.5,40.16913604736328,0,
 338594,-0.110595703125,-0.96142578125,-0.283203125,-2.408536672592163,11.615854263305664,-18.079269409179688,18.899999618530273,4.5,-4.650000095367432,40.07329177856445,0,
 338604,-0.102294921875,-0.973388671875,-0.275146484375,-1.2195122241973877,9.817073822021484,-16.280488967895508,19.049999237060547,2.700000047683716,-6.75,39.977447509765625,0,
 338614,-0.1025390625,-0.984619140625,-0.269287109375,-0.5487805008888245,8.75,-13.841464042663574,18.600000381469727,3.9000000953674316,-4.050000190734863,40.3608283996582,0,
 338624,-0.089599609375,-1.0126953125,-0.26171875,-2.5304877758026123,7.408536911010742,-10.243902206420898,19.649999618530273,4.949999809265137,-4.650000095367432,40.07329177856445,0,
 338634,-0.088623046875,-1.022705078125,-0.2509765625,-5.365853786468506,6.615853786468506,-6.981707572937012,19.799999237060547,5.099999904632568,-4.800000190734863,40.264984130859375,0,
 338644,-0.1015625,-0.998046875,-0.249755859375,-6.737804889678955,6.006097793579102,-4.420732021331787,19.649999618530273,6.0,-2.4000000953674316,40.40875244140625,0,
 338654,-0.109375,-0.9912109375,-0.261474609375,-7.103658676147461,5.792683124542236,-1.9817073345184326,17.850000381469727,4.650000095367432,-4.5,40.16913604736328,0,
 338664,-0.090576171875,-0.966064453125,-0.267578125,-5.8231706619262695,5.152439117431641,0.0,18.299999237060547,5.099999904632568,-5.25,40.07329177856445,0,
 338674,-0.09033203125,-0.95458984375,-0.275146484375,-4.115853786468506,3.7195122241973877,1.6768293380737305,18.299999237060547,5.099999904632568,-5.25,39.977447509765625,0,
 338685,-0.093017578125,-0.9462890625,-0.2822265625,-2.987804889678955,2.4390244483947754,3.0182926654815674,18.899999618530273,6.0,-3.450000047683716,40.21706008911133,0,
 338695,-0.09765625,-0.947998046875,-0.27197265625,-2.4695122241973877,1.7682926654815674,4.054878234863281,19.799999237060547,6.300000190734863,-2.25,40.40875244140625,0,
 338705,-0.095703125,-0.95849609375,-0.267578125,-2.4390244483947754,1.097561001777649,4.878048896789551,19.649999618530273,3.75,-7.650000095367432,40.025367736816406,0,
 338715,-0.1005859375,-0.9638671875,-0.26806640625,-2.9573171138763428,0.7621951103210449,5.609755992889404,19.649999618530273,3.75,-7.650000095367432,40.07329177856445,0,
 338725,-0.1064453125,-0.958984375,-0.2705078125,-3.3841464519500732,0.8841463327407837,5.304878234863281,19.799999237060547,4.650000095367432,-4.050000190734863,40.552520751953125,0,
 338735,-0.115966796875,-0.9482421875,-0.273193359375,-3.2926828861236572,0.6097561120986938,5.54878044128418,19.649999618530273,3.75,-1.649999976158142,40.21706008911133,0,
 338745,-0.113037109375,-0.951416015625,-0.273681640625,-1.8902438879013062,0.3353658616542816,5.213414669036865,17.850000381469727,3.9000000953674316,-3.0,40.552520751953125,0,
 338755,-0.10791015625,-0.94775390625,-0.28125,0.0,0.15243902802467346,4.634146213531494,17.850000381469727,3.9000000953674316,-3.0,40.025367736816406,0,
 338765,-0.108154296875,-0.95263671875,-0.2783203125,1.7073171138763428,-0.21341463923454285,5.182927131652832,19.799999237060547,4.349999904632568,-5.550000190734863,40.07329177856445,0,
 338775,-0.11474609375,-0.947021484375,-0.2763671875,3.1402440071105957,-1.0060975551605225,5.152439117431641,21.0,3.9000000953674316,-3.299999952316284,40.40875244140625,0,
 338785,-0.1123046875,-0.946533203125,-0.270751953125,4.603658676147461,-1.0365853309631348,5.3353657722473145,17.100000381469727,5.400000095367432,-4.050000190734863,40.264984130859375,0,
 338795,-0.1083984375,-0.956787109375,-0.267333984375,5.884146690368652,-1.585365891456604,5.70121955871582,17.100000381469727,5.400000095367432,-4.050000190734863,40.07329177856445,0,
 338805,-0.109375,-0.9638671875,-0.261474609375,6.95121955871582,-2.1341464519500732,6.158536911010742,20.549999237060547,5.400000095367432,-8.25,39.977447509765625,0,
 338815,-0.104248046875,-0.954833984375,-0.2568359375,6.615853786468506,-2.3475611209869385,6.554878234863281,19.049999237060547,4.650000095367432,-4.800000190734863,40.3608283996582,0,
 338825,-0.117431640625,-0.952880859375,-0.256103515625,7.256097793579102,-3.079268455505371,7.1646342277526855,21.0,5.099999904632568,-3.75,40.16913604736328,0,
 338835,-0.118408203125,-0.946044921875,-0.26220703125,8.353658676147461,-3.3841464519500732,8.04878044128418,19.200000762939453,4.050000190734863,-3.450000047683716,40.264984130859375,0,
 338845,-0.118408203125,-0.939453125,-0.258056640625,9.603658676147461,-3.3231709003448486,8.384146690368652,19.200000762939453,4.050000190734863,-3.450000047683716,40.3608283996582,0,
 338855,-0.1259765625,-0.94189453125,-0.2529296875,10.27439022064209,-3.75,8.87195110321045,19.799999237060547,4.650000095367432,-4.5,40.07329177856445,0,
 338865,-0.124755859375,-0.939697265625,-0.25146484375,10.914634704589844,-3.7804877758026123,7.987804889678955,19.950000762939453,4.949999809265137,-3.9000000953674316,40.21706008911133,0,
 338875,-0.129638671875,-0.9462890625,-0.250732421875,11.585366249084473,-3.4146342277526855,7.621951580047607,19.049999237060547,3.9000000953674316,-3.299999952316284,40.264984130859375,0,
 338885,-0.130126953125,-0.948974609375,-0.24560546875,12.164634704589844,-3.0182926654815674,7.347561359405518,19.049999237060547,3.9000000953674316,-3.299999952316284,40.07329177856445,0,
 338895,-0.132568359375,-0.947509765625,-0.237060546875,12.591464042663574,-2.6524391174316406,7.103658676147461,20.399999618530273,5.25,-3.9000000953674316,40.264984130859375,0,
 338905,-0.122314453125,-0.95458984375,-0.242431640625,12.195121765136719,-2.5609755516052246,6.890244007110596,21.0,6.300000190734863,-6.75,39.977447509765625,0,
 338915,-0.126953125,-0.957275390625,-0.240966796875,12.804878234863281,-2.896341562271118,7.591463565826416,19.200000762939453,2.8499999046325684,-4.650000095367432,40.264984130859375,0,
 338925,-0.125244140625,-0.95556640625,-0.23583984375,11.890244483947754,-2.804877996444702,7.560975551605225,19.200000762939453,2.8499999046325684,-4.650000095367432,40.21706008911133,0,
 338935,-0.122314453125,-0.95556640625,-0.231201171875,11.615854263305664,-3.2012195587158203,7.682927131652832,20.700000762939453,4.949999809265137,-5.400000095367432,40.21706008911133,0,
 338945,-0.127685546875,-0.952880859375,-0.224609375,11.158536911010742,-3.8719513416290283,8.018292427062988,19.799999237060547,4.349999904632568,-6.300000190734863,40.264984130859375,0,
 338955,-0.13330078125,-0.94775390625,-0.2216796875,10.27439022064209,-3.932926893234253,8.231707572937012,20.100000381469727,3.1500000953674316,-7.050000190734863,39.88159942626953,0,
 338965,-0.135498046875,-0.942626953125,-0.22412109375,9.542683601379395,-3.841463565826416,7.865853786468506,20.100000381469727,3.1500000953674316,-7.050000190734863,40.264984130859375,0,
 338975,-0.141357421875,-0.947265625,-0.225341796875,8.841464042663574,-4.054878234863281,7.195122241973877,19.350000381469727,3.450000047683716,-4.050000190734863,39.977447509765625,0,
 338985,-0.131591796875,-0.954345703125,-0.2197265625,8.658536911010742,-4.054878234863281,6.7682929039001465,21.149999618530273,4.949999809265137,-5.400000095367432,40.16913604736328,0,
 338995,-0.13525390625,-0.948974609375,-0.2080078125,7.469512462615967,-4.054878234863281,6.006097793579102,20.549999237060547,3.9000000953674316,-7.050000190734863,40.40875244140625,0,
 339005,-0.139892578125,-0.958251953125,-0.209716796875,6.25,-4.02439022064209,5.304878234863281,20.399999618530273,6.0,-6.150000095367432,40.16913604736328,0,
 339015,-0.1435546875,-0.961669921875,-0.2021484375,4.878048896789551,-3.4146342277526855,4.878048896789551,20.549999237060547,5.099999904632568,-4.5,40.025367736816406,0,
 339025,-0.152099609375,-0.966552734375,-0.1982421875,3.445122003555298,-2.77439022064209,4.756097793579102,19.799999237060547,4.650000095367432,-5.550000190734863,40.07329177856445,0,
 339035,-0.14111328125,-0.97021484375,-0.2021484375,0.3353658616542816,-1.920731782913208,4.359755992889404,19.950000762939453,5.25,-4.949999809265137,40.264984130859375,0,
 339045,-0.150146484375,-0.960205078125,-0.214111328125,-0.09146341681480408,-1.3109756708145142,4.481707572937012,20.700000762939453,5.25,-5.699999809265137,39.88159942626953,0,
 339055,-0.14453125,-0.966796875,-0.217041015625,-0.3658536672592163,-1.5243902206420898,4.756097793579102,20.700000762939453,5.25,-5.699999809265137,40.40875244140625,0,
 339065,-0.1455078125,-0.9609375,-0.216552734375,-0.3353658616542816,-2.0731706619262695,5.27439022064209,19.950000762939453,4.949999809265137,-5.699999809265137,40.264984130859375,0,
 339075,-0.1435546875,-0.958740234375,-0.22509765625,0.060975611209869385,-2.77439022064209,5.4268293380737305,20.700000762939453,4.5,-5.400000095367432,40.264984130859375,0,
 339085,-0.13720703125,-0.96044921875,-0.22802734375,0.7621951103210449,-3.567073345184326,6.006097793579102,20.549999237060547,4.349999904632568,-6.300000190734863,40.21706008911133,0,
 339095,-0.1396484375,-0.955322265625,-0.22607421875,2.103658676147461,-4.939024448394775,6.463414669036865,20.549999237060547,4.349999904632568,-6.300000190734863,40.07329177856445,0,
 339105,-0.1396484375,-0.949951171875,-0.229248046875,3.353658676147461,-5.396341800689697,7.012195110321045,19.950000762939453,4.5,-5.400000095367432,40.264984130859375,0,
 339115,-0.147705078125,-0.953369140625,-0.218505859375,3.75,-6.097560882568359,7.560975551605225,19.950000762939453,4.050000190734863,-6.150000095367432,40.21706008911133,0,
 339125,-0.1435546875,-0.958740234375,-0.21728515625,3.8719513416290283,-6.737804889678955,8.384146690368652,21.149999618530273,3.299999952316284,-4.949999809265137,40.21706008911133,0,
 339135,-0.151123046875,-0.96484375,-0.206787109375,3.170731782913208,-6.615853786468506,9.542683601379395,21.149999618530273,3.299999952316284,-4.949999809265137,40.16913604736328,0,
 339145,-0.16455078125,-0.980224609375,-0.19921875,1.1280487775802612,-5.70121955871582,10.670731544494629,21.899999618530273,4.050000190734863,-6.900000095367432,40.025367736816406,0,
 339155,-0.163330078125,-0.978271484375,-0.1865234375,-1.7073171138763428,-4.542683124542236,11.158536911010742,21.75,6.300000190734863,-6.75,40.264984130859375,0,
 339165,-0.16748046875,-0.971923828125,-0.19287109375,-3.567073345184326,-3.1402440071105957,11.79878044128418,21.75,3.1500000953674316,-7.800000190734863,40.16913604736328,0,
 339175,-0.167724609375,-0.96630859375,-0.20068359375,-5.579268455505371,-1.737804889678955,11.310976028442383,21.75,3.1500000953674316,-7.800000190734863,40.264984130859375,0,
 339185,-0.16845703125,-0.9501953125,-0.201416015625,-6.432927131652832,-0.9756097793579102,11.219511985778809,22.649999618530273,2.0999999046325684,-6.900000095367432,40.40875244140625,0,
 339195,-0.1611328125,-0.933349609375,-0.220947265625,-6.493902683258057,-0.5182926654815674,10.213415145874023,21.0,5.099999904632568,-5.550000190734863,40.025367736816406,0,
 339205,-0.1640625,-0.926513671875,-0.231201171875,-5.5182929039001465,-0.5792682766914368,9.359756469726562,21.899999618530273,5.25,-6.900000095367432,40.16913604736328,0,
 339215,-0.15234375,-0.92529296875,-0.23828125,-3.5060975551605225,-1.6768293380737305,8.59756088256836,19.649999618530273,5.699999809265137,-9.449999809265137,39.88159942626953,0,
 339225,-0.154541015625,-0.927490234375,-0.236328125,-0.9756097793579102,-3.3231709003448486,7.9268293380737305,19.649999618530273,5.699999809265137,-9.449999809265137,40.552520751953125,0,
 339235,-0.156005859375,-0.921142578125,-0.23193359375,1.6463414430618286,-5.060975551605225,7.103658676147461,20.399999618530273,4.5,-6.150000095367432,40.3608283996582,0,
 339245,-0.156005859375,-0.930419921875,-0.23291015625,4.207317352294922,-7.042683124542236,7.5,22.799999237060547,4.650000095367432,-6.0,40.07329177856445,0,
 339255,-0.162841796875,-0.943359375,-0.220947265625,6.158536911010742,-8.47560977935791,7.621951580047607,23.100000381469727,2.8499999046325684,-5.699999809265137,40.264984130859375,0,
 339265,-0.163818359375,-0.953369140625,-0.212890625,6.95121955871582,-9.817073822021484,7.896341800689697,23.100000381469727,2.8499999046325684,-5.699999809265137,40.3608283996582,0,
 339275,-0.171875,-0.959716796875,-0.209228515625,6.981707572937012,-10.091464042663574,8.47560977935791,22.200000762939453,4.5,-5.699999809265137,40.07329177856445,0,
 339285,-0.1787109375,-0.965087890625,-0.1943359375,6.158536911010742,-10.609756469726562,8.963415145874023,21.299999237060547,3.9000000953674316,-7.5,40.21706008911133,0,
 339295,-0.185302734375,-0.957275390625,-0.194580078125,4.878048896789551,-10.243902206420898,9.17682933807373,21.149999618530273,3.75,-6.150000095367432,40.21706008911133,0,
 339305,-0.18994140625,-0.954345703125,-0.19091796875,3.6890244483947754,-9.481707572937012,9.268292427062988,21.149999618530273,3.75,-6.150000095367432,40.16913604736328,0,
 339315,-0.193603515625,-0.94677734375,-0.19580078125,2.408536672592163,-8.170731544494629,9.207317352294922,22.799999237060547,5.400000095367432,-10.5,40.3608283996582,0,
 339325,-0.1982421875,-0.945068359375,-0.191162109375,1.8292683362960815,-7.317073345184326,8.47560977935791,21.899999618530273,2.8499999046325684,-7.949999809265137,40.264984130859375,0,
 339335,-0.193359375,-0.93701171875,-0.19482421875,1.097561001777649,-5.670732021331787,7.743902683258057,22.799999237060547,5.099999904632568,-8.25,40.21706008911133,0,
 339345,-0.19775390625,-0.93310546875,-0.20166015625,1.5548781156539917,-4.817073345184326,6.890244007110596,22.799999237060547,5.099999904632568,-8.25,40.16913604736328,0,
 339355,-0.1884765625,-0.93212890625,-0.199462890625,1.7073171138763428,-4.0853657722473145,5.945122241973877,21.0,2.25,-6.300000190734863,40.3608283996582,0,
 339365,-0.1923828125,-0.927734375,-0.202880859375,2.103658676147461,-3.2012195587158203,4.72560977935791,21.899999618530273,4.5,-7.650000095367432,40.07329177856445,0,
 339375,-0.19140625,-0.930908203125,-0.1962890625,2.2560975551605225,-2.6219513416290283,4.02439022064209,21.149999618530273,2.549999952316284,-4.949999809265137,40.3608283996582,0,
 339385,-0.19189453125,-0.937255859375,-0.197265625,1.9817073345184326,-2.103658676147461,2.9268293380737305,22.049999237060547,3.9000000953674316,-7.800000190734863,40.40875244140625,0,
 339395,-0.194580078125,-0.940185546875,-0.198486328125,2.408536672592163,-1.585365891456604,2.5304877758026123,22.049999237060547,3.9000000953674316,-7.800000190734863,40.07329177856445,0,
 339405,-0.191162109375,-0.9375,-0.205810546875,2.4390244483947754,-1.6768293380737305,2.3475611209869385,21.450000762939453,3.75,-7.650000095367432,40.21706008911133,0,
 339415,-0.19287109375,-0.930419921875,-0.196044921875,2.378048896789551,-1.7682926654815674,1.7682926654815674,21.0,3.1500000953674316,-9.300000190734863,40.21706008911133,0,
 339425,-0.19287109375,-0.93994140625,-0.19677734375,3.1402440071105957,-1.5243902206420898,1.3719512224197388,21.75,5.099999904632568,-7.800000190734863,40.3608283996582,0,
 339435,-0.188720703125,-0.93212890625,-0.202392578125,3.3231709003448486,-1.2195122241973877,1.3109756708145142,21.75,5.099999904632568,-7.800000190734863,40.264984130859375,0,
 339445,-0.190185546875,-0.931884765625,-0.197021484375,4.054878234863281,-1.432926893234253,0.4878048896789551,21.0,1.9500000476837158,-7.050000190734863,40.07329177856445,0,
 339456,-0.187255859375,-0.93310546875,-0.199951171875,4.786585330963135,-1.8292683362960815,-0.15243902802467346,21.75,2.25,-6.75,40.21706008911133,0,
 339466,-0.19140625,-0.933837890625,-0.20166015625,5.5182929039001465,-2.0731706619262695,-0.3353658616542816,21.149999618530273,2.8499999046325684,-8.399999618530273,40.07329177856445,0,
 339476,-0.19580078125,-0.946533203125,-0.19091796875,5.9146342277526855,-2.1646342277526855,-0.24390244483947754,21.149999618530273,2.8499999046325684,-8.399999618530273,40.21706008911133,0,
 339486,-0.1875,-0.953125,-0.1923828125,6.006097793579102,-2.3475611209869385,0.12195122241973877,21.75,3.450000047683716,-6.75,40.16913604736328,0,
 339496,-0.19091796875,-0.955322265625,-0.18994140625,5.152439117431641,-2.195122003555298,0.5487805008888245,23.399999618530273,5.25,-6.449999809265137,40.16913604736328,0,
 339506,-0.193603515625,-0.956787109375,-0.18115234375,3.7195122241973877,-2.103658676147461,1.0670732259750366,21.75,3.9000000953674316,-6.75,40.07329177856445,0,
 339516,-0.195556640625,-0.957763671875,-0.175537109375,2.4695122241973877,-1.3109756708145142,1.432926893234253,21.75,3.9000000953674316,-6.75,40.3608283996582,0,
 339526,-0.194580078125,-0.951416015625,-0.182861328125,1.3719512224197388,-1.0365853309631348,1.7073171138763428,22.799999237060547,4.349999904632568,-7.800000190734863,40.16913604736328,0,
 339536,-0.18701171875,-0.94921875,-0.178466796875,0.7317073345184326,-1.0365853309631348,2.1341464519500732,22.799999237060547,3.450000047683716,-7.800000190734863,39.88159942626953,0,
 339546,-0.19677734375,-0.9453125,-0.180908203125,0.3353658616542816,-0.3658536672592163,1.6768293380737305,22.649999618530273,3.75,-7.199999809265137,40.3608283996582,0,
 339556,-0.197509765625,-0.94482421875,-0.18603515625,0.12195122241973877,-0.21341463923454285,1.9512195587158203,22.049999237060547,2.700000047683716,-6.300000190734863,40.16913604736328,0,
 339566,-0.194580078125,-0.9443359375,-0.181884765625,-0.030487805604934692,-0.27439025044441223,1.8597561120986938,22.049999237060547,2.700000047683716,-6.300000190734863,40.21706008911133,0,
 339576,-0.1923828125,-0.938232421875,-0.180908203125,-0.060975611209869385,0.15243902802467346,1.8597561120986938,22.200000762939453,3.75,-6.900000095367432,40.16913604736328,0,
 339586,-0.191650390625,-0.945068359375,-0.17626953125,-1.0365853309631348,0.6097561120986938,1.6158536672592163,22.5,5.099999904632568,-6.300000190734863,40.21706008911133,0,
 339596,-0.196044921875,-0.945556640625,-0.181884765625,-1.25,1.0365853309631348,1.6768293380737305,22.799999237060547,2.700000047683716,-8.25,40.264984130859375,0,
 339606,-0.191162109375,-0.94091796875,-0.177978515625,-2.1646342277526855,1.2804877758026123,1.5548781156539917,22.799999237060547,2.700000047683716,-8.25,40.40875244140625,0,
 339616,-0.19873046875,-0.9404296875,-0.176025390625,-1.920731782913208,1.920731782913208,0.7317073345184326,24.149999618530273,3.75,-7.199999809265137,40.3608283996582,0,
 339626,-0.19091796875,-0.9375,-0.180908203125,-3.0487804412841797,2.4695122241973877,-0.5487805008888245,22.799999237060547,3.9000000953674316,-11.550000190734863,40.07329177856445,0,
 339636,-0.19921875,-0.932373046875,-0.1845703125,-2.987804889678955,2.865853786468506,-1.402438998222351,22.049999237060547,2.700000047683716,-8.550000190734863,40.07329177856445,0,
 339646,-0.20166015625,-0.92529296875,-0.185791015625,-2.8353660106658936,3.079268455505371,-3.1402440071105957,22.049999237060547,2.700000047683716,-8.550000190734863,40.21706008911133,0,
 339656,-0.203369140625,-0.933349609375,-0.182861328125,-2.5609755516052246,4.054878234863281,-4.908536911010742,23.100000381469727,3.75,-7.199999809265137,40.3608283996582,0,
 339666,-0.201416015625,-0.926025390625,-0.183837890625,-2.6219513416290283,5.121951103210449,-6.95121955871582,21.450000762939453,2.0999999046325684,-6.900000095367432,40.3608283996582,0,
 339676,-0.204345703125,-0.9306640625,-0.191650390625,-2.9268293380737305,5.487804889678955,-8.963415145874023,22.049999237060547,3.450000047683716,-7.800000190734863,40.264984130859375,0,
 339686,-0.19580078125,-0.934326171875,-0.195556640625,-2.591463565826416,6.036585330963135,-10.54878044128418,22.049999237060547,3.450000047683716,-7.800000190734863,39.88159942626953,0,
 339696,-0.19677734375,-0.939208984375,-0.190185546875,-2.1646342277526855,6.737804889678955,-11.890244483947754,21.75,2.700000047683716,-7.050000190734863,40.40875244140625,0,
 339706,-0.18408203125,-0.944091796875,-0.189453125,-1.4939024448394775,7.652439117431641,-12.682927131652832,23.399999618530273,3.75,-7.199999809265137,40.264984130859375,0,
 339716,-0.182861328125,-0.953369140625,-0.193359375,-1.5243902206420898,7.439024448394775,-13.231707572937012,22.799999237060547,3.1500000953674316,-8.25,40.07329177856445,0,
 339726,-0.179443359375,-0.951904296875,-0.1845703125,-1.585365891456604,7.896341800689697,-13.445122718811035,23.549999237060547,5.099999904632568,-10.5,40.3608283996582,0,
 339736,-0.177001953125,-0.96337890625,-0.19091796875,-1.7987805604934692,8.04878044128418,-12.713415145874023,23.549999237060547,5.099999904632568,-10.5,40.21706008911133,0,
 339746,-0.166015625,-0.961669921875,-0.198974609375,-2.195122003555298,8.170731544494629,-12.012195587158203,21.450000762939453,4.050000190734863,-7.949999809265137,40.3608283996582,0,
 339756,-0.159912109375,-0.95703125,-0.19482421875,-2.103658676147461,7.987804889678955,-11.158536911010742,22.5,4.650000095367432,-7.800000190734863,40.40875244140625,0,
 339766,-0.15234375,-0.958251953125,-0.200439453125,-1.585365891456604,7.256097793579102,-9.908536911010742,22.200000762939453,3.75,-7.199999809265137,40.40875244140625,0,
 339776,-0.15234375,-0.955810546875,-0.209228515625,-0.8231707215309143,5.762195110321045,-8.140244483947754,22.200000762939453,3.75,-7.199999809265137,40.3608283996582,0,
 339786,-0.145751953125,-0.95166015625,-0.208984375,0.6707317233085632,4.420732021331787,-6.646341800689697,21.299999237060547,3.450000047683716,-7.050000190734863,40.07329177856445,0,
 339796,-0.152587890625,-0.9599609375,-0.20263671875,2.195122003555298,2.77439022064209,-4.72560977935791,21.0,3.1500000953674316,-6.300000190734863,40.40875244140625,0,
 339806,-0.154052734375,-0.963134765625,-0.193603515625,3.0487804412841797,1.7073171138763428,-3.2317073345184326,21.149999618530273,3.75,-7.949999809265137,40.16913604736328,0,
 339816,-0.1591796875,-0.97021484375,-0.190185546875,2.896341562271118,0.9756097793579102,-1.9817073345184326,21.149999618530273,3.75,-7.949999809265137,40.16913604736328,0,
 339826,-0.162353515625,-0.970947265625,-0.187255859375,2.682926893234253,0.3658536672592163,-1.1585365533828735,19.350000381469727,7.800000190734863,-8.25,40.264984130859375,0,
 339836,-0.1611328125,-0.9716796875,-0.179443359375,1.6158536672592163,0.3658536672592163,0.15243902802467346,19.799999237060547,3.450000047683716,-9.0,40.07329177856445,0,
 339846,-0.161865234375,-0.967529296875,-0.18359375,0.21341463923454285,0.21341463923454285,0.6402438879013062,21.149999618530273,5.25,-6.900000095367432,40.3608283996582,0,
 339856,-0.166259765625,-0.952880859375,-0.188720703125,-0.3048780560493469,-0.060975611209869385,0.5182926654815674,21.149999618530273,5.25,-6.900000095367432,40.16913604736328,0,
 339866,-0.166748046875,-0.94482421875,-0.197265625,-0.5792682766914368,0.0,0.7317073345184326,19.350000381469727,3.450000047683716,-6.75,40.3608283996582,0,
 339876,-0.163818359375,-0.94580078125,-0.19140625,-0.5792682766914368,-0.3353658616542816,0.21341463923454285,21.0,5.099999904632568,-7.050000190734863,40.07329177856445,0,
 339886,-0.167724609375,-0.947509765625,-0.189697265625,-0.3048780560493469,-0.24390244483947754,-0.030487805604934692,21.899999618530273,4.050000190734863,-7.650000095367432,40.21706008911133,0,
 339896,-0.1630859375,-0.942626953125,-0.182861328125,-0.24390244483947754,0.18292683362960815,-0.5182926654815674,21.75,5.099999904632568,-6.300000190734863,40.07329177856445,0,
 339906,-0.166259765625,-0.946044921875,-0.17626953125,-1.0365853309631348,0.396341472864151,-1.4939024448394775,19.950000762939453,4.949999809265137,-7.199999809265137,40.21706008911133,0,
 339916,-0.16259765625,-0.952880859375,-0.17822265625,-2.012195110321045,1.3414634466171265,-2.103658676147461,21.149999618530273,2.8499999046325684,-8.399999618530273,40.3608283996582,0,
 339926,-0.163330078125,-0.946044921875,-0.181396484375,-3.262195110321045,1.6463414430618286,-2.408536672592163,19.950000762939453,5.25,-7.650000095367432,40.264984130859375,0,
 339936,-0.161376953125,-0.94482421875,-0.18212890625,-4.0853657722473145,2.3475611209869385,-2.317073106765747,20.549999237060547,1.9500000476837158,-8.25,40.07329177856445,0,
 339946,-0.158447265625,-0.947021484375,-0.187255859375,-5.731707572937012,3.3841464519500732,-2.0426828861236572,20.549999237060547,1.9500000476837158,-8.25,40.3608283996582,0,
 339956,-0.157958984375,-0.944091796875,-0.195068359375,-5.457317352294922,3.567073345184326,-2.1341464519500732,21.0,3.1500000953674316,-7.050000190734863,40.264984130859375,0,
 339966,-0.1513671875,-0.941162109375,-0.203857421875,-4.695122241973877,3.3841464519500732,-1.7987805604934692,20.100000381469727,5.099999904632568,-6.75,40.3608283996582,0,
 339976,-0.1572265625,-0.95263671875,-0.204345703125,-3.445122003555298,3.1097562313079834,-1.7682926654815674,20.399999618530273,2.549999952316284,-6.900000095367432,40.07329177856445,0,
 339986,-0.16162109375,-0.949951171875,-0.193603515625,-3.262195110321045,2.5304877758026123,-1.7682926654815674,20.399999618530273,2.549999952316284,-6.900000095367432,40.3608283996582,0,
 339996,-0.160400390625,-0.955810546875,-0.197998046875,-3.1097562313079834,2.1341464519500732,-1.6158536672592163,21.450000762939453,3.299999952316284,-7.199999809265137,40.16913604736328,0,
 340006,-0.15478515625,-0.962646484375,-0.2001953125,-2.6219513416290283,1.8292683362960815,-1.3109756708145142,20.399999618530273,4.949999809265137,-5.699999809265137,40.07329177856445,0,
 340016,-0.15185546875,-0.953125,-0.212158203125,-2.0731706619262695,0.9756097793579102,-0.9756097793579102,22.200000762939453,2.8499999046325684,-6.900000095367432,40.3608283996582,0,
 340026,-0.1552734375,-0.955078125,-0.19921875,-1.6158536672592163,0.7012194991111755,-0.12195122241973877,22.200000762939453,2.8499999046325684,-6.900000095367432,40.07329177856445,0,
 340036,-0.154541015625,-0.94921875,-0.205322265625,0.24390244483947754,0.6402438879013062,0.3658536672592163,22.200000762939453,3.75,-10.649999618530273,40.07329177856445,0,
 340046,-0.16455078125,-0.940673828125,-0.2060546875,2.2865853309631348,1.1280487775802612,1.7073171138763428,22.049999237060547,3.450000047683716,-6.0,40.40875244140625,0,
 340056,-0.163330078125,-0.9609375,-0.19677734375,2.22560977935791,1.2804877758026123,2.408536672592163,20.700000762939453,4.5,-5.400000095367432,40.264984130859375,0,
 340066,-0.156005859375,-0.9658203125,-0.180908203125,1.1890244483947754,0.9756097793579102,2.896341562271118,20.700000762939453,4.5,-5.400000095367432,40.21706008911133,0,
 340076,-0.15478515625,-0.963134765625,-0.188720703125,-0.09146341681480408,0.7012194991111755,3.47560977935791,21.75,2.700000047683716,-6.300000190734863,40.16913604736328,0,
 340086,-0.1611328125,-0.944580078125,-0.197265625,-0.27439025044441223,0.9756097793579102,3.3231709003448486,21.149999618530273,3.75,-6.150000095367432,40.21706008911133,0,
 340096,-0.157470703125,-0.94970703125,-0.202392578125,-0.060975611209869385,0.8536585569381714,3.2012195587158203,19.950000762939453,4.949999809265137,-6.449999809265137,40.16913604736328,0,
 340106,-0.159912109375,-0.962158203125,-0.1865234375,-1.737804889678955,0.3353658616542816,3.1097562313079834,21.0,5.099999904632568,-6.0,40.40875244140625,0,
 340116,-0.152587890625,-0.9453125,-0.201171875,-3.0182926654815674,-0.09146341681480408,2.408536672592163,21.0,5.099999904632568,-6.0,40.07329177856445,0,
 340126,-0.158203125,-0.93310546875,-0.211181640625,-2.591463565826416,-0.7621951103210449,1.7682926654815674,20.100000381469727,4.650000095367432,-6.0,40.07329177856445,0,
 340136,-0.155517578125,-0.931396484375,-0.215087890625,-1.5243902206420898,-1.25,1.3719512224197388,22.799999237060547,5.400000095367432,-9.0,40.40875244140625,0,
 340146,-0.15576171875,-0.9384765625,-0.208251953125,0.3353658616542816,-1.7987805604934692,0.9146341681480408,20.100000381469727,3.450000047683716,-6.300000190734863,40.264984130859375,0,
 340156,-0.155517578125,-0.94873046875,-0.204345703125,1.1585365533828735,-2.317073106765747,1.1890244483947754,20.100000381469727,3.450000047683716,-6.300000190734863,40.16913604736328,0,
 340176,-0.162841796875,-0.965576171875,-0.189697265625,1.097561001777649,-2.591463565826416,2.103658676147461,20.549999237060547,3.1500000953674316,-6.300000190734863,40.025367736816406,0,
 340186,-0.161865234375,-0.960693359375,-0.189697265625,0.27439025044441223,-2.408536672592163,3.2012195587158203,22.049999237060547,4.650000095367432,-6.75,40.025367736816406,0,
 340196,-0.16650390625,-0.951171875,-0.192138671875,-0.7317073345184326,-2.804877996444702,3.567073345184326,22.049999237060547,4.650000095367432,-6.75,40.3608283996582,0,
 340206,-0.16552734375,-0.94482421875,-0.19677734375,-1.25,-2.3475611209869385,3.7195122241973877,20.549999237060547,2.700000047683716,-7.050000190734863,40.40875244140625,0,
 340216,-0.166748046875,-0.949462890625,-0.1943359375,-1.6768293380737305,-2.77439022064209,3.2317073345184326,21.299999237060547,3.9000000953674316,-7.050000190734863,40.40875244140625,0,
 340226,-0.171875,-0.94580078125,-0.19677734375,-1.9512195587158203,-2.22560977935791,2.6524391174316406,20.549999237060547,6.300000190734863,-8.550000190734863,40.07329177856445,0,
 340236,-0.171630859375,-0.94677734375,-0.190673828125,-2.682926893234253,-1.6768293380737305,2.0426828861236572,20.549999237060547,6.300000190734863,-8.550000190734863,40.264984130859375,0,
 340246,-0.1796875,-0.94091796875,-0.188720703125,-3.7195122241973877,-0.7317073345184326,1.1280487775802612,20.700000762939453,3.75,-6.150000095367432,40.16913604736328,0,
 340256,-0.175048828125,-0.94482421875,-0.18115234375,-4.29878044128418,0.24390244483947754,0.6402438879013062,21.450000762939453,3.299999952316284,-6.900000095367432,40.3608283996582,0,
 340267,-0.173095703125,-0.937744140625,-0.186279296875,-5.70121955871582,1.3414634466171265,-0.18292683362960815,22.799999237060547,3.1500000953674316,-6.300000190734863,40.16913604736328,0,
 340277,-0.174072265625,-0.95263671875,-0.1865234375,-6.829268455505371,1.920731782913208,-1.1280487775802612,19.350000381469727,3.9000000953674316,-6.75,40.16913604736328,0,
 340287,-0.167236328125,-0.945068359375,-0.1953125,-9.420731544494629,3.2012195587158203,-1.8292683362960815,19.350000381469727,3.9000000953674316,-6.75,40.40875244140625,0,
 340297,-0.170654296875,-0.9375,-0.192626953125,-10.243902206420898,4.115853786468506,-2.408536672592163,22.649999618530273,3.75,-6.449999809265137,40.3608283996582,0,
 340307,-0.165283203125,-0.934326171875,-0.19384765625,-11.036585807800293,5.152439117431641,-3.2926828861236572,21.0,3.9000000953674316,-6.0,40.07329177856445,0,
 340317,-0.160888671875,-0.94140625,-0.205322265625,-11.890244483947754,5.884146690368652,-4.146341323852539,20.399999618530273,4.949999809265137,-5.699999809265137,40.3608283996582,0,
 340327,-0.16552734375,-0.937255859375,-0.210693359375,-11.920731544494629,6.371951580047607,-4.237804889678955,20.399999618530273,4.949999809265137,-5.699999809265137,40.16913604736328,0,
 340337,-0.16357421875,-0.930419921875,-0.210205078125,-11.615854263305664,6.432927131652832,-5.365853786468506,20.700000762939453,4.050000190734863,-7.949999809265137,40.21706008911133,0,
 340347,-0.154052734375,-0.939208984375,-0.21484375,-10.914634704589844,6.79878044128418,-5.609755992889404,21.0,1.9500000476837158,-7.800000190734863,40.3608283996582,0,
 340357,-0.158447265625,-0.94384765625,-0.22021484375,-10.182927131652832,6.493902683258057,-5.945122241973877,22.799999237060547,3.9000000953674316,-7.050000190734863,40.21706008911133,0,
 340367,-0.158447265625,-0.941162109375,-0.22021484375,-9.756097793579102,6.493902683258057,-6.128048896789551,22.799999237060547,3.9000000953674316,-7.050000190734863,40.07329177856445,0,
 340377,-0.157958984375,-0.940185546875,-0.22705078125,-8.414634704589844,5.8231706619262695,-6.189024448394775,22.049999237060547,3.1500000953674316,-6.300000190734863,40.21706008911133,0,
 340387,-0.15380859375,-0.939208984375,-0.235595703125,-7.469512462615967,4.847560882568359,-5.853658676147461,19.350000381469727,3.1500000953674316,-4.050000190734863,40.025367736816406,0,
 340397,-0.148681640625,-0.940673828125,-0.238525390625,-4.969512462615967,4.2682929039001465,-6.006097793579102,21.75,3.1500000953674316,-4.050000190734863,40.16913604736328,0,
 340407,-0.147216796875,-0.94775390625,-0.241943359375,-0.8231707215309143,1.9512195587158203,-5.640244007110596,21.75,3.1500000953674316,-4.050000190734863,40.21706008911133,0,
 340417,-0.143310546875,-0.9326171875,-0.24169921875,1.3414634466171265,1.0060975551605225,-4.817073345184326,21.299999237060547,3.450000047683716,-6.75,39.977447509765625,0,
 340427,-0.1435546875,-0.946044921875,-0.232421875,2.9268293380737305,0.24390244483947754,-3.9939024448394775,19.950000762939453,3.75,-6.449999809265137,40.21706008911133,0,
 340437,-0.139892578125,-0.938720703125,-0.237060546875,4.6646342277526855,-0.6707317233085632,-3.2926828861236572,20.399999618530273,3.299999952316284,-4.949999809265137,40.21706008911133,0,
 340447,-0.14306640625,-0.938720703125,-0.2314453125,6.219512462615967,-1.1585365533828735,-2.1646342277526855,20.700000762939453,4.5,-6.900000095367432,40.16913604736328,0,
 340457,-0.1318359375,-0.94775390625,-0.223388671875,6.890244007110596,-2.012195110321045,-0.6097561120986938,20.399999618530273,3.75,-6.900000095367432,40.40875244140625,0,
 340467,-0.135498046875,-0.950439453125,-0.21875,7.378048896789551,-2.9268293380737305,1.0670732259750366,21.450000762939453,4.050000190734863,-6.900000095367432,40.07329177856445,0,
 340477,-0.136474609375,-0.96435546875,-0.22216796875,7.591463565826416,-3.5060975551605225,2.9268293380737305,21.0,3.450000047683716,-6.0,40.16913604736328,0,
 340487,-0.142822265625,-0.971923828125,-0.21435546875,6.5853657722473145,-3.8109757900238037,4.908536911010742,20.700000762939453,4.949999809265137,-6.900000095367432,40.264984130859375,0,
 340497,-0.153564453125,-0.978759765625,-0.195068359375,4.1768293380737305,-3.1402440071105957,6.432927131652832,20.700000762939453,4.949999809265137,-6.900000095367432,40.3608283996582,0,
 340507,-0.1552734375,-0.98291015625,-0.185302734375,0.396341472864151,-2.1646342277526855,6.737804889678955,21.299999237060547,4.650000095367432,-7.050000190734863,40.16913604736328,0,
 340517,-0.165283203125,-0.973876953125,-0.18896484375,-2.682926893234253,-0.9451219439506531,6.310975551605225,19.950000762939453,3.75,-4.650000095367432,40.16913604736328,0,
 340527,-0.1748046875,-0.950439453125,-0.1943359375,-4.817073345184326,0.7012194991111755,4.847560882568359,20.700000762939453,4.050000190734863,-5.400000095367432,40.3608283996582,0,
 340537,-0.166015625,-0.938720703125,-0.20556640625,-5.731707572937012,1.7073171138763428,3.2317073345184326,20.700000762939453,4.050000190734863,-5.400000095367432,40.3608283996582,0,
 340547,-0.163818359375,-0.928955078125,-0.208740234375,-5.365853786468506,1.8597561120986938,0.4878048896789551,22.049999237060547,2.700000047683716,-10.800000190734863,40.3608283996582,0,
 340557,-0.162109375,-0.916748046875,-0.217041015625,-5.365853786468506,2.6524391174316406,-1.8902438879013062,20.700000762939453,4.5,-5.400000095367432,40.3608283996582,0,
 340567,-0.153564453125,-0.937255859375,-0.205322265625,-6.52439022064209,3.3231709003448486,-3.5365853309631348,21.0,4.349999904632568,-5.550000190734863,39.977447509765625,0,
 340577,-0.14599609375,-0.92822265625,-0.217041015625,-7.591463565826416,3.6890244483947754,-4.908536911010742,21.0,4.349999904632568,-5.550000190734863,40.21706008911133,0,
 340587,-0.149169921875,-0.923095703125,-0.2216796875,-7.987804889678955,3.5975611209869385,-5.243902683258057,21.149999618530273,4.050000190734863,-5.699999809265137,40.3608283996582,0,
 340597,-0.14208984375,-0.9248046875,-0.232421875,-7.103658676147461,3.7804877758026123,-5.762195110321045,19.950000762939453,3.75,-4.949999809265137,40.21706008911133,0,
 340607,-0.142822265625,-0.919921875,-0.236328125,-5.121951103210449,3.3841464519500732,-6.189024448394775,20.399999618530273,3.299999952316284,-5.699999809265137,40.264984130859375,0,
 340617,-0.14306640625,-0.93408203125,-0.232666015625,-2.987804889678955,2.317073106765747,-6.25,21.450000762939453,4.949999809265137,-5.400000095367432,39.977447509765625,0,
 340627,-0.137939453125,-0.943603515625,-0.23291015625,-1.097561001777649,1.1890244483947754,-6.219512462615967,19.200000762939453,3.75,-6.449999809265137,40.16913604736328,0,
 340637,-0.1328125,-0.936767578125,-0.242431640625,0.6402438879013062,-0.060975611209869385,-5.609755992889404,20.549999237060547,4.650000095367432,-6.300000190734863,40.3608283996582,0,
 340657,-0.130615234375,-0.945068359375,-0.229248046875,4.939024448394775,-2.682926893234253,-3.5975611209869385,20.399999618530273,5.699999809265137,-5.699999809265137,40.07329177856445,0,
 340667,-0.136474609375,-0.955078125,-0.225341796875,6.615853786468506,-3.8109757900238037,-2.77439022064209,20.399999618530273,5.699999809265137,-5.699999809265137,39.977447509765625,0,
 340677,-0.1474609375,-0.96337890625,-0.2158203125,7.530488014221191,-4.237804889678955,-1.4634146690368652,20.549999237060547,3.9000000953674316,-4.800000190734863,40.264984130859375,0,
 340687,-0.147705078125,-0.965087890625,-0.206787109375,6.737804889678955,-3.9024391174316406,-0.6402438879013062,20.549999237060547,5.099999904632568,-6.300000190734863,40.07329177856445,0,
 340697,-0.15673828125,-0.97119140625,-0.197998046875,5.9146342277526855,-3.0182926654815674,-0.030487805604934692,19.200000762939453,2.549999952316284,-5.400000095367432,40.16913604736328,0,
 340707,-0.15380859375,-0.96240234375,-0.20361328125,4.695122241973877,-1.8292683362960815,0.5487805008888245,19.200000762939453,2.549999952316284,-5.400000095367432,40.21706008911133,0,
 340717,-0.14990234375,-0.954345703125,-0.20556640625,3.567073345184326,-0.8231707215309143,0.396341472864151,19.200000762939453,4.050000190734863,-4.650000095367432,40.025367736816406,0,
 340727,-0.15234375,-0.949951171875,-0.214599609375,3.4146342277526855,-0.060975611209869385,0.3048780560493469,19.799999237060547,4.650000095367432,-6.300000190734863,40.07329177856445,0,
 340737,-0.1513671875,-0.939453125,-0.21484375,3.75,0.27439025044441223,-0.4268292784690857,20.399999618530273,4.949999809265137,-5.400000095367432,40.07329177856445,0,
 340747,-0.140380859375,-0.9365234375,-0.212890625,3.9024391174316406,0.396341472864151,-1.1280487775802612,20.399999618530273,4.949999809265137,-5.400000095367432,40.3608283996582,0,
 340757,-0.1435546875,-0.941162109375,-0.2099609375,4.5731706619262695,0.5792682766914368,-1.5548781156539917,21.0,3.450000047683716,-6.0,40.07329177856445,0,
 340767,-0.133056640625,-0.937744140625,-0.209716796875,5.030488014221191,0.030487805604934692,-2.0426828861236572,20.100000381469727,5.849999904632568,-6.0,40.025367736816406,0,
 340777,-0.13525390625,-0.942138671875,-0.2099609375,5.640244007110596,-0.5487805008888245,-2.317073106765747,20.100000381469727,3.9000000953674316,-6.75,40.264984130859375,0,
 340787,-0.136962890625,-0.944091796875,-0.20166015625,5.670732021331787,-1.1280487775802612,-2.0731706619262695,20.100000381469727,3.9000000953674316,-6.75,40.16913604736328,0,
 340797,-0.1376953125,-0.94580078125,-0.197021484375,5.365853786468506,-0.8231707215309143,-2.2865853309631348,20.549999237060547,5.099999904632568,-7.050000190734863,40.16913604736328,0,
 340807,-0.14111328125,-0.956787109375,-0.198486328125,4.939024448394775,-0.6707317233085632,-2.22560977935791,20.549999237060547,3.1500000953674316,-6.0,40.3608283996582,0,
 340817,-0.14501953125,-0.960205078125,-0.194091796875,3.2317073345184326,-0.15243902802467346,-2.5,19.950000762939453,4.050000190734863,-7.199999809265137,39.977447509765625,0,
 340827,-0.145263671875,-0.95703125,-0.1943359375,1.585365891456604,0.3353658616542816,-2.682926893234253,19.200000762939453,4.949999809265137,-6.900000095367432,40.21706008911133,0,
 340837,-0.150146484375,-0.95556640625,-0.189453125,0.5182926654815674,1.3719512224197388,-2.103658676147461,19.200000762939453,4.949999809265137,-6.900000095367432,40.3608283996582,0,
 340847,-0.1435546875,-0.965576171875,-0.193603515625,-0.27439025044441223,2.1646342277526855,-2.5,20.700000762939453,5.699999809265137,-6.150000095367432,40.3608283996582,0,
 340857,-0.140380859375,-0.9697265625,-0.1904296875,-3.2012195587158203,3.4146342277526855,-2.1646342277526855,22.799999237060547,3.9000000953674316,-7.800000190734863,40.025367736816406,0,
 340867,-0.1337890625,-0.9609375,-0.191162109375,-3.4146342277526855,3.445122003555298,-2.012195110321045,21.0,4.650000095367432,-6.300000190734863,40.025367736816406,0,
 340877,-0.13330078125,-0.966552734375,-0.19580078125,-4.695122241973877,2.804877996444702,-1.8597561120986938,21.0,4.650000095367432,-6.300000190734863,40.16913604736328,0,
 340887,-0.132080078125,-0.9462890625,-0.211181640625,-3.9024391174316406,2.0731706619262695,-1.2195122241973877,21.450000762939453,5.699999809265137,-6.150000095367432,40.025367736816406,0,
 340897,-0.1337890625,-0.9501953125,-0.214111328125,-3.658536672592163,1.25,-0.3048780560493469,21.299999237060547,5.099999904632568,-5.550000190734863,40.16913604736328,0,
 340907,-0.130859375,-0.950439453125,-0.209716796875,-2.591463565826416,0.6707317233085632,0.060975611209869385,19.649999618530273,5.25,-6.150000095367432,40.07329177856445,0,
 340917,-0.128662109375,-0.951904296875,-0.210693359375,-1.7987805604934692,0.21341463923454285,0.8841463327407837,19.649999618530273,5.25,-6.150000095367432,40.40875244140625,0,
 340927,-0.1376953125,-0.95849609375,-0.20556640625,-1.920731782913208,-0.3353658616542816,1.3109756708145142,21.149999618530273,4.5,-5.699999809265137,40.16913604736328,0,
 340937,-0.12890625,-0.95849609375,-0.203369140625,-2.22560977935791,0.060975611209869385,2.0731706619262695,19.799999237060547,4.349999904632568,-11.550000190734863,40.16913604736328,0,
 340947,-0.134765625,-0.959716796875,-0.2041015625,-2.5609755516052246,-0.09146341681480408,2.4390244483947754,20.399999618530273,3.75,-10.199999809265137,40.3608283996582,0,
 340957,-0.13720703125,-0.954833984375,-0.20068359375,-3.0487804412841797,0.27439025044441223,1.9817073345184326,20.399999618530273,3.75,-10.199999809265137,40.264984130859375,0,
 340967,-0.143798828125,-0.94921875,-0.204345703125,-3.0182926654815674,0.6097561120986938,1.5243902206420898,20.700000762939453,4.949999809265137,-10.199999809265137,40.264984130859375,0,
 340977,-0.1455078125,-0.940185546875,-0.208984375,-2.6524391174316406,0.9451219439506531,0.792682945728302,20.399999618530273,3.299999952316284,-7.949999809265137,40.16913604736328,0,
 340987,-0.14111328125,-0.940185546875,-0.20458984375,-2.3475611209869385,1.25,0.4573170840740204,20.549999237060547,3.450000047683716,-6.0,40.264984130859375,0,
 340997,-0.1455078125,-0.943115234375,-0.20654296875,-2.012195110321045,1.1890244483947754,-0.15243902802467346,21.299999237060547,3.9000000953674316,-6.0,40.21706008911133,0,
 341007,-0.13720703125,-0.942138671875,-0.20703125,-1.6768293380737305,1.4634146690368652,-0.4573170840740204,20.700000762939453,4.949999809265137,-5.699999809265137,40.025367736816406,0,
 341017,-0.130859375,-0.93994140625,-0.21337890625,-1.0670732259750366,1.4634146690368652,-0.3658536672592163,19.950000762939453,3.75,-6.150000095367432,40.3608283996582,0,
 341027,-0.137939453125,-0.94482421875,-0.216064453125,-0.6402438879013062,1.3719512224197388,-0.4878048896789551,20.549999237060547,5.400000095367432,-6.0,40.264984130859375,0,
 341037,-0.132080078125,-0.95263671875,-0.21142578125,0.396341472864151,1.2804877758026123,-0.396341472864151,20.549999237060547,4.650000095367432,-6.0,40.3608283996582,0,
 341048,-0.13671875,-0.950439453125,-0.2099609375,0.4573170840740204,1.3719512224197388,0.4268292784690857,20.549999237060547,4.650000095367432,-6.0,40.40875244140625,0,
 341058,-0.13818359375,-0.95263671875,-0.21240234375,0.9756097793579102,1.097561001777649,0.9146341681480408,21.75,6.599999904632568,-7.800000190734863,39.88159942626953,0,
 341068,-0.13720703125,-0.954345703125,-0.208740234375,0.8536585569381714,1.1280487775802612,1.3414634466171265,21.0,5.400000095367432,-6.300000190734863,40.264984130859375,0,
 341078,-0.142333984375,-0.951904296875,-0.21142578125,1.3109756708145142,0.9451219439506531,1.4939024448394775,20.100000381469727,4.650000095367432,-6.75,40.07329177856445,0,
 341088,-0.137451171875,-0.95849609375,-0.208740234375,0.8841463327407837,1.0670732259750366,1.7073171138763428,20.100000381469727,4.650000095367432,-6.75,40.50459671020508,0,
 341098,-0.142578125,-0.95166015625,-0.204833984375,0.4268292784690857,0.8536585569381714,1.432926893234253,20.549999237060547,5.849999904632568,-4.800000190734863,40.264984130859375,0,
 341108,-0.138671875,-0.9521484375,-0.205322265625,-0.060975611209869385,1.1585365533828735,1.737804889678955,20.700000762939453,3.75,-5.400000095367432,40.07329177856445,0,
 341118,-0.138916015625,-0.952880859375,-0.208251953125,-0.4268292784690857,1.2195122241973877,1.432926893234253,20.549999237060547,4.650000095367432,-5.550000190734863,40.21706008911133,0,
 341128,-0.1337890625,-0.953857421875,-0.206787109375,-1.097561001777649,1.3719512224197388,1.3109756708145142,20.549999237060547,4.650000095367432,-5.550000190734863,40.16913604736328,0,
 341138,-0.139404296875,-0.94482421875,-0.200439453125,-1.7682926654815674,0.6097561120986938,1.097561001777649,20.399999618530273,5.25,-6.449999809265137,40.552520751953125,0,
 341148,-0.1435546875,-0.938720703125,-0.212646484375,-2.9268293380737305,0.7317073345184326,0.3353658616542816,19.649999618530273,4.5,-6.150000095367432,40.264984130859375,0,
 341158,-0.1513671875,-0.936279296875,-0.2041015625,-3.0487804412841797,1.0670732259750366,-0.9451219439506531,19.649999618530273,5.699999809265137,-8.399999618530273,39.737831115722656,0,
 341168,-0.14990234375,-0.94384765625,-0.206298828125,-2.896341562271118,1.6768293380737305,-2.77439022064209,19.649999618530273,5.699999809265137,-8.399999618530273,40.16913604736328,0,
 341178,-0.140869140625,-0.95166015625,-0.200439453125,-3.6890244483947754,3.0487804412841797,-3.0487804412841797,20.399999618530273,4.949999809265137,-5.699999809265137,40.16913604736328,0,
 341188,-0.149169921875,-0.955810546875,-0.19921875,-4.45121955871582,4.29878044128418,-2.865853786468506,19.950000762939453,5.699999809265137,-6.150000095367432,40.025367736816406,0,
 341198,-0.13134765625,-0.961181640625,-0.20458984375,-5.670732021331787,5.945122241973877,-2.1341464519500732,19.649999618530273,3.299999952316284,-5.400000095367432,40.3608283996582,0,
 341208,-0.130615234375,-0.95654296875,-0.21435546875,-6.310975551605225,6.554878234863281,-0.792682945728302,20.100000381469727,4.650000095367432,-6.0,39.88159942626953,0,
 341218,-0.11962890625,-0.94921875,-0.22265625,-5.609755992889404,6.5853657722473145,1.3719512224197388,20.100000381469727,4.650000095367432,-6.0,40.07329177856445,0,
 341228,-0.1181640625,-0.95556640625,-0.225341796875,-3.9939024448394775,6.554878234863281,3.75,20.700000762939453,2.8499999046325684,-6.150000095367432,40.40875244140625,0,
 341238,-0.1044921875,-0.96044921875,-0.221923828125,-2.0426828861236572,5.97560977935791,6.219512462615967,18.899999618530273,4.5,-4.650000095367432,40.16913604736328,0,
 341248,-0.115478515625,-0.952880859375,-0.235595703125,-1.0670732259750366,4.054878234863281,8.932927131652832,20.549999237060547,5.099999904632568,-5.550000190734863,40.21706008911133,0,
 341258,-0.115478515625,-0.937255859375,-0.24951171875,0.8231707215309143,0.7317073345184326,10.82317066192627,20.549999237060547,5.099999904632568,-5.550000190734863,40.16913604736328,0,
 341268,-0.122314453125,-0.92041015625,-0.25439453125,3.8719513416290283,-2.9573171138763428,11.40243911743164,19.649999618530273,2.549999952316284,-7.949999809265137,40.025367736816406,0,
 341278,-0.1357421875,-0.92138671875,-0.24560546875,8.109756469726562,-6.280488014221191,10.884146690368652,19.350000381469727,5.849999904632568,-4.800000190734863,40.264984130859375,0,
 341288,-0.14697265625,-0.931396484375,-0.22705078125,12.408536911010742,-8.567073822021484,9.512195587158203,19.950000762939453,4.949999809265137,-5.400000095367432,40.264984130859375,0,
 341298,-0.16162109375,-0.946044921875,-0.20556640625,13.536585807800293,-9.542683601379395,7.9268293380737305,19.950000762939453,4.949999809265137,-5.400000095367432,40.21706008911133,0,
 341308,-0.17431640625,-0.969970703125,-0.1875,13.018293380737305,-8.59756088256836,6.402439117431641,21.450000762939453,4.5,-6.150000095367432,40.40875244140625,0,
 341318,-0.172119140625,-0.982177734375,-0.168701171875,5.152439117431641,-3.3841464519500732,3.8719513416290283,21.0,3.450000047683716,-7.5,40.21706008911133,0,
 341328,-0.17578125,-0.980224609375,-0.156005859375,-0.4268292784690857,-0.8536585569381714,2.896341562271118,21.149999618530273,4.050000190734863,-6.449999809265137,40.07329177856445,0,
 341338,-0.158935546875,-0.969482421875,-0.1689453125,-4.2682929039001465,1.5243902206420898,1.9512195587158203,21.149999618530273,4.050000190734863,-6.449999809265137,40.3608283996582,0,
 341348,-0.16845703125,-0.94580078125,-0.182373046875,-6.95121955871582,3.5060975551605225,0.030487805604934692,21.450000762939453,4.5,-7.199999809265137,40.16913604736328,0,
 341358,-0.162109375,-0.941162109375,-0.19970703125,-7.591463565826416,4.542683124542236,-1.8292683362960815,21.75,4.349999904632568,-5.550000190734863,40.16913604736328,0,
 341368,-0.15673828125,-0.929443359375,-0.203125,-7.560975551605225,5.121951103210449,-3.2926828861236572,21.0,3.450000047683716,-9.0,40.21706008911133,0,
 341378,-0.14892578125,-0.92333984375,-0.212646484375,-5.884146690368652,5.091463565826416,-3.75,19.950000762939453,5.25,-6.150000095367432,40.40875244140625,0,
 341388,-0.149658203125,-0.925048828125,-0.222412109375,-3.8109757900238037,4.847560882568359,-4.237804889678955,20.549999237060547,5.099999904632568,-6.75,40.40875244140625,0,
 341398,-0.13232421875,-0.9345703125,-0.22900390625,-1.4634146690368652,4.02439022064209,-3.75,21.0,3.450000047683716,-6.75,40.07329177856445,0,
 341408,-0.13916015625,-0.94775390625,-0.22412109375,0.9451219439506531,2.865853786468506,-2.5609755516052246,18.899999618530273,4.5,-4.650000095367432,40.21706008911133,0,
 341418,-0.134765625,-0.958251953125,-0.22607421875,2.9268293380737305,1.5548781156539917,-1.8292683362960815,21.75,4.349999904632568,-5.550000190734863,40.40875244140625,0,
 341428,-0.142578125,-0.95556640625,-0.22265625,5.091463565826416,0.4878048896789551,-0.6402438879013062,21.75,4.349999904632568,-5.550000190734863,40.21706008911133,0,
 341438,-0.137939453125,-0.949462890625,-0.218994140625,6.981707572937012,-0.4268292784690857,0.060975611209869385,20.700000762939453,3.299999952316284,-4.949999809265137,40.264984130859375,0,
 341448,-0.147705078125,-0.954833984375,-0.2119140625,8.506097793579102,-1.3719512224197388,0.6707317233085632,20.100000381469727,5.400000095367432,-5.550000190734863,39.977447509765625,0,
 341458,-0.142333984375,-0.942626953125,-0.2158203125,9.02439022064209,-2.012195110321045,1.4634146690368652,19.200000762939453,4.5,-4.650000095367432,40.3608283996582,0,
 341468,-0.138916015625,-0.944580078125,-0.2138671875,10.82317066192627,-2.408536672592163,2.591463565826416,19.200000762939453,4.5,-4.650000095367432,40.3608283996582,0,
 341478,-0.1396484375,-0.949951171875,-0.2001953125,10.731707572937012,-2.378048896789551,3.170731782913208,21.450000762939453,5.699999809265137,-6.449999809265137,40.21706008911133,0,
 341488,-0.138427734375,-0.951904296875,-0.1904296875,11.12804889678955,-2.408536672592163,4.054878234863281,20.700000762939453,5.699999809265137,-6.900000095367432,40.50459671020508,0,
 341498,-0.139892578125,-0.959228515625,-0.178955078125,9.45121955871582,-2.4695122241973877,5.030488014221191,20.700000762939453,3.75,-6.150000095367432,40.07329177856445,0,
 341508,-0.141357421875,-0.961181640625,-0.181396484375,7.682927131652832,-2.4390244483947754,5.97560977935791,20.700000762939453,3.75,-6.150000095367432,40.07329177856445,0,
 341518,-0.146728515625,-0.961181640625,-0.175048828125,5.121951103210449,-1.9817073345184326,6.310975551605225,21.450000762939453,3.75,-6.150000095367432,40.21706008911133,0,
 341528,-0.1552734375,-0.9677734375,-0.172607421875,3.0487804412841797,-1.920731782913208,6.341463565826416,21.149999618530273,4.949999809265137,-5.699999809265137,40.21706008911133,0,
 341538,-0.156494140625,-0.960693359375,-0.1748046875,-0.12195122241973877,-1.3109756708145142,6.097560882568359,21.149999618530273,4.050000190734863,-6.900000095367432,40.3608283996582,0,
 341548,-0.166259765625,-0.95654296875,-0.180419921875,-1.8902438879013062,-0.8231707215309143,5.121951103210449,21.149999618530273,4.050000190734863,-6.900000095367432,40.21706008911133,0,
 341558,-0.171142578125,-0.9541015625,-0.189208984375,-3.75,-0.24390244483947754,3.8109757900238037,21.299999237060547,3.9000000953674316,-6.300000190734863,40.025367736816406,0,
 341568,-0.173095703125,-0.950927734375,-0.189697265625,-5.060975551605225,0.3353658616542816,2.0426828861236572,21.0,6.599999904632568,-8.25,40.16913604736328,0,
 341578,-0.170166015625,-0.954345703125,-0.19189453125,-6.097560882568359,1.0060975551605225,0.27439025044441223,19.950000762939453,3.299999952316284,-6.900000095367432,40.07329177856445,0,
 341588,-0.1650390625,-0.956298828125,-0.189453125,-6.737804889678955,1.7987805604934692,-1.2195122241973877,21.450000762939453,4.949999809265137,-5.400000095367432,40.21706008911133,0,
 341598,-0.160888671875,-0.956787109375,-0.1865234375,-7.652439117431641,2.591463565826416,-2.9573171138763428,21.450000762939453,4.949999809265137,-5.400000095367432,40.07329177856445,0,
 341608,-0.163330078125,-0.9580078125,-0.184814453125,-8.90243911743164,2.987804889678955,-3.5365853309631348,21.450000762939453,3.299999952316284,-6.900000095367432,40.264984130859375,0,
 341618,-0.145263671875,-0.945556640625,-0.203125,-10.091464042663574,3.2317073345184326,-4.512195110321045,21.0,3.1500000953674316,-5.550000190734863,40.3608283996582,0,
 341628,-0.141357421875,-0.9443359375,-0.213134765625,-9.756097793579102,3.1097562313079834,-4.29878044128418,20.700000762939453,4.5,-6.900000095367432,40.264984130859375,0,
 341638,-0.13916015625,-0.932861328125,-0.21435546875,-8.841464042663574,2.9573171138763428,-3.6890244483947754,20.700000762939453,4.5,-6.900000095367432,40.50459671020508,0,
 341648,-0.143310546875,-0.935302734375,-0.215087890625,-7.0731706619262695,2.2560975551605225,-3.6890244483947754,21.450000762939453,4.949999809265137,-7.199999809265137,40.264984130859375,0,
 341658,-0.141845703125,-0.938232421875,-0.214111328125,-5.243902683258057,1.3414634466171265,-3.1097562313079834,21.149999618530273,4.5,-5.699999809265137,40.16913604736328,0,
 341668,-0.137939453125,-0.939208984375,-0.2236328125,-3.170731782913208,0.060975611209869385,-2.5,21.450000762939453,6.0,-6.900000095367432,40.3608283996582,0,
 341678,-0.142822265625,-0.939697265625,-0.2197265625,-0.8231707215309143,-0.396341472864151,-2.0426828861236572,21.450000762939453,6.0,-6.900000095367432,40.16913604736328,0,
 341688,-0.146240234375,-0.94580078125,-0.209228515625,1.2195122241973877,-0.7317073345184326,-1.1890244483947754,22.799999237060547,5.400000095367432,-5.550000190734863,40.264984130859375,0,
 341698,-0.145263671875,-0.95068359375,-0.201171875,2.0426828861236572,-0.8231707215309143,-0.6707317233085632,21.299999237060547,4.349999904632568,-6.300000190734863,40.07329177856445,0,
 341708,-0.1494140625,-0.954833984375,-0.2021484375,1.7987805604934692,0.030487805604934692,0.3353658616542816,21.0,5.099999904632568,-7.5,40.16913604736328,0,
 341718,-0.158203125,-0.954345703125,-0.197998046875,2.0426828861236572,0.030487805604934692,0.9146341681480408,21.0,5.099999904632568,-7.5,40.16913604736328,0,
 341728,-0.146728515625,-0.942138671875,-0.20654296875,2.22560977935791,0.09146341681480408,1.402438998222351,20.700000762939453,5.699999809265137,-6.150000095367432,40.21706008911133,0,
 341738,-0.14794921875,-0.94482421875,-0.210205078125,2.896341562271118,0.09146341681480408,1.7682926654815674,19.950000762939453,4.050000190734863,-5.400000095367432,40.16913604736328,0,
 341748,-0.14501953125,-0.937744140625,-0.205078125,4.329268455505371,0.15243902802467346,1.5548781156539917,20.549999237060547,5.849999904632568,-7.050000190734863,40.16913604736328,0,
 341758,-0.145751953125,-0.937744140625,-0.20703125,5.54878044128418,-0.8231707215309143,1.5548781156539917,21.149999618530273,6.0,-5.699999809265137,39.977447509765625,0,
 341768,-0.151123046875,-0.94287109375,-0.2080078125,5.9146342277526855,-1.097561001777649,1.737804889678955,19.799999237060547,3.9000000953674316,-6.75,40.07329177856445,0,
 341778,-0.140869140625,-0.944580078125,-0.1962890625,6.006097793579102,-1.6768293380737305,1.4634146690368652,20.549999237060547,3.9000000953674316,-9.300000190734863,40.16913604736328,0,
 341788,-0.152099609375,-0.949951171875,-0.190673828125,4.969512462615967,-1.4939024448394775,1.5548781156539917,21.0,5.400000095367432,-5.550000190734863,40.16913604736328,0,
 341798,-0.149658203125,-0.9521484375,-0.188232421875,4.207317352294922,-1.2195122241973877,1.2195122241973877,22.799999237060547,4.349999904632568,-6.300000190734863,40.16913604736328,0,
 341808,-0.156982421875,-0.960693359375,-0.18408203125,2.682926893234253,-0.6707317233085632,1.3719512224197388,22.799999237060547,4.349999904632568,-6.300000190734863,40.50459671020508,0,
 341818,-0.1591796875,-0.965087890625,-0.1865234375,1.097561001777649,-0.3658536672592163,0.9756097793579102,21.75,3.9000000953674316,-7.5,40.21706008911133,0,
 341829,-0.157470703125,-0.960693359375,-0.186767578125,0.24390244483947754,0.5792682766914368,0.8841463327407837,22.200000762939453,4.050000190734863,-6.900000095367432,40.21706008911133,0,
 341839,-0.158935546875,-0.966552734375,-0.190673828125,-0.3658536672592163,0.5487805008888245,0.8231707215309143,21.149999618530273,3.75,-6.449999809265137,40.025367736816406,0,
 341849,-0.15380859375,-0.956787109375,-0.194580078125,-0.6402438879013062,0.7621951103210449,0.030487805604934692,21.149999618530273,3.75,-6.449999809265137,40.3608283996582,0,
 341859,-0.157470703125,-0.960205078125,-0.197509765625,-0.7317073345184326,0.7012194991111755,0.18292683362960815,21.299999237060547,4.349999904632568,-8.25,40.3608283996582,0,
 341869,-0.153076171875,-0.94921875,-0.197265625,-1.3109756708145142,0.7012194991111755,0.24390244483947754,21.149999618530273,3.299999952316284,-6.900000095367432,40.264984130859375,0,
 341879,-0.1533203125,-0.9541015625,-0.198486328125,-0.8536585569381714,0.6402438879013062,0.3048780560493469,21.149999618530273,3.299999952316284,-8.699999809265137,40.21706008911133,0,
 341889,-0.14599609375,-0.94970703125,-0.194091796875,-1.2804877758026123,0.27439025044441223,0.24390244483947754,21.149999618530273,3.299999952316284,-8.699999809265137,40.07329177856445,0,
 341899,-0.153564453125,-0.950439453125,-0.19677734375,-1.3109756708145142,0.3658536672592163,-0.21341463923454285,22.5,4.349999904632568,-6.0,40.21706008911133,0,
 341909,-0.14404296875,-0.954345703125,-0.1962890625,-1.1280487775802612,0.09146341681480408,-0.18292683362960815,22.649999618530273,3.75,-6.900000095367432,40.16913604736328,0,
 341919,-0.144287109375,-0.945068359375,-0.197509765625,-1.1890244483947754,0.12195122241973877,-0.4573170840740204,21.899999618530273,4.050000190734863,-7.650000095367432,40.3608283996582,0,
 341929,-0.14794921875,-0.947021484375,-0.197998046875,-1.1280487775802612,0.09146341681480408,-0.6707317233085632,21.899999618530273,4.050000190734863,-7.650000095367432,40.21706008911133,0,
 341939,-0.15087890625,-0.953125,-0.188232421875,-1.585365891456604,0.3353658616542816,-0.9146341681480408,21.149999618530273,5.25,-5.400000095367432,40.16913604736328,0,
 341949,-0.1533203125,-0.959716796875,-0.189697265625,-1.6463414430618286,0.6402438879013062,-0.6402438879013062,20.549999237060547,2.700000047683716,-6.300000190734863,40.21706008911133,0,
 341959,-0.151123046875,-0.955322265625,-0.1943359375,-2.378048896789551,0.9146341681480408,-0.792682945728302,22.049999237060547,3.9000000953674316,-6.300000190734863,40.16913604736328,0,
 341969,-0.148193359375,-0.958740234375,-0.197265625,-2.8353660106658936,0.8536585569381714,-0.3048780560493469,19.200000762939453,3.75,-6.900000095367432,40.16913604736328,0,
 341979,-0.14599609375,-0.952880859375,-0.2021484375,-3.3841464519500732,1.25,-0.18292683362960815,19.200000762939453,3.75,-6.900000095367432,40.16913604736328,0,
 341989,-0.14892578125,-0.94921875,-0.201416015625,-3.3231709003448486,0.9756097793579102,-0.21341463923454285,20.700000762939453,4.949999809265137,-9.149999618530273,40.07329177856445,0,
 341999,-0.153076171875,-0.95166015625,-0.207763671875,-2.9573171138763428,0.792682945728302,0.0,21.75,3.9000000953674316,-7.050000190734863,40.3608283996582,0,
 342009,-0.149658203125,-0.951171875,-0.2080078125,-2.591463565826416,0.7012194991111755,0.3048780560493469,21.899999618530273,4.5,-7.199999809265137,40.264984130859375,0,
 342019,-0.152587890625,-0.949462890625,-0.20361328125,-2.4695122241973877,0.4573170840740204,0.060975611209869385,21.899999618530273,4.5,-7.199999809265137,40.40875244140625,0,
 342029,-0.14599609375,-0.9501953125,-0.199462890625,-1.5548781156539917,0.24390244483947754,0.0,22.5,4.349999904632568,-8.550000190734863,40.21706008911133,0,
 342039,-0.1455078125,-0.952392578125,-0.200927734375,-1.0365853309631348,0.15243902802467346,0.27439025044441223,20.700000762939453,2.549999952316284,-5.699999809265137,40.07329177856445,0,
 342049,-0.14697265625,-0.94482421875,-0.20947265625,-1.0670732259750366,0.09146341681480408,0.21341463923454285,21.450000762939453,4.5,-6.900000095367432,40.16913604736328,0,
 342059,-0.146728515625,-0.946533203125,-0.19384765625,-0.5792682766914368,0.060975611209869385,0.4268292784690857,21.450000762939453,4.5,-6.900000095367432,40.07329177856445,0,
 342069,-0.14794921875,-0.94140625,-0.20458984375,-0.396341472864151,0.09146341681480408,0.3048780560493469,21.450000762939453,5.25,-7.199999809265137,40.40875244140625,0,
 342079,-0.146728515625,-0.945068359375,-0.2021484375,0.09146341681480408,0.12195122241973877,0.21341463923454285,19.049999237060547,5.099999904632568,-7.5,40.264984130859375,0,
 342089,-0.154541015625,-0.9453125,-0.19970703125,0.5792682766914368,0.3353658616542816,0.5487805008888245,20.549999237060547,5.099999904632568,-4.800000190734863,40.16913604736328,0,
 342099,-0.148193359375,-0.947509765625,-0.20068359375,0.4878048896789551,0.15243902802467346,0.21341463923454285,20.549999237060547,5.099999904632568,-4.800000190734863,40.3608283996582,0,
 342109,-0.14892578125,-0.946044921875,-0.198486328125,0.7621951103210449,0.15243902802467346,-0.09146341681480408,22.200000762939453,4.050000190734863,-6.449999809265137,40.264984130859375,0,
 342119,-0.151123046875,-0.95166015625,-0.197998046875,0.4878048896789551,0.396341472864151,-0.3658536672592163,20.100000381469727,4.349999904632568,-7.050000190734863,40.025367736816406,0,
 342129,-0.150634765625,-0.955810546875,-0.20361328125,0.4573170840740204,0.3658536672592163,-0.3353658616542816,19.350000381469727,3.9000000953674316,-7.050000190734863,40.21706008911133,0,
 342139,-0.14990234375,-0.950927734375,-0.193115234375,0.09146341681480408,0.4573170840740204,-0.3353658616542816,20.700000762939453,4.050000190734863,-6.900000095367432,40.025367736816406,0,
 342149,-0.150146484375,-0.95556640625,-0.197021484375,-0.060975611209869385,0.6402438879013062,-0.4268292784690857,20.700000762939453,4.050000190734863,-6.900000095367432,40.264984130859375,0,
 342159,-0.152587890625,-0.95068359375,-0.19287109375,-0.3658536672592163,0.18292683362960815,-0.24390244483947754,21.450000762939453,4.5,-5.699999809265137,40.3608283996582,0,
 342169,-0.146728515625,-0.955078125,-0.20068359375,-0.24390244483947754,0.4573170840740204,-0.5182926654815674,19.950000762939453,5.25,-7.650000095367432,40.21706008911133,0,
 342179,-0.141845703125,-0.953125,-0.197021484375,-0.8231707215309143,0.7317073345184326,-0.396341472864151,19.049999237060547,3.9000000953674316,-6.300000190734863,40.264984130859375,0,
 342189,-0.148193359375,-0.95361328125,-0.198486328125,-0.6402438879013062,0.4268292784690857,0.030487805604934692,19.049999237060547,3.9000000953674316,-6.300000190734863,40.16913604736328,0,
 342199,-0.15087890625,-0.957275390625,-0.199462890625,-1.1585365533828735,0.4268292784690857,-0.27439025044441223,19.799999237060547,4.349999904632568,-7.800000190734863,40.21706008911133,0,
 342209,-0.147705078125,-0.956787109375,-0.19189453125,-1.2804877758026123,0.3353658616542816,0.4573170840740204,22.5,4.650000095367432,-7.050000190734863,40.552520751953125,0,
 342219,-0.14794921875,-0.952880859375,-0.199951171875,-1.4634146690368652,0.9146341681480408,0.5792682766914368,21.899999618530273,3.75,-5.699999809265137,40.40875244140625,0,
 342229,-0.149169921875,-0.94580078125,-0.2021484375,-1.6463414430618286,0.6097561120986938,0.3048780560493469,21.899999618530273,3.75,-5.699999809265137,40.07329177856445,0,
 342239,-0.150390625,-0.94482421875,-0.19970703125,-1.25,0.6707317233085632,0.6707317233085632,21.450000762939453,4.050000190734863,-7.949999809265137,40.21706008911133,0,
 342249,-0.1494140625,-0.95458984375,-0.198974609375,-1.1280487775802612,0.5182926654815674,0.4573170840740204,19.799999237060547,4.349999904632568,-6.75,40.264984130859375,0,
 342259,-0.145263671875,-0.9453125,-0.20703125,-0.7621951103210449,0.396341472864151,0.7317073345184326,21.149999618530273,4.5,-5.699999809265137,40.07329177856445,0,
 342269,-0.14697265625,-0.952392578125,-0.205810546875,-0.4573170840740204,0.5487805008888245,0.9146341681480408,21.149999618530273,4.5,-5.699999809265137,40.3608283996582,0,
 342279,-0.142578125,-0.9462890625,-0.20361328125,0.060975611209869385,0.6402438879013062,0.8231707215309143,20.700000762939453,4.949999809265137,-7.199999809265137,40.21706008911133,0,
 342289,-0.152587890625,-0.947021484375,-0.195556640625,0.5792682766914368,0.396341472864151,0.7012194991111755,18.899999618530273,2.0999999046325684,-9.449999809265137,40.40875244140625,0,
 342299,-0.1484375,-0.942626953125,-0.199462890625,0.9756097793579102,0.18292683362960815,0.5792682766914368,22.049999237060547,5.400000095367432,-6.0,40.16913604736328,0,
 342309,-0.15185546875,-0.947509765625,-0.200439453125,1.2195122241973877,-0.060975611209869385,0.4878048896789551,19.950000762939453,3.75,-6.900000095367432,40.16913604736328,0,
 342319,-0.152587890625,-0.951171875,-0.195068359375,1.2804877758026123,0.24390244483947754,0.3658536672592163,21.299999237060547,4.349999904632568,-6.0,40.3608283996582,0,
 342329,-0.149658203125,-0.951416015625,-0.198486328125,0.8536585569381714,-0.24390244483947754,0.396341472864151,22.649999618530273,3.75,-4.949999809265137,40.07329177856445,0,
 342339,-0.15869140625,-0.947509765625,-0.19970703125,1.097561001777649,0.21341463923454285,0.21341463923454285,21.450000762939453,4.050000190734863,-6.150000095367432,40.264984130859375,0,
 342349,-0.157470703125,-0.949951171875,-0.196533203125,0.4268292784690857,0.4573170840740204,0.3048780560493469,21.149999618530273,2.8499999046325684,-5.699999809265137,40.21706008911133,0,
 342359,-0.1533203125,-0.953125,-0.194580078125,0.060975611209869385,0.3048780560493469,0.27439025044441223,21.149999618530273,2.8499999046325684,-5.699999809265137,40.3608283996582,0,
 342369,-0.146240234375,-0.9521484375,-0.197509765625,-0.27439025044441223,0.4268292784690857,0.21341463923454285,21.299999237060547,4.650000095367432,-6.75,40.40875244140625,0,
 342379,-0.1494140625,-0.949951171875,-0.19091796875,-0.8231707215309143,0.8536585569381714,0.6097561120986938,21.149999618530273,3.75,-6.150000095367432,40.16913604736328,0,
 342389,-0.1474609375,-0.952392578125,-0.197265625,-0.5792682766914368,0.8536585569381714,0.24390244483947754,22.200000762939453,2.549999952316284,-8.399999618530273,40.07329177856445,0,
 342399,-0.142333984375,-0.947021484375,-0.200439453125,-1.0670732259750366,0.7012194991111755,0.3353658616542816,22.200000762939453,2.549999952316284,-8.399999618530273,40.552520751953125,0,
 342409,-0.145263671875,-0.952392578125,-0.19775390625,-1.0670732259750366,0.7621951103210449,0.3658536672592163,21.75,3.9000000953674316,-6.0,40.16913604736328,0,
 342419,-0.14599609375,-0.950927734375,-0.196533203125,-0.7317073345184326,0.4573170840740204,0.4878048896789551,21.149999618530273,4.5,-6.900000095367432,40.21706008911133,0,
 342430,-0.150634765625,-0.9462890625,-0.202880859375,-0.27439025044441223,0.3353658616542816,0.4878048896789551,19.350000381469727,6.300000190734863,-6.0,39.977447509765625,0,
 342440,-0.150390625,-0.952880859375,-0.197509765625,-0.15243902802467346,0.0,0.7012194991111755,19.350000381469727,6.300000190734863,-6.0,40.264984130859375,0,
 342450,-0.146728515625,-0.951416015625,-0.195556640625,-0.24390244483947754,0.0,0.6707317233085632,20.549999237060547,3.450000047683716,-8.25,40.21706008911133,0,
 342460,-0.14794921875,-0.95361328125,-0.19482421875,-0.15243902802467346,0.060975611209869385,0.9451219439506531,21.149999618530273,5.25,-4.650000095367432,40.40875244140625,0,
 342470,-0.150390625,-0.948486328125,-0.19482421875,-0.18292683362960815,0.0,0.8841463327407837,21.149999618530273,3.299999952316284,-6.449999809265137,40.21706008911133,0,
 342480,-0.147216796875,-0.947265625,-0.200927734375,-0.6402438879013062,0.09146341681480408,0.7012194991111755,21.149999618530273,3.299999952316284,-6.449999809265137,40.07329177856445,0,
 342490,-0.149169921875,-0.951171875,-0.200927734375,-0.060975611209869385,0.09146341681480408,0.7317073345184326,19.200000762939453,6.449999809265137,-7.949999809265137,40.07329177856445,0,
 342500,-0.1494140625,-0.9482421875,-0.197998046875,-0.24390244483947754,-0.030487805604934692,0.3048780560493469,19.350000381469727,3.450000047683716,-6.300000190734863,40.07329177856445,0,
 342510,-0.146728515625,-0.948974609375,-0.195068359375,-0.3658536672592163,-0.18292683362960815,0.6707317233085632,22.649999618530273,3.75,-6.150000095367432,40.025367736816406,0,
 342520,-0.151123046875,-0.948486328125,-0.19384765625,-0.24390244483947754,0.15243902802467346,0.4573170840740204,21.450000762939453,4.949999809265137,-6.900000095367432,40.3608283996582,0,
 342530,-0.145751953125,-0.95361328125,-0.19775390625,-0.396341472864151,0.09146341681480408,0.15243902802467346,21.450000762939453,4.949999809265137,-6.900000095367432,40.07329177856445,0,
 342540,-0.151123046875,-0.953857421875,-0.1943359375,-0.6097561120986938,-0.27439025044441223,0.030487805604934692,20.700000762939453,4.5,-6.449999809265137,40.264984130859375,0,
 342550,-0.15380859375,-0.95849609375,-0.1904296875,-0.5792682766914368,0.15243902802467346,0.3658536672592163,22.649999618530273,4.5,-6.900000095367432,40.21706008911133,0,
