timestamp,accl_x,accl_y,accl_z,gyro_x,gyro_y,gyro_z,mag_x,mag_y,mag_z,temp,emg,
 459631,-0.324462890625,-0.92236328125,-0.017333984375,-0.5487805008888245,0.27439025044441223,0.15243902802467346,4.5,2.700000047683716,-7.800000190734863,34.99346923828125,0,
 459641,-0.325439453125,-0.926513671875,-0.01806640625,-0.21341463923454285,0.21341463923454285,0.4268292784690857,4.650000095367432,2.549999952316284,-7.949999809265137,34.99346923828125,0,
 459651,-0.323974609375,-0.925048828125,-0.019775390625,-0.4573170840740204,0.3353658616542816,0.24390244483947754,4.650000095367432,2.549999952316284,-7.949999809265137,34.99346923828125,0,
 459661,-0.32861328125,-0.9189453125,-0.01904296875,-0.792682945728302,0.3353658616542816,-0.18292683362960815,3.299999952316284,2.25,-6.300000190734863,34.94554901123047,0,
 459671,-0.330322265625,-0.9287109375,-0.01904296875,-0.5792682766914368,0.4573170840740204,-0.030487805604934692,2.0999999046325684,-0.15000000596046448,-8.399999618530273,34.99346923828125,0,
 459681,-0.328369140625,-0.92578125,-0.0166015625,-0.7012194991111755,0.18292683362960815,-0.18292683362960815,4.199999809265137,1.5,-7.050000190734863,35.281005859375,0,
 459691,-0.33056640625,-0.921630859375,-0.019775390625,-0.9451219439506531,0.5792682766914368,0.4573170840740204,2.25,1.9500000476837158,-6.75,35.137237548828125,0,
 459701,-0.32373046875,-0.92578125,-0.023681640625,-0.4878048896789551,0.5792682766914368,0.3658536672592163,2.25,1.9500000476837158,-6.75,35.137237548828125,0,
 459711,-0.32373046875,-0.930908203125,-0.020751953125,-0.6097561120986938,0.27439025044441223,0.7012194991111755,4.199999809265137,1.0499999523162842,-7.050000190734863,35.089317321777344,0,
 459721,-0.32763671875,-0.920654296875,-0.02587890625,-0.7012194991111755,0.15243902802467346,0.4573170840740204,4.349999904632568,1.649999976158142,-7.650000095367432,34.7059326171875,0,
 459731,-0.3291015625,-0.923095703125,-0.024169921875,-0.4268292784690857,0.396341472864151,0.6402438879013062,4.5,2.700000047683716,-7.5,35.32892990112305,0,
 459741,-0.3271484375,-0.92041015625,-0.021728515625,-0.24390244483947754,0.21341463923454285,0.7621951103210449,2.549999952316284,1.9500000476837158,-6.300000190734863,35.137237548828125,0,
 459751,-0.328857421875,-0.921875,-0.022705078125,-0.4878048896789551,0.15243902802467346,0.3658536672592163,2.549999952316284,1.9500000476837158,-6.300000190734863,35.137237548828125,0,
 459771,-0.336181640625,-0.92431640625,-0.0166015625,-0.4268292784690857,0.792682945728302,0.24390244483947754,6.0,0.0,-9.75,34.89762496948242,0,
 459781,-0.324462890625,-0.92431640625,-0.019775390625,-1.0060975551605225,0.396341472864151,-0.060975611209869385,2.8499999046325684,1.649999976158142,-7.199999809265137,34.94554901123047,0,
 459791,-0.32568359375,-0.920166015625,-0.022705078125,-0.4268292784690857,0.5182926654815674,-0.3048780560493469,2.8499999046325684,1.649999976158142,-7.199999809265137,35.089317321777344,0,
 459801,-0.32470703125,-0.91943359375,-0.0224609375,-0.8231707215309143,0.396341472864151,-0.396341472864151,3.0,1.5,-6.300000190734863,34.99346923828125,0,
 459811,-0.326416015625,-0.925537109375,-0.018798828125,-0.7317073345184326,0.4573170840740204,-0.12195122241973877,2.4000000953674316,2.549999952316284,-8.399999618530273,34.99346923828125,0,
 459821,-0.324951171875,-0.9228515625,-0.01953125,-0.5182926654815674,0.396341472864151,-0.4268292784690857,3.9000000953674316,1.350000023841858,-6.150000095367432,34.94554901123047,0,
 459831,-0.32861328125,-0.92529296875,-0.019775390625,-0.6097561120986938,0.27439025044441223,-0.09146341681480408,2.549999952316284,1.5,-7.800000190734863,34.801780700683594,0,
 459841,-0.324462890625,-0.924072265625,-0.025634765625,-0.6402438879013062,0.4878048896789551,0.030487805604934692,2.549999952316284,1.5,-7.800000190734863,35.137237548828125,0,
 459851,-0.324951171875,-0.927734375,-0.0244140625,-0.4573170840740204,0.21341463923454285,0.4268292784690857,4.5,2.700000047683716,-6.75,35.281005859375,0,
 459861,-0.324951171875,-0.92431640625,-0.022216796875,-0.27439025044441223,0.12195122241973877,0.5792682766914368,4.199999809265137,1.0499999523162842,-6.300000190734863,34.99346923828125,0,
 459871,-0.33056640625,-0.9228515625,-0.02197265625,-0.09146341681480408,0.0,0.8536585569381714,3.75,2.25,-8.25,34.801780700683594,0,
 459881,-0.330322265625,-0.9267578125,-0.015625,-0.3048780560493469,-0.21341463923454285,0.6402438879013062,2.549999952316284,0.75,-7.5,34.99346923828125,0,
 459891,-0.3330078125,-0.92578125,-0.0234375,-0.4878048896789551,0.0,0.7012194991111755,2.549999952316284,0.75,-7.5,35.137237548828125,0,
 459902,-0.323974609375,-0.921875,-0.019287109375,-0.21341463923454285,0.18292683362960815,0.6402438879013062,3.0,2.25,-9.300000190734863,34.94554901123047,0,
 459912,-0.326171875,-0.923095703125,-0.017578125,-0.4573170840740204,0.3353658616542816,0.5792682766914368,4.650000095367432,1.350000023841858,-6.900000095367432,35.137237548828125,0,
 459922,-0.32666015625,-0.91943359375,-0.01708984375,-0.4268292784690857,0.060975611209869385,0.27439025044441223,3.0,1.9500000476837158,-8.25,34.99346923828125,0,
 459932,-0.326904296875,-0.924072265625,-0.02099609375,-0.3048780560493469,0.030487805604934692,-0.060975611209869385,2.4000000953674316,1.649999976158142,-7.199999809265137,35.137237548828125,0,
 459942,-0.325439453125,-0.930419921875,-0.022705078125,-0.6097561120986938,0.18292683362960815,-0.09146341681480408,2.4000000953674316,1.649999976158142,-7.199999809265137,34.99346923828125,0,
 459952,-0.326904296875,-0.9287109375,-0.021484375,-0.6402438879013062,0.4573170840740204,0.030487805604934692,3.9000000953674316,0.8999999761581421,-7.949999809265137,35.089317321777344,0,
 459962,-0.328125,-0.924560546875,-0.021484375,-0.8841463327407837,0.5182926654815674,0.24390244483947754,4.949999809265137,1.5,-7.5,34.801780700683594,0,
 459972,-0.326416015625,-0.926513671875,-0.022216796875,-0.6097561120986938,0.27439025044441223,0.24390244483947754,4.199999809265137,1.0499999523162842,-8.25,34.94554901123047,0,
 459982,-0.324951171875,-0.92919921875,-0.023193359375,-0.5487805008888245,0.4878048896789551,0.6402438879013062,4.199999809265137,1.0499999523162842,-8.25,35.137237548828125,0,
 459992,-0.330078125,-0.921142578125,-0.0263671875,-0.6097561120986938,0.0,0.5182926654815674,4.349999904632568,0.44999998807907104,-8.399999618530273,34.99346923828125,0,
 460002,-0.32275390625,-0.921875,-0.020263671875,-0.4573170840740204,0.060975611209869385,0.6707317233085632,2.549999952316284,1.9500000476837158,-9.300000190734863,35.089317321777344,0,
 460012,-0.329833984375,-0.92333984375,-0.019775390625,-0.27439025044441223,0.24390244483947754,0.6097561120986938,3.299999952316284,1.5,-7.800000190734863,34.94554901123047,0,
 460022,-0.325927734375,-0.920654296875,-0.0244140625,-0.7317073345184326,0.4268292784690857,0.5487805008888245,3.299999952316284,1.9500000476837158,-7.5,34.99346923828125,0,
 460032,-0.328857421875,-0.9287109375,-0.016845703125,-0.5792682766914368,0.4573170840740204,0.3658536672592163,3.299999952316284,1.9500000476837158,-7.5,35.137237548828125,0,
 460042,-0.328125,-0.92626953125,-0.019287109375,-0.7012194991111755,0.396341472864151,0.030487805604934692,3.0,1.5,-7.5,35.137237548828125,0,
 460052,-0.335693359375,-0.9296875,-0.021240234375,-0.792682945728302,0.4878048896789551,0.15243902802467346,3.75,1.0499999523162842,-7.050000190734863,34.99346923828125,0,
 460062,-0.326171875,-0.925048828125,-0.022705078125,-0.7621951103210449,0.3353658616542816,0.09146341681480408,3.5999999046325684,1.649999976158142,-8.699999809265137,34.7059326171875,0,
 460072,-0.32861328125,-0.92041015625,-0.0166015625,-0.9451219439506531,0.3048780560493469,-0.3658536672592163,3.1500000953674316,0.44999998807907104,-6.150000095367432,34.75385665893555,0,
 460082,-0.322509765625,-0.921630859375,-0.022216796875,-1.2195122241973877,0.5487805008888245,-0.030487805604934692,3.1500000953674316,0.44999998807907104,-6.150000095367432,35.137237548828125,0,
 460092,-0.327392578125,-0.926513671875,-0.01806640625,-0.6402438879013062,0.6402438879013062,0.3353658616542816,3.0,1.9500000476837158,-6.300000190734863,34.99346923828125,0,
 460102,-0.33056640625,-0.9248046875,-0.021484375,-0.8841463327407837,0.4878048896789551,0.18292683362960815,3.5999999046325684,2.549999952316284,-7.199999809265137,35.089317321777344,0,
 460112,-0.325439453125,-0.921875,-0.02001953125,-0.7317073345184326,0.4268292784690857,0.24390244483947754,3.299999952316284,1.5,-7.5,34.94554901123047,0,
 460122,-0.323974609375,-0.925048828125,-0.022705078125,-0.3048780560493469,0.5487805008888245,0.6097561120986938,3.5999999046325684,0.8999999761581421,-7.199999809265137,34.94554901123047,0,
 460132,-0.328125,-0.919189453125,-0.022216796875,-0.6097561120986938,0.21341463923454285,0.6402438879013062,3.5999999046325684,0.8999999761581421,-7.199999809265137,35.137237548828125,0,
 460142,-0.330078125,-0.923583984375,-0.01806640625,-0.24390244483947754,-0.09146341681480408,0.7317073345184326,2.4000000953674316,1.649999976158142,-7.949999809265137,34.801780700683594,0,
 460152,-0.332275390625,-0.920166015625,-0.016845703125,0.060975611209869385,0.18292683362960815,0.5487805008888245,2.8499999046325684,0.44999998807907104,-7.199999809265137,35.281005859375,0,
 460162,-0.32861328125,-0.9248046875,-0.0185546875,-0.3658536672592163,0.21341463923454285,0.4268292784690857,3.1500000953674316,0.8999999761581421,-5.699999809265137,34.99346923828125,0,
 460172,-0.32373046875,-0.919921875,-0.016845703125,-0.24390244483947754,0.3353658616542816,0.27439025044441223,3.1500000953674316,0.8999999761581421,-5.699999809265137,35.137237548828125,0,
 460182,-0.329345703125,-0.92138671875,-0.022705078125,0.15243902802467346,0.21341463923454285,-0.3048780560493469,4.650000095367432,2.0999999046325684,-8.699999809265137,35.089317321777344,0,
 460192,-0.327392578125,-0.91796875,-0.013427734375,-0.15243902802467346,0.24390244483947754,-0.18292683362960815,3.5999999046325684,2.549999952316284,-6.449999809265137,34.99346923828125,0,
 460202,-0.3271484375,-0.925537109375,-0.019775390625,-0.5792682766914368,0.21341463923454285,-0.030487805604934692,2.4000000953674316,2.0999999046325684,-8.399999618530273,35.137237548828125,0,
 460212,-0.31982421875,-0.924072265625,-0.021728515625,-0.5182926654815674,0.6097561120986938,0.060975611209869385,3.299999952316284,1.5,-7.800000190734863,34.99346923828125,0,
 460222,-0.324462890625,-0.926513671875,-0.022705078125,-0.7012194991111755,0.6707317233085632,0.0,3.299999952316284,1.5,-7.800000190734863,34.99346923828125,0,
 460232,-0.32861328125,-0.923583984375,-0.017822265625,-0.09146341681480408,0.5792682766914368,0.060975611209869385,3.75,1.0499999523162842,-7.800000190734863,35.137237548828125,0,
 460242,-0.32421875,-0.928955078125,-0.01806640625,-0.24390244483947754,0.4268292784690857,0.030487805604934692,2.25,2.700000047683716,-6.0,34.89762496948242,0,
 460252,-0.328125,-0.91748046875,-0.01953125,-0.060975611209869385,0.3658536672592163,0.4878048896789551,3.5999999046325684,2.0999999046325684,-7.199999809265137,34.94554901123047,0,
 460262,-0.327392578125,-0.923828125,-0.017578125,-0.12195122241973877,0.15243902802467346,0.3658536672592163,3.299999952316284,1.0499999523162842,-7.800000190734863,34.801780700683594,0,
 460272,-0.335205078125,-0.923095703125,-0.0205078125,-0.09146341681480408,0.12195122241973877,0.24390244483947754,3.299999952316284,1.0499999523162842,-7.800000190734863,35.137237548828125,0,
 460282,-0.326416015625,-0.919189453125,-0.023681640625,-0.3658536672592163,0.0,0.09146341681480408,2.4000000953674316,1.649999976158142,-8.699999809265137,35.137237548828125,0,
 460292,-0.33251953125,-0.925537109375,-0.0166015625,-0.5182926654815674,0.27439025044441223,0.15243902802467346,3.299999952316284,1.0499999523162842,-7.050000190734863,35.137237548828125,0,
 460302,-0.32666015625,-0.9296875,-0.02001953125,-0.5792682766914368,0.4573170840740204,0.030487805604934692,1.5,1.9500000476837158,-7.5,35.137237548828125,0,
 460312,-0.326904296875,-0.9228515625,-0.024169921875,-0.4878048896789551,0.27439025044441223,-0.3658536672592163,1.5,1.9500000476837158,-7.5,35.137237548828125,0,
 460322,-0.32373046875,-0.925048828125,-0.02685546875,-0.24390244483947754,0.396341472864151,-0.030487805604934692,2.0999999046325684,0.44999998807907104,-5.400000095367432,35.137237548828125,0,
 460332,-0.3271484375,-0.931640625,-0.024658203125,-0.12195122241973877,0.24390244483947754,-0.12195122241973877,3.0,1.0499999523162842,-6.300000190734863,35.089317321777344,0,
 460342,-0.329345703125,-0.928955078125,-0.022705078125,-0.396341472864151,0.3658536672592163,0.4878048896789551,3.0,0.75,-6.75,35.137237548828125,0,
 460352,-0.327392578125,-0.92333984375,-0.021240234375,-0.18292683362960815,0.3353658616542816,0.4573170840740204,3.5999999046325684,2.0999999046325684,-7.199999809265137,34.99346923828125,0,
 460362,-0.32666015625,-0.9228515625,-0.021484375,-0.24390244483947754,0.24390244483947754,0.5182926654815674,3.5999999046325684,2.0999999046325684,-7.199999809265137,35.089317321777344,0,
 460372,-0.325927734375,-0.92578125,-0.018798828125,-0.3353658616542816,0.3658536672592163,0.6707317233085632,2.8499999046325684,0.8999999761581421,-5.699999809265137,35.281005859375,0,
 460382,-0.329833984375,-0.922119140625,-0.015380859375,-0.12195122241973877,0.09146341681480408,0.8231707215309143,2.8499999046325684,0.8999999761581421,-7.650000095367432,35.281005859375,0,
 460392,-0.329833984375,-0.91943359375,-0.025146484375,0.12195122241973877,0.21341463923454285,0.7012194991111755,2.4000000953674316,-0.15000000596046448,-7.650000095367432,35.23308563232422,0,
 460402,-0.32763671875,-0.927490234375,-0.016845703125,0.15243902802467346,0.09146341681480408,0.5182926654815674,2.4000000953674316,2.0999999046325684,-7.199999809265137,35.281005859375,0,
 460412,-0.329345703125,-0.921630859375,-0.01513671875,-0.030487805604934692,0.0,0.4573170840740204,2.4000000953674316,2.0999999046325684,-7.199999809265137,34.801780700683594,0,
 460422,-0.325439453125,-0.920654296875,-0.020263671875,-0.4573170840740204,0.27439025044441223,0.0,3.0,-0.30000001192092896,-7.800000190734863,35.089317321777344,0,
 460432,-0.327392578125,-0.9248046875,-0.021484375,-0.4268292784690857,0.5487805008888245,0.060975611209869385,4.199999809265137,2.25,-6.75,35.089317321777344,0,
 460442,-0.331298828125,-0.923828125,-0.020751953125,-0.7012194991111755,0.3658536672592163,-0.3353658616542816,2.25,0.75,-6.75,34.99346923828125,0,
 460452,-0.32861328125,-0.926025390625,-0.0166015625,-0.9146341681480408,0.396341472864151,0.15243902802467346,4.199999809265137,1.5,-8.25,34.75385665893555,0,
 460462,-0.32373046875,-0.9228515625,-0.01220703125,-0.6707317233085632,0.21341463923454285,0.030487805604934692,4.199999809265137,1.5,-8.25,35.089317321777344,0,
 460472,-0.32568359375,-0.919189453125,-0.019287109375,-1.097561001777649,0.5182926654815674,0.24390244483947754,3.1500000953674316,1.350000023841858,-6.449999809265137,35.089317321777344,0,
 460482,-0.3330078125,-0.931884765625,-0.018798828125,-1.3414634466171265,0.7317073345184326,0.7012194991111755,3.299999952316284,1.0499999523162842,-7.050000190734863,34.94554901123047,0,
 460492,-0.326416015625,-0.9228515625,-0.0166015625,-1.2195122241973877,0.5487805008888245,0.7621951103210449,4.349999904632568,-0.15000000596046448,-12.149999618530273,35.47269821166992,0,
 460502,-0.326171875,-0.928466796875,-0.02001953125,-0.9756097793579102,0.396341472864151,0.8841463327407837,4.349999904632568,-0.15000000596046448,-12.149999618530273,34.7059326171875,0,
 460512,-0.32666015625,-0.919677734375,-0.01904296875,-0.5182926654815674,0.3353658616542816,1.0060975551605225,3.299999952316284,1.5,-6.75,34.7059326171875,0,
 460522,-0.331298828125,-0.921142578125,-0.0185546875,-0.4268292784690857,0.3048780560493469,0.5792682766914368,3.299999952316284,0.0,-6.75,35.281005859375,0,
 460532,-0.330322265625,-0.924560546875,-0.02197265625,-0.5792682766914368,0.18292683362960815,0.27439025044441223,3.9000000953674316,1.649999976158142,-7.949999809265137,35.089317321777344,0,
 460542,-0.333251953125,-0.92041015625,-0.017578125,-0.9146341681480408,0.7621951103210449,0.0,3.299999952316284,2.25,-7.050000190734863,34.94554901123047,0,
 460552,-0.332763671875,-0.9267578125,-0.015380859375,-1.402438998222351,0.6707317233085632,-0.030487805604934692,3.299999952316284,2.25,-7.050000190734863,35.137237548828125,0,
 460562,-0.33203125,-0.920166015625,-0.0185546875,-0.9451219439506531,0.4268292784690857,-0.15243902802467346,2.4000000953674316,0.44999998807907104,-7.949999809265137,35.089317321777344,0,
 460572,-0.32763671875,-0.922119140625,-0.01904296875,-1.3719512224197388,0.792682945728302,0.0,3.0,1.0499999523162842,-7.050000190734863,35.089317321777344,0,
 460582,-0.3310546875,-0.927490234375,-0.022705078125,-1.2195122241973877,0.5487805008888245,-0.15243902802467346,2.8499999046325684,2.549999952316284,-5.400000095367432,34.99346923828125,0,
 460592,-0.328125,-0.927001953125,-0.01953125,-0.5792682766914368,0.8231707215309143,0.12195122241973877,3.5999999046325684,2.8499999046325684,-9.149999618530273,35.089317321777344,0,
 460602,-0.32421875,-0.927490234375,-0.025146484375,-0.6402438879013062,0.3048780560493469,0.12195122241973877,3.5999999046325684,2.8499999046325684,-9.149999618530273,34.801780700683594,0,
 460612,-0.325927734375,-0.926025390625,-0.021484375,-0.5182926654815674,0.3658536672592163,0.396341472864151,3.0,0.30000001192092896,-6.75,34.99346923828125,0,
 460622,-0.327880859375,-0.91943359375,-0.0205078125,0.0,0.15243902802467346,0.7317073345184326,2.25,2.25,-6.300000190734863,34.99346923828125,0,
 460632,-0.330322265625,-0.927734375,-0.019775390625,-0.12195122241973877,-0.030487805604934692,0.6707317233085632,3.1500000953674316,2.549999952316284,-6.150000095367432,34.99346923828125,0,
 460642,-0.325927734375,-0.922607421875,-0.018310546875,-0.18292683362960815,0.24390244483947754,0.24390244483947754,3.299999952316284,3.1500000953674316,-7.5,35.137237548828125,0,
 460652,-0.329345703125,-0.91796875,-0.019287109375,0.0,0.27439025044441223,-0.09146341681480408,3.299999952316284,3.1500000953674316,-7.5,34.801780700683594,0,
 460662,-0.3291015625,-0.919677734375,-0.022216796875,-0.24390244483947754,0.060975611209869385,0.030487805604934692,2.4000000953674316,1.649999976158142,-7.949999809265137,35.089317321777344,0,
 460672,-0.32470703125,-0.91943359375,-0.016845703125,-0.18292683362960815,0.396341472864151,-0.396341472864151,3.0,2.700000047683716,-6.0,34.99346923828125,0,
 460682,-0.33056640625,-0.92919921875,-0.023193359375,-0.27439025044441223,0.27439025044441223,-0.15243902802467346,3.5999999046325684,0.8999999761581421,-7.199999809265137,34.99346923828125,0,
 460693,-0.3232421875,-0.927734375,-0.0234375,-0.060975611209869385,0.24390244483947754,-0.09146341681480408,3.5999999046325684,0.8999999761581421,-7.199999809265137,35.137237548828125,0,
 460703,-0.327392578125,-0.92822265625,-0.021484375,-0.15243902802467346,0.27439025044441223,-0.15243902802467346,3.0,0.0,-7.800000190734863,34.801780700683594,0,
 460713,-0.3251953125,-0.927978515625,-0.0244140625,-0.15243902802467346,0.27439025044441223,0.3353658616542816,3.5999999046325684,2.549999952316284,-6.900000095367432,35.137237548828125,0,
 460723,-0.32666015625,-0.925048828125,-0.0205078125,0.21341463923454285,0.24390244483947754,0.27439025044441223,3.75,2.25,-7.050000190734863,35.23308563232422,0,
 460733,-0.326171875,-0.927490234375,-0.0244140625,0.4573170840740204,-0.21341463923454285,0.12195122241973877,3.9000000953674316,0.44999998807907104,-7.949999809265137,35.137237548828125,0,
 460743,-0.329345703125,-0.9228515625,-0.02099609375,0.4573170840740204,0.060975611209869385,0.5487805008888245,3.9000000953674316,0.44999998807907104,-7.949999809265137,35.089317321777344,0,
 460753,-0.324462890625,-0.91845703125,-0.02001953125,0.09146341681480408,-0.030487805604934692,0.09146341681480408,3.299999952316284,1.0499999523162842,-7.800000190734863,34.801780700683594,0,
 460763,-0.33056640625,-0.924072265625,-0.018798828125,-0.15243902802467346,0.27439025044441223,0.09146341681480408,2.8499999046325684,1.350000023841858,-7.949999809265137,35.137237548828125,0,
 460773,-0.325927734375,-0.92529296875,-0.0166015625,-0.4878048896789551,0.27439025044441223,0.21341463923454285,3.75,1.0499999523162842,-6.300000190734863,34.99346923828125,0,
 460783,-0.326171875,-0.91943359375,-0.023681640625,-0.4268292784690857,0.3353658616542816,-0.21341463923454285,4.199999809265137,1.9500000476837158,-7.050000190734863,34.99346923828125,0,
 460793,-0.324951171875,-0.9208984375,-0.02392578125,-0.15243902802467346,0.4878048896789551,-0.24390244483947754,4.199999809265137,1.9500000476837158,-7.050000190734863,35.23308563232422,0,
 460803,-0.324951171875,-0.918701171875,-0.015380859375,-0.24390244483947754,0.5792682766914368,-0.4878048896789551,3.0,0.0,-10.5,34.801780700683594,0,
 460813,-0.32275390625,-0.923095703125,-0.0185546875,-0.030487805604934692,0.15243902802467346,-0.4878048896789551,3.75,1.0499999523162842,-7.5,35.089317321777344,0,
 460823,-0.32373046875,-0.920654296875,-0.0185546875,0.27439025044441223,0.15243902802467346,0.030487805604934692,3.299999952316284,1.0499999523162842,-7.5,35.281005859375,0,
 460833,-0.3232421875,-0.92333984375,-0.01416015625,0.4573170840740204,0.060975611209869385,-0.060975611209869385,4.650000095367432,2.8499999046325684,-6.900000095367432,34.99346923828125,0,
 460843,-0.325439453125,-0.92724609375,-0.01708984375,-0.21341463923454285,0.18292683362960815,0.18292683362960815,4.650000095367432,2.8499999046325684,-6.900000095367432,35.137237548828125,0,
 460853,-0.32666015625,-0.92626953125,-0.0224609375,0.12195122241973877,0.3658536672592163,0.4878048896789551,3.5999999046325684,0.8999999761581421,-7.199999809265137,35.089317321777344,0,
 460863,-0.32177734375,-0.928466796875,-0.01708984375,0.15243902802467346,0.15243902802467346,0.27439025044441223,3.0,2.25,-5.550000190734863,35.089317321777344,0,
 460873,-0.328857421875,-0.918212890625,-0.01953125,-0.15243902802467346,0.15243902802467346,0.8536585569381714,3.1500000953674316,1.350000023841858,-6.150000095367432,34.99346923828125,0,
 460883,-0.324951171875,-0.924072265625,-0.01416015625,0.09146341681480408,0.09146341681480408,0.7621951103210449,3.1500000953674316,1.350000023841858,-6.150000095367432,35.137237548828125,0,
 460893,-0.331787109375,-0.923583984375,-0.010498046875,-0.030487805604934692,-0.09146341681480408,1.0365853309631348,2.4000000953674316,2.8499999046325684,-8.399999618530273,34.99346923828125,0,
 460903,-0.3291015625,-0.92333984375,-0.0146484375,-0.4573170840740204,0.3353658616542816,0.4268292784690857,2.0999999046325684,-0.44999998807907104,-9.449999809265137,35.137237548828125,0,
 460913,-0.32177734375,-0.91796875,-0.01513671875,-0.7317073345184326,0.24390244483947754,0.5182926654815674,3.1500000953674316,1.649999976158142,-7.650000095367432,35.137237548828125,0,
 460923,-0.32958984375,-0.925048828125,-0.014404296875,-1.0670732259750366,0.3353658616542816,0.21341463923454285,3.5999999046325684,2.0999999046325684,-7.650000095367432,34.99346923828125,0,
 460933,-0.33056640625,-0.925048828125,-0.018798828125,-1.25,0.7012194991111755,0.15243902802467346,3.5999999046325684,2.0999999046325684,-7.650000095367432,35.137237548828125,0,
 460943,-0.328857421875,-0.925048828125,-0.01806640625,-1.1890244483947754,0.6097561120986938,0.4878048896789551,1.5,2.25,-6.300000190734863,34.801780700683594,0,
 460953,-0.33154296875,-0.926025390625,-0.018798828125,-1.3414634466171265,0.5182926654815674,0.3658536672592163,3.299999952316284,0.75,-9.0,35.137237548828125,0,
 460963,-0.3251953125,-0.925537109375,-0.02001953125,-1.585365891456604,0.7621951103210449,0.27439025044441223,4.650000095367432,1.350000023841858,-6.150000095367432,35.281005859375,0,
 460973,-0.3271484375,-0.926025390625,-0.019775390625,-1.402438998222351,0.792682945728302,0.4573170840740204,2.4000000953674316,0.8999999761581421,-7.199999809265137,35.089317321777344,0,
 460983,-0.324951171875,-0.92333984375,-0.017822265625,-1.5243902206420898,0.6097561120986938,0.4573170840740204,2.4000000953674316,0.8999999761581421,-7.199999809265137,35.23308563232422,0,
 460993,-0.32470703125,-0.9287109375,-0.018310546875,-1.3109756708145142,0.5487805008888245,0.6402438879013062,4.199999809265137,2.25,-7.5,34.801780700683594,0,
 461003,-0.327880859375,-0.918701171875,-0.020263671875,-1.3414634466171265,0.7317073345184326,0.4268292784690857,5.099999904632568,2.8499999046325684,-7.949999809265137,35.137237548828125,0,
 461013,-0.324462890625,-0.923828125,-0.018798828125,-1.2195122241973877,0.5182926654815674,0.3048780560493469,3.1500000953674316,1.649999976158142,-7.199999809265137,35.089317321777344,0,
 461023,-0.331298828125,-0.912841796875,-0.024658203125,-1.3109756708145142,0.7012194991111755,0.3048780560493469,3.75,1.0499999523162842,-6.0,34.99346923828125,0,
 461033,-0.32373046875,-0.918701171875,-0.02099609375,-1.3109756708145142,0.4878048896789551,0.27439025044441223,3.75,1.0499999523162842,-6.0,35.137237548828125,0,
 461043,-0.332763671875,-0.91796875,-0.0205078125,-0.9146341681480408,0.4878048896789551,0.060975611209869385,3.299999952316284,1.0499999523162842,-6.300000190734863,34.801780700683594,0,
 461053,-0.326904296875,-0.9189453125,-0.022216796875,-0.6097561120986938,0.6402438879013062,-0.060975611209869385,3.1500000953674316,2.0999999046325684,-6.150000095367432,35.23308563232422,0,
 461063,-0.325927734375,-0.923095703125,-0.01708984375,-0.9146341681480408,0.4573170840740204,-0.3353658616542816,2.549999952316284,1.0499999523162842,-6.300000190734863,35.137237548828125,0,
 461073,-0.32373046875,-0.920654296875,-0.01953125,-0.9146341681480408,0.3353658616542816,-0.09146341681480408,2.549999952316284,1.0499999523162842,-6.300000190734863,35.23308563232422,0,
 461083,-0.32373046875,-0.918212890625,-0.02197265625,-0.6097561120986938,0.5792682766914368,-0.030487805604934692,3.75,1.5,-7.5,35.137237548828125,0,
 461093,-0.32275390625,-0.922607421875,-0.0244140625,-0.5182926654815674,0.3353658616542816,0.24390244483947754,2.4000000953674316,0.8999999761581421,-8.399999618530273,34.99346923828125,0,
 461103,-0.325439453125,-0.922607421875,-0.019775390625,-0.7317073345184326,0.4268292784690857,-0.030487805604934692,2.4000000953674316,3.299999952316284,-7.650000095367432,34.94554901123047,0,
 461113,-0.32470703125,-0.921630859375,-0.012939453125,-0.3658536672592163,0.27439025044441223,0.396341472864151,3.0,1.9500000476837158,-7.050000190734863,35.281005859375,0,
 461123,-0.3193359375,-0.92333984375,-0.01611328125,-0.7621951103210449,0.09146341681480408,-0.030487805604934692,3.0,1.9500000476837158,-7.050000190734863,35.137237548828125,0,
 461133,-0.330322265625,-0.923095703125,-0.023681640625,0.09146341681480408,0.12195122241973877,0.0,3.9000000953674316,1.350000023841858,-7.650000095367432,34.99346923828125,0,
 461143,-0.3232421875,-0.918212890625,-0.015380859375,-0.396341472864151,0.24390244483947754,0.12195122241973877,3.5999999046325684,2.0999999046325684,-8.399999618530273,34.94554901123047,0,
 461153,-0.3291015625,-0.921142578125,-0.015869140625,-0.5487805008888245,0.4268292784690857,0.4573170840740204,4.199999809265137,2.700000047683716,-8.25,34.99346923828125,0,
 461163,-0.32373046875,-0.92236328125,-0.019775390625,-0.7621951103210449,0.4268292784690857,0.15243902802467346,2.25,1.9500000476837158,-7.800000190734863,34.94554901123047,0,
 461173,-0.33154296875,-0.9228515625,-0.015380859375,-0.396341472864151,0.396341472864151,0.396341472864151,2.25,1.9500000476837158,-7.800000190734863,34.99346923828125,0,
 461183,-0.333251953125,-0.924560546875,-0.017578125,-0.7012194991111755,0.3048780560493469,0.12195122241973877,6.300000190734863,0.15000000596046448,-7.949999809265137,35.089317321777344,0,
 461203,-0.32373046875,-0.9267578125,-0.016845703125,-0.7621951103210449,0.4878048896789551,0.7621951103210449,3.1500000953674316,1.649999976158142,-6.449999809265137,35.089317321777344,0,
 461213,-0.328369140625,-0.92138671875,-0.01904296875,-0.3048780560493469,0.18292683362960815,0.7621951103210449,2.549999952316284,1.9500000476837158,-7.800000190734863,34.99346923828125,0,
 461223,-0.32470703125,-0.92138671875,-0.02294921875,-0.7621951103210449,0.21341463923454285,1.1280487775802612,2.549999952316284,1.9500000476837158,-7.800000190734863,34.94554901123047,0,
 461233,-0.32373046875,-0.922607421875,-0.0205078125,-0.4268292784690857,0.21341463923454285,1.2195122241973877,4.349999904632568,1.350000023841858,-7.949999809265137,34.99346923828125,0,
 461243,-0.3203125,-0.923828125,-0.02490234375,-0.396341472864151,0.030487805604934692,1.0365853309631348,5.25,1.0499999523162842,-6.300000190734863,34.99346923828125,0,
 461253,-0.323974609375,-0.921630859375,-0.02197265625,-0.4573170840740204,0.09146341681480408,1.25,3.1500000953674316,1.649999976158142,-6.900000095367432,34.99346923828125,0,
 461263,-0.327880859375,-0.92529296875,-0.02294921875,-0.15243902802467346,-0.09146341681480408,1.1890244483947754,3.1500000953674316,1.649999976158142,-6.900000095367432,34.99346923828125,0,
 461273,-0.327392578125,-0.92578125,-0.02099609375,-0.12195122241973877,-0.18292683362960815,0.9146341681480408,3.5999999046325684,0.8999999761581421,-6.150000095367432,34.801780700683594,0,
 461283,-0.331298828125,-0.92724609375,-0.02197265625,-0.12195122241973877,-0.15243902802467346,0.7621951103210449,4.650000095367432,1.350000023841858,-6.449999809265137,35.137237548828125,0,
 461293,-0.32470703125,-0.922119140625,-0.017333984375,-0.060975611209869385,0.21341463923454285,0.6097561120986938,3.5999999046325684,1.350000023841858,-7.199999809265137,34.99346923828125,0,
 461303,-0.326904296875,-0.9189453125,-0.023681640625,-0.12195122241973877,0.09146341681480408,0.21341463923454285,4.650000095367432,0.44999998807907104,-6.900000095367432,35.137237548828125,0,
 461313,-0.333251953125,-0.918212890625,-0.022216796875,0.15243902802467346,0.09146341681480408,0.12195122241973877,4.650000095367432,0.44999998807907104,-6.900000095367432,34.99346923828125,0,
 461323,-0.328857421875,-0.916748046875,-0.016845703125,0.3353658616542816,-0.21341463923454285,-0.24390244483947754,4.349999904632568,3.299999952316284,-6.449999809265137,35.23308563232422,0,
 461333,-0.330322265625,-0.91845703125,-0.02001953125,0.6707317233085632,-0.15243902802467346,-0.5792682766914368,3.299999952316284,1.9500000476837158,-7.5,34.99346923828125,0,
 461343,-0.32470703125,-0.921875,-0.0234375,0.4878048896789551,-0.21341463923454285,-0.5487805008888245,3.9000000953674316,2.0999999046325684,-7.650000095367432,35.137237548828125,0,
 461353,-0.328857421875,-0.92724609375,-0.014892578125,0.4878048896789551,-0.030487805604934692,-0.7621951103210449,3.5999999046325684,0.8999999761581421,-7.650000095367432,35.137237548828125,0,
 461363,-0.33251953125,-0.9208984375,-0.022216796875,0.5792682766914368,-0.18292683362960815,-0.7317073345184326,3.5999999046325684,0.8999999761581421,-7.650000095367432,35.281005859375,0,
 461373,-0.331787109375,-0.92529296875,-0.015625,0.7621951103210449,-0.09146341681480408,-0.7012194991111755,2.8499999046325684,1.350000023841858,-6.449999809265137,35.23308563232422,0,
 461383,-0.3232421875,-0.927490234375,-0.0185546875,0.6707317233085632,-0.030487805604934692,-0.7012194991111755,3.1500000953674316,3.299999952316284,-7.199999809265137,34.801780700683594,0,
 461393,-0.32568359375,-0.9287109375,-0.018798828125,0.0,0.15243902802467346,-0.396341472864151,2.549999952316284,1.5,-7.5,34.99346923828125,0,
 461403,-0.326416015625,-0.92333984375,-0.01806640625,0.4573170840740204,0.18292683362960815,-0.396341472864151,2.549999952316284,1.5,-7.050000190734863,35.137237548828125,0,
 461413,-0.33056640625,-0.927978515625,-0.018798828125,0.4268292784690857,0.396341472864151,-0.396341472864151,2.549999952316284,1.5,-7.050000190734863,35.089317321777344,0,
 461423,-0.33154296875,-0.923583984375,-0.018310546875,0.12195122241973877,0.3048780560493469,-0.3353658616542816,2.4000000953674316,1.350000023841858,-7.650000095367432,35.089317321777344,0,
 461433,-0.32421875,-0.9306640625,-0.01953125,-0.12195122241973877,0.09146341681480408,0.060975611209869385,3.5999999046325684,0.8999999761581421,-7.650000095367432,34.99346923828125,0,
 461444,-0.32666015625,-0.925048828125,-0.01611328125,-0.5792682766914368,0.030487805604934692,0.3353658616542816,3.5999999046325684,0.8999999761581421,-7.949999809265137,35.137237548828125,0,
 461454,-0.32763671875,-0.9287109375,-0.015869140625,-0.5487805008888245,0.396341472864151,-0.030487805604934692,3.5999999046325684,0.8999999761581421,-7.949999809265137,35.137237548828125,0,
 461464,-0.32763671875,-0.92724609375,-0.01416015625,-0.9756097793579102,0.27439025044441223,0.18292683362960815,3.1500000953674316,1.649999976158142,-7.199999809265137,34.99346923828125,0,
 461474,-0.329345703125,-0.930419921875,-0.015625,-0.8536585569381714,0.4878048896789551,0.24390244483947754,3.299999952316284,2.700000047683716,-7.5,34.801780700683594,0,
 461484,-0.33056640625,-0.928466796875,-0.01806640625,-1.432926893234253,0.7621951103210449,0.7621951103210449,2.8499999046325684,0.8999999761581421,-7.199999809265137,34.7059326171875,0,
 461494,-0.324951171875,-0.927490234375,-0.017578125,-1.585365891456604,0.5182926654815674,0.6097561120986938,2.8499999046325684,0.8999999761581421,-7.199999809265137,35.137237548828125,0,
 461504,-0.3251953125,-0.921875,-0.023681640625,-1.4634146690368652,0.4573170840740204,1.402438998222351,2.8499999046325684,0.8999999761581421,-7.199999809265137,35.137237548828125,0,
 461514,-0.328125,-0.919189453125,-0.02099609375,-1.9817073345184326,0.792682945728302,1.097561001777649,2.4000000953674316,2.25,-8.550000190734863,35.089317321777344,0,
 461524,-0.32763671875,-0.916259765625,-0.01806640625,-1.7073171138763428,0.7621951103210449,1.4939024448394775,3.9000000953674316,0.8999999761581421,-8.399999618530273,35.089317321777344,0,
 461534,-0.3271484375,-0.919921875,-0.015869140625,-1.6463414430618286,0.5487805008888245,1.4634146690368652,2.8499999046325684,1.649999976158142,-6.449999809265137,34.801780700683594,0,
 461544,-0.33056640625,-0.91162109375,-0.0185546875,-1.6158536672592163,0.7317073345184326,1.402438998222351,2.8499999046325684,1.649999976158142,-6.449999809265137,34.801780700683594,0,
 461554,-0.327392578125,-0.917724609375,-0.01904296875,-1.5243902206420898,0.8536585569381714,1.2195122241973877,2.8499999046325684,1.649999976158142,-6.449999809265137,35.23308563232422,0,
 461564,-0.322998046875,-0.916015625,-0.021484375,-1.2195122241973877,0.7317073345184326,0.6707317233085632,3.5999999046325684,1.649999976158142,-8.399999618530273,34.99346923828125,0,
 461574,-0.324462890625,-0.9208984375,-0.020263671875,-1.0670732259750366,0.6097561120986938,0.4573170840740204,4.5,2.25,-6.300000190734863,34.99346923828125,0,
 461584,-0.33154296875,-0.92431640625,-0.022216796875,-1.2195122241973877,0.6707317233085632,0.060975611209869385,2.8499999046325684,1.350000023841858,-7.949999809265137,34.99346923828125,0,
 461594,-0.330810546875,-0.91748046875,-0.01806640625,-1.3109756708145142,1.0365853309631348,-0.09146341681480408,2.8499999046325684,1.350000023841858,-7.949999809265137,35.52062225341797,0,
 461604,-0.330322265625,-0.924072265625,-0.01904296875,-1.4634146690368652,0.7621951103210449,-0.4573170840740204,3.5999999046325684,1.649999976158142,-6.900000095367432,35.089317321777344,0,
 461614,-0.32763671875,-0.926025390625,-0.02197265625,-0.9146341681480408,0.7317073345184326,-0.3658536672592163,3.0,2.25,-8.550000190734863,35.137237548828125,0,
 461624,-0.319091796875,-0.921630859375,-0.021728515625,-0.9451219439506531,0.5792682766914368,0.060975611209869385,3.9000000953674316,0.8999999761581421,-8.399999618530273,34.99346923828125,0,
 461634,-0.3291015625,-0.92724609375,-0.02294921875,-0.4878048896789551,0.3353658616542816,-0.15243902802467346,3.9000000953674316,0.8999999761581421,-8.399999618530273,34.801780700683594,0,
 461644,-0.331787109375,-0.9228515625,-0.02587890625,-0.4878048896789551,0.27439025044441223,0.18292683362960815,3.5999999046325684,1.350000023841858,-7.199999809265137,35.137237548828125,0,
 461654,-0.328857421875,-0.91943359375,-0.023193359375,0.12195122241973877,0.3353658616542816,0.060975611209869385,2.549999952316284,2.25,-7.050000190734863,35.23308563232422,0,
 461664,-0.330810546875,-0.922119140625,-0.016845703125,-0.09146341681480408,-0.12195122241973877,0.09146341681480408,3.5999999046325684,1.350000023841858,-7.650000095367432,35.137237548828125,0,
 461674,-0.333251953125,-0.921875,-0.015380859375,0.12195122241973877,0.09146341681480408,-0.060975611209869385,3.299999952316284,0.0,-7.5,35.137237548828125,0,
 461684,-0.326416015625,-0.919677734375,-0.015625,-0.030487805604934692,0.18292683362960815,0.24390244483947754,3.299999952316284,0.0,-7.5,34.99346923828125,0,
 461694,-0.32861328125,-0.928955078125,-0.016845703125,-0.18292683362960815,0.060975611209869385,-0.09146341681480408,3.1500000953674316,2.0999999046325684,-8.699999809265137,35.137237548828125,0,
 461704,-0.323974609375,-0.92431640625,-0.024658203125,-0.030487805604934692,0.27439025044441223,-0.030487805604934692,3.0,1.5,-7.5,35.137237548828125,0,
 461714,-0.32373046875,-0.9189453125,-0.01708984375,0.0,0.060975611209869385,-0.030487805604934692,5.25,0.75,-8.550000190734863,35.47269821166992,0,
 461724,-0.32763671875,-0.92236328125,-0.0185546875,0.15243902802467346,0.12195122241973877,0.09146341681480408,1.7999999523162842,1.5,-7.800000190734863,34.99346923828125,0,
 461734,-0.32568359375,-0.923583984375,-0.020751953125,0.0,0.18292683362960815,0.21341463923454285,1.7999999523162842,1.5,-7.800000190734863,35.089317321777344,0,
 461744,-0.325439453125,-0.923095703125,-0.018798828125,0.12195122241973877,0.060975611209869385,0.3658536672592163,3.0,1.9500000476837158,-7.050000190734863,35.089317321777344,0,
 461754,-0.322021484375,-0.9189453125,-0.01904296875,0.3353658616542816,-0.12195122241973877,0.3353658616542816,5.25,0.30000001192092896,-6.0,34.99346923828125,0,
 461764,-0.324462890625,-0.92578125,-0.017333984375,0.030487805604934692,-0.15243902802467346,0.5792682766914368,4.349999904632568,1.350000023841858,-7.199999809265137,35.137237548828125,0,
 461774,-0.326416015625,-0.924560546875,-0.018798828125,-0.27439025044441223,0.18292683362960815,0.09146341681480408,2.8499999046325684,2.0999999046325684,-7.650000095367432,34.7059326171875,0,
 461784,-0.325439453125,-0.91748046875,-0.01904296875,-0.6402438879013062,0.3658536672592163,0.4878048896789551,2.8499999046325684,2.0999999046325684,-7.650000095367432,35.089317321777344,0,
 461794,-0.330078125,-0.923095703125,-0.015869140625,-0.4878048896789551,0.060975611209869385,0.030487805604934692,3.75,2.700000047683716,-7.5,35.089317321777344,0,
 461804,-0.32568359375,-0.92041015625,-0.016845703125,-0.3048780560493469,0.3658536672592163,0.15243902802467346,3.299999952316284,1.5,-6.75,35.137237548828125,0,
 461814,-0.32470703125,-0.922119140625,-0.017333984375,-0.12195122241973877,0.24390244483947754,0.09146341681480408,3.0,4.349999904632568,-9.300000190734863,34.99346923828125,0,
 461824,-0.329345703125,-0.92431640625,-0.017333984375,-0.18292683362960815,0.3658536672592163,0.0,3.0,4.349999904632568,-9.300000190734863,34.801780700683594,0,
 461834,-0.323486328125,-0.921630859375,-0.013671875,0.12195122241973877,0.3658536672592163,-0.18292683362960815,4.199999809265137,1.9500000476837158,-7.800000190734863,35.137237548828125,0,
 461844,-0.3232421875,-0.923095703125,-0.01611328125,-0.060975611209869385,0.18292683362960815,-0.12195122241973877,3.299999952316284,-0.30000001192092896,-6.300000190734863,35.137237548828125,0,
 461854,-0.32421875,-0.91748046875,-0.02099609375,-0.5792682766914368,0.24390244483947754,-0.21341463923454285,3.299999952316284,0.30000001192092896,-7.800000190734863,35.089317321777344,0,
 461864,-0.3251953125,-0.92333984375,-0.018798828125,0.0,0.09146341681480408,0.21341463923454285,4.199999809265137,2.25,-7.050000190734863,35.089317321777344,0,
 461874,-0.327880859375,-0.92578125,-0.01806640625,-0.6402438879013062,0.3353658616542816,-0.060975611209869385,4.199999809265137,2.25,-7.050000190734863,34.99346923828125,0,
 461884,-0.326171875,-0.92236328125,-0.019775390625,-0.21341463923454285,0.3048780560493469,-0.060975611209869385,3.0,0.30000001192092896,-8.25,35.089317321777344,0,
 461894,-0.328125,-0.92626953125,-0.0185546875,-0.792682945728302,0.3353658616542816,0.3048780560493469,3.299999952316284,0.30000001192092896,-5.550000190734863,34.94554901123047,0,
 461904,-0.328857421875,-0.924560546875,-0.01953125,-0.4268292784690857,0.5182926654815674,0.5792682766914368,3.0,1.0499999523162842,-6.300000190734863,34.94554901123047,0,
 461914,-0.3349609375,-0.9296875,-0.02099609375,-0.5487805008888245,0.396341472864151,0.4573170840740204,3.299999952316284,1.9500000476837158,-7.800000190734863,34.99346923828125,0,
 461924,-0.32666015625,-0.927978515625,-0.024658203125,-0.4573170840740204,0.3353658616542816,0.4268292784690857,3.299999952316284,1.9500000476837158,-7.800000190734863,34.94554901123047,0,
 461934,-0.3310546875,-0.922119140625,-0.019775390625,-0.5182926654815674,0.3353658616542816,0.6707317233085632,3.1500000953674316,1.350000023841858,-6.449999809265137,35.089317321777344,0,
 461944,-0.32421875,-0.924072265625,-0.017822265625,-0.7012194991111755,0.21341463923454285,0.6097561120986938,4.199999809265137,1.0499999523162842,-6.0,35.089317321777344,0,
 461954,-0.325927734375,-0.921630859375,-0.01513671875,-0.6097561120986938,0.4878048896789551,0.3658536672592163,3.75,1.9500000476837158,-7.800000190734863,34.99346923828125,0,
 461964,-0.330078125,-0.92333984375,-0.015625,-0.792682945728302,0.4878048896789551,0.3353658616542816,3.5999999046325684,2.549999952316284,-6.449999809265137,34.99346923828125,0,
 461974,-0.324462890625,-0.923828125,-0.01611328125,-0.9756097793579102,0.6707317233085632,-0.21341463923454285,3.5999999046325684,2.549999952316284,-6.449999809265137,34.99346923828125,0,
 461984,-0.324462890625,-0.921142578125,-0.017333984375,-1.097561001777649,0.6402438879013062,0.15243902802467346,5.25,3.1500000953674316,-6.0,34.99346923828125,0,
 461994,-0.324951171875,-0.92724609375,-0.0224609375,-0.8536585569381714,0.4878048896789551,-0.060975611209869385,2.25,0.75,-6.75,35.23308563232422,0,
 462004,-0.32666015625,-0.92431640625,-0.0234375,-0.8841463327407837,0.6402438879013062,0.27439025044441223,3.0,1.9500000476837158,-7.5,34.99346923828125,0,
 462014,-0.32763671875,-0.921630859375,-0.01953125,-0.6707317233085632,0.3658536672592163,0.5487805008888245,2.549999952316284,2.25,-7.050000190734863,35.281005859375,0,
 462024,-0.326171875,-0.9296875,-0.02099609375,-0.6097561120986938,0.4573170840740204,0.7012194991111755,2.549999952316284,2.25,-7.050000190734863,34.801780700683594,0,
 462034,-0.332275390625,-0.922607421875,-0.0205078125,-0.5487805008888245,0.09146341681480408,0.8841463327407837,4.650000095367432,0.44999998807907104,-9.149999618530273,35.137237548828125,0,
 462044,-0.32763671875,-0.92138671875,-0.015869140625,-0.3048780560493469,0.24390244483947754,0.9756097793579102,2.549999952316284,0.75,-7.050000190734863,35.137237548828125,0,
 462054,-0.326171875,-0.921875,-0.01611328125,-0.3048780560493469,0.09146341681480408,0.792682945728302,2.25,1.0499999523162842,-6.75,35.137237548828125,0,
 462064,-0.3310546875,-0.92578125,-0.0205078125,-0.8231707215309143,0.3353658616542816,0.4573170840740204,2.25,1.0499999523162842,-6.75,35.089317321777344,0,
 462074,-0.3291015625,-0.922119140625,-0.015625,-1.097561001777649,0.21341463923454285,0.3048780560493469,3.1500000953674316,0.44999998807907104,-7.650000095367432,34.801780700683594,0,
 462084,-0.32421875,-0.923095703125,-0.013916015625,-0.9146341681480408,0.3048780560493469,0.4878048896789551,3.299999952316284,1.5,-7.5,35.137237548828125,0,
 462094,-0.32568359375,-0.921875,-0.015625,-1.097561001777649,0.15243902802467346,0.15243902802467346,4.199999809265137,1.9500000476837158,-6.300000190734863,35.23308563232422,0,
 462104,-0.325927734375,-0.917236328125,-0.01953125,-0.5792682766914368,0.3353658616542816,-0.060975611209869385,3.75,1.0499999523162842,-7.5,35.137237548828125,0,
 462114,-0.327880859375,-0.923583984375,-0.025390625,-0.8231707215309143,0.4268292784690857,-0.3048780560493469,3.75,1.0499999523162842,-7.5,35.23308563232422,0,
 462124,-0.334716796875,-0.921875,-0.02099609375,-0.7317073345184326,0.5487805008888245,-0.3658536672592163,4.650000095367432,2.0999999046325684,-9.899999618530273,35.137237548828125,0,
 462134,-0.32958984375,-0.926513671875,-0.022216796875,-0.8536585569381714,0.21341463923454285,0.09146341681480408,2.549999952316284,1.5,-6.75,34.89762496948242,0,
 462144,-0.321044921875,-0.92333984375,-0.0185546875,-0.5182926654815674,0.12195122241973877,0.12195122241973877,3.9000000953674316,1.649999976158142,-6.900000095367432,34.94554901123047,0,
 462154,-0.32568359375,-0.930908203125,-0.021484375,-0.4268292784690857,0.4268292784690857,0.3353658616542816,3.9000000953674316,1.350000023841858,-7.199999809265137,34.89762496948242,0,
 462164,-0.32666015625,-0.925048828125,-0.015869140625,-0.18292683362960815,0.0,0.6402438879013062,3.9000000953674316,1.350000023841858,-7.199999809265137,35.137237548828125,0,
 462174,-0.325439453125,-0.924072265625,-0.01953125,-0.18292683362960815,0.060975611209869385,0.7317073345184326,3.75,1.9500000476837158,-6.300000190734863,34.99346923828125,0,
 462184,-0.327880859375,-0.929443359375,-0.020751953125,-0.3353658616542816,0.21341463923454285,0.7012194991111755,2.0999999046325684,2.0999999046325684,-7.199999809265137,34.99346923828125,0,
 462194,-0.325439453125,-0.9189453125,-0.017578125,-0.24390244483947754,0.060975611209869385,0.5487805008888245,3.9000000953674316,0.8999999761581421,-7.650000095367432,35.23308563232422,0,
 462204,-0.32373046875,-0.92236328125,-0.013671875,-0.030487805604934692,0.09146341681480408,0.7621951103210449,4.199999809265137,0.75,-8.25,34.99346923828125,0,
 462214,-0.332763671875,-0.91943359375,-0.01611328125,-0.27439025044441223,0.3353658616542816,0.5487805008888245,4.199999809265137,0.75,-8.25,35.281005859375,0,
 462955,-0.324462890625,-0.919921875,-0.016845703125,-0.12195122241973877,0.21341463923454285,0.12195122241973877,3.5999999046325684,0.44999998807907104,-6.449999809265137,34.99346923828125,0,
 462965,-0.327392578125,-0.920166015625,-0.0166015625,-0.24390244483947754,0.396341472864151,0.18292683362960815,3.299999952316284,1.9500000476837158,-8.25,34.94554901123047,0,
 462975,-0.329345703125,-0.926025390625,-0.020751953125,-0.3353658616542816,0.3048780560493469,0.27439025044441223,3.299999952316284,1.9500000476837158,-8.25,35.137237548828125,0,
 462985,-0.32470703125,-0.927490234375,-0.018798828125,-0.12195122241973877,0.12195122241973877,0.18292683362960815,2.4000000953674316,1.350000023841858,-7.650000095367432,34.99346923828125,0,
 462995,-0.331298828125,-0.9267578125,-0.020263671875,-0.3658536672592163,0.15243902802467346,0.12195122241973877,2.0999999046325684,1.350000023841858,-7.199999809265137,35.137237548828125,0,
 463005,-0.326416015625,-0.921630859375,-0.01611328125,-0.396341472864151,0.27439025044441223,0.18292683362960815,4.650000095367432,2.549999952316284,-8.399999618530273,34.7059326171875,0,
 463015,-0.326171875,-0.919677734375,-0.017822265625,-0.5487805008888245,0.09146341681480408,0.060975611209869385,4.650000095367432,2.549999952316284,-8.399999618530273,34.99346923828125,0,
 463026,-0.328857421875,-0.92236328125,-0.015380859375,-0.7012194991111755,0.4268292784690857,0.24390244483947754,2.8499999046325684,2.8499999046325684,-7.650000095367432,35.089317321777344,0,
 463036,-0.332763671875,-0.9248046875,-0.0224609375,-0.6707317233085632,0.3658536672592163,0.5792682766914368,2.8499999046325684,1.350000023841858,-6.449999809265137,35.137237548828125,0,
 463046,-0.329833984375,-0.923583984375,-0.01904296875,-0.060975611209869385,0.12195122241973877,0.3353658616542816,3.299999952316284,3.450000047683716,-9.75,35.281005859375,0,
 463056,-0.3251953125,-0.92724609375,-0.020751953125,-0.5792682766914368,0.3353658616542816,0.4573170840740204,4.5,1.5,-7.800000190734863,34.801780700683594,0,
 463066,-0.32763671875,-0.9248046875,-0.02197265625,-0.8231707215309143,0.24390244483947754,0.396341472864151,4.5,1.5,-7.800000190734863,35.23308563232422,0,
 463076,-0.32861328125,-0.92431640625,-0.020751953125,-0.3048780560493469,0.3353658616542816,0.27439025044441223,3.5999999046325684,1.350000023841858,-7.650000095367432,35.137237548828125,0,
 463086,-0.32763671875,-0.925537109375,-0.016357421875,-0.5792682766914368,0.3353658616542816,0.5487805008888245,4.349999904632568,1.649999976158142,-8.699999809265137,34.801780700683594,0,
 463096,-0.328369140625,-0.926025390625,-0.01904296875,-0.24390244483947754,0.3353658616542816,0.3658536672592163,2.8499999046325684,0.8999999761581421,-7.199999809265137,34.801780700683594,0,
 463106,-0.326171875,-0.924072265625,-0.01708984375,-0.27439025044441223,0.21341463923454285,0.15243902802467346,3.0,1.9500000476837158,-6.300000190734863,35.137237548828125,0,
 463116,-0.3251953125,-0.916748046875,-0.017578125,-0.5792682766914368,0.21341463923454285,0.12195122241973877,3.0,1.9500000476837158,-6.300000190734863,35.089317321777344,0,
 463126,-0.33154296875,-0.9208984375,-0.019287109375,-0.396341472864151,0.3353658616542816,0.5792682766914368,4.349999904632568,1.350000023841858,-8.399999618530273,34.99346923828125,0,
 463136,-0.32275390625,-0.922607421875,-0.010009765625,-0.396341472864151,0.18292683362960815,0.4268292784690857,3.1500000953674316,3.299999952316284,-6.449999809265137,35.23308563232422,0,
 463146,-0.326416015625,-0.918212890625,-0.0205078125,-0.3658536672592163,0.4268292784690857,0.24390244483947754,3.0,2.25,-7.800000190734863,34.94554901123047,0,
 463156,-0.33154296875,-0.919921875,-0.02099609375,-0.5487805008888245,0.3658536672592163,-0.030487805604934692,3.9000000953674316,1.350000023841858,-6.449999809265137,35.32892990112305,0,
 463166,-0.325927734375,-0.923095703125,-0.020263671875,-0.6707317233085632,0.060975611209869385,-0.09146341681480408,3.9000000953674316,1.350000023841858,-6.449999809265137,35.281005859375,0,
 463176,-0.330810546875,-0.925048828125,-0.019287109375,-0.4878048896789551,0.3048780560493469,0.0,3.75,2.700000047683716,-7.800000190734863,35.089317321777344,0,
 463186,-0.330078125,-0.918212890625,-0.02099609375,-0.5792682766914368,0.15243902802467346,-0.21341463923454285,3.5999999046325684,1.649999976158142,-7.199999809265137,34.99346923828125,0,
 463196,-0.3271484375,-0.921630859375,-0.017578125,-0.6097561120986938,0.3048780560493469,-0.24390244483947754,3.5999999046325684,0.44999998807907104,-5.699999809265137,34.801780700683594,0,
 463206,-0.323974609375,-0.92333984375,-0.020263671875,-0.5182926654815674,0.3658536672592163,-0.24390244483947754,3.5999999046325684,0.44999998807907104,-5.699999809265137,35.23308563232422,0,
 463216,-0.328125,-0.92138671875,-0.01416015625,-0.6097561120986938,0.4573170840740204,0.060975611209869385,4.349999904632568,2.549999952316284,-6.449999809265137,35.089317321777344,0,
 463226,-0.327392578125,-0.92431640625,-0.013671875,-0.6707317233085632,0.6097561120986938,0.21341463923454285,3.9000000953674316,0.44999998807907104,-7.650000095367432,35.137237548828125,0,
 463236,-0.32763671875,-0.924560546875,-0.0205078125,-0.3048780560493469,0.24390244483947754,0.27439025044441223,3.299999952316284,1.5,-7.5,35.23308563232422,0,
 463256,-0.32470703125,-0.923095703125,-0.018798828125,-0.12195122241973877,0.09146341681480408,0.9451219439506531,3.9000000953674316,2.0999999046325684,-6.900000095367432,35.137237548828125,0,
 463266,-0.3291015625,-0.92578125,-0.01806640625,-0.24390244483947754,0.24390244483947754,1.097561001777649,3.0,2.25,-7.800000190734863,34.99346923828125,0,
 463276,-0.3310546875,-0.927734375,-0.01513671875,-0.3658536672592163,0.060975611209869385,1.0365853309631348,3.75,1.5,-7.5,35.089317321777344,0,
 463286,-0.330322265625,-0.92041015625,-0.017822265625,-0.09146341681480408,0.3048780560493469,0.7012194991111755,3.75,2.25,-7.800000190734863,35.47269821166992,0,
 463296,-0.3271484375,-0.92626953125,-0.0205078125,-0.7317073345184326,0.3353658616542816,0.4573170840740204,4.5,2.700000047683716,-7.050000190734863,34.89762496948242,0,
 463306,-0.329345703125,-0.926025390625,-0.017333984375,-0.4573170840740204,0.7317073345184326,0.030487805604934692,4.5,2.700000047683716,-7.050000190734863,35.089317321777344,0,
 463316,-0.33056640625,-0.923828125,-0.022216796875,-0.7621951103210449,0.5792682766914368,-0.15243902802467346,3.5999999046325684,1.350000023841858,-7.650000095367432,34.99346923828125,0,
 463326,-0.327392578125,-0.924560546875,-0.02099609375,-0.792682945728302,0.6402438879013062,0.030487805604934692,4.199999809265137,1.5,-7.5,35.089317321777344,0,
 463336,-0.32373046875,-0.923828125,-0.015380859375,-0.7621951103210449,0.4573170840740204,-0.09146341681480408,4.5,2.25,-6.75,35.137237548828125,0,
 463346,-0.3271484375,-0.9248046875,-0.015869140625,-0.8536585569381714,0.27439025044441223,-0.21341463923454285,4.5,2.25,-6.75,34.801780700683594,0,
 463356,-0.328369140625,-0.9267578125,-0.015625,-0.8536585569381714,0.3353658616542816,0.15243902802467346,5.099999904632568,1.350000023841858,-9.149999618530273,35.137237548828125,0,
 463366,-0.326904296875,-0.92724609375,-0.017822265625,-0.7012194991111755,0.4878048896789551,0.5487805008888245,2.8499999046325684,2.8499999046325684,-8.399999618530273,35.137237548828125,0,
 463376,-0.32861328125,-0.926025390625,-0.023193359375,-0.5792682766914368,0.396341472864151,0.5792682766914368,3.9000000953674316,3.75,-7.949999809265137,35.137237548828125,0,
 463386,-0.33203125,-0.92724609375,-0.016357421875,-0.6707317233085632,-0.09146341681480408,0.7012194991111755,3.5999999046325684,2.549999952316284,-6.900000095367432,35.137237548828125,0,
 463396,-0.324951171875,-0.920654296875,-0.016357421875,-0.09146341681480408,0.15243902802467346,0.4878048896789551,3.5999999046325684,2.549999952316284,-6.900000095367432,34.75385665893555,0,
 463406,-0.32373046875,-0.9267578125,-0.015625,-0.5182926654815674,0.3048780560493469,0.8841463327407837,3.75,1.9500000476837158,-6.300000190734863,34.99346923828125,0,
 463416,-0.32373046875,-0.923828125,-0.020263671875,-0.3048780560493469,0.27439025044441223,0.4878048896789551,3.1500000953674316,0.15000000596046448,-7.199999809265137,35.137237548828125,0,
 463426,-0.3251953125,-0.927001953125,-0.0185546875,-0.3353658616542816,0.3353658616542816,0.5182926654815674,3.9000000953674316,2.8499999046325684,-6.449999809265137,34.99346923828125,0,
 463436,-0.32568359375,-0.92626953125,-0.016845703125,-0.4573170840740204,0.060975611209869385,0.060975611209869385,3.5999999046325684,2.549999952316284,-7.650000095367432,35.137237548828125,0,
 463446,-0.330322265625,-0.91943359375,-0.015625,-0.6402438879013062,0.18292683362960815,0.3353658616542816,3.5999999046325684,2.549999952316284,-7.650000095367432,34.94554901123047,0,
 463456,-0.32666015625,-0.927978515625,-0.018310546875,-0.5487805008888245,0.4268292784690857,0.09146341681480408,2.8499999046325684,2.549999952316284,-10.649999618530273,35.137237548828125,0,
 463466,-0.328369140625,-0.922607421875,-0.0244140625,-0.3353658616542816,0.27439025044441223,-0.24390244483947754,4.199999809265137,1.9500000476837158,-6.300000190734863,35.23308563232422,0,
 463476,-0.320556640625,-0.922607421875,-0.02099609375,-0.21341463923454285,0.0,0.15243902802467346,3.0,0.75,-7.5,34.99346923828125,0,
 463486,-0.326171875,-0.91845703125,-0.0185546875,-0.3048780560493469,0.24390244483947754,-0.030487805604934692,3.299999952316284,3.1500000953674316,-8.25,34.99346923828125,0,
 463496,-0.32861328125,-0.921142578125,-0.021728515625,-0.396341472864151,0.3658536672592163,0.09146341681480408,3.299999952316284,3.1500000953674316,-8.25,34.89762496948242,0,
 463506,-0.3193359375,-0.92626953125,-0.01904296875,-0.4878048896789551,0.15243902802467346,-0.15243902802467346,3.5999999046325684,2.549999952316284,-6.900000095367432,35.137237548828125,0,
 463516,-0.3251953125,-0.9248046875,-0.021484375,-0.4268292784690857,0.4268292784690857,0.4573170840740204,2.25,2.25,-7.800000190734863,35.281005859375,0,
 463526,-0.3232421875,-0.927978515625,-0.017578125,-0.030487805604934692,0.3658536672592163,0.27439025044441223,3.299999952316284,1.0499999523162842,-7.5,35.23308563232422,0,
 463536,-0.323974609375,-0.92529296875,-0.01416015625,-0.7012194991111755,0.060975611209869385,0.6402438879013062,3.299999952316284,1.0499999523162842,-7.5,35.089317321777344,0,
 463546,-0.329345703125,-0.923583984375,-0.018798828125,-0.09146341681480408,0.27439025044441223,0.3353658616542816,2.8499999046325684,1.649999976158142,-7.199999809265137,34.99346923828125,0,
 463556,-0.3232421875,-0.92333984375,-0.02001953125,0.24390244483947754,-0.09146341681480408,0.5792682766914368,3.5999999046325684,1.649999976158142,-7.650000095367432,35.137237548828125,0,
 463566,-0.326171875,-0.923583984375,-0.01953125,-0.09146341681480408,-0.12195122241973877,0.3048780560493469,3.1500000953674316,1.350000023841858,-6.900000095367432,34.75385665893555,0,
 463576,-0.33251953125,-0.923828125,-0.018310546875,-0.21341463923454285,0.4878048896789551,0.4878048896789551,3.1500000953674316,0.8999999761581421,-6.900000095367432,35.281005859375,0,
 463586,-0.3291015625,-0.92431640625,-0.01806640625,-0.6707317233085632,0.18292683362960815,0.3658536672592163,3.1500000953674316,0.8999999761581421,-6.900000095367432,34.94554901123047,0,
 463596,-0.332763671875,-0.923583984375,-0.01513671875,-0.8841463327407837,0.4573170840740204,-0.18292683362960815,2.0999999046325684,1.350000023841858,-7.199999809265137,35.137237548828125,0,
 463606,-0.3291015625,-0.9189453125,-0.017333984375,-0.7012194991111755,0.24390244483947754,-0.060975611209869385,3.0,1.5,-6.300000190734863,35.137237548828125,0,
 463616,-0.329345703125,-0.91845703125,-0.016357421875,-0.7317073345184326,0.4878048896789551,-0.15243902802467346,4.650000095367432,1.649999976158142,-5.400000095367432,35.089317321777344,0,
 463626,-0.325927734375,-0.917236328125,-0.016357421875,-0.8231707215309143,0.5792682766914368,-0.18292683362960815,3.9000000953674316,1.350000023841858,-7.199999809265137,35.281005859375,0,
 463636,-0.322998046875,-0.927001953125,-0.018310546875,-0.6707317233085632,0.4878048896789551,0.18292683362960815,3.9000000953674316,1.350000023841858,-7.199999809265137,34.801780700683594,0,
 463646,-0.32373046875,-0.928466796875,-0.0185546875,-0.5792682766914368,0.4573170840740204,0.3048780560493469,2.4000000953674316,0.8999999761581421,-7.650000095367432,35.137237548828125,0,
 463656,-0.328369140625,-0.923583984375,-0.016357421875,-0.7621951103210449,0.3658536672592163,0.4878048896789551,3.5999999046325684,2.0999999046325684,-7.650000095367432,34.89762496948242,0,
 463666,-0.32421875,-0.928955078125,-0.02197265625,-0.3353658616542816,0.5487805008888245,0.4878048896789551,1.5,0.0,-7.800000190734863,35.137237548828125,0,
 463676,-0.328125,-0.9248046875,-0.0166015625,-0.5792682766914368,-0.030487805604934692,0.7012194991111755,2.8499999046325684,0.8999999761581421,-7.650000095367432,35.137237548828125,0,
 463686,-0.328857421875,-0.917236328125,-0.01953125,-0.5487805008888245,0.3658536672592163,0.3353658616542816,2.8499999046325684,0.8999999761581421,-7.650000095367432,34.94554901123047,0,
 463696,-0.327392578125,-0.919189453125,-0.0166015625,-0.27439025044441223,0.18292683362960815,-0.12195122241973877,2.4000000953674316,0.44999998807907104,-7.650000095367432,35.137237548828125,0,
 463706,-0.32470703125,-0.9208984375,-0.01416015625,-0.7317073345184326,0.27439025044441223,-0.09146341681480408,2.4000000953674316,1.649999976158142,-6.449999809265137,35.137237548828125,0,
 463716,-0.329833984375,-0.92529296875,-0.016845703125,-1.0060975551605225,0.6097561120986938,-0.3048780560493469,3.1500000953674316,2.549999952316284,-7.949999809265137,34.99346923828125,0,
 463727,-0.326904296875,-0.922607421875,-0.015869140625,-0.9756097793579102,0.3353658616542816,0.21341463923454285,3.1500000953674316,2.549999952316284,-7.949999809265137,35.089317321777344,0,
 463737,-0.3251953125,-0.92626953125,-0.017333984375,-0.7621951103210449,0.6707317233085632,0.09146341681480408,3.299999952316284,2.700000047683716,-7.800000190734863,34.94554901123047,0,
 463747,-0.32958984375,-0.927001953125,-0.025390625,-1.0060975551605225,0.5792682766914368,0.3048780560493469,3.9000000953674316,1.649999976158142,-7.199999809265137,34.99346923828125,0,
 463757,-0.330078125,-0.920166015625,-0.02587890625,-0.4878048896789551,0.18292683362960815,0.6402438879013062,2.8499999046325684,2.8499999046325684,-7.199999809265137,35.089317321777344,0,
 463767,-0.32421875,-0.92236328125,-0.023193359375,-0.396341472864151,0.15243902802467346,0.5182926654815674,3.75,0.30000001192092896,-8.550000190734863,34.99346923828125,0,
 463777,-0.32861328125,-0.929443359375,-0.019775390625,-0.3658536672592163,0.09146341681480408,0.5792682766914368,3.75,0.30000001192092896,-8.550000190734863,35.137237548828125,0,
 463787,-0.334228515625,-0.923583984375,-0.014404296875,-0.3353658616542816,0.27439025044441223,0.8841463327407837,3.9000000953674316,0.44999998807907104,-7.199999809265137,34.99346923828125,0,
 463797,-0.3330078125,-0.923095703125,-0.014892578125,-0.3048780560493469,0.3353658616542816,0.27439025044441223,5.099999904632568,2.0999999046325684,-6.449999809265137,34.99346923828125,0,
 463807,-0.326904296875,-0.92138671875,-0.021728515625,-0.7012194991111755,0.4573170840740204,0.030487805604934692,4.5,1.0499999523162842,-6.0,35.137237548828125,0,
 463817,-0.328125,-0.92578125,-0.017333984375,-1.0670732259750366,0.3048780560493469,-0.12195122241973877,2.4000000953674316,2.0999999046325684,-6.900000095367432,35.137237548828125,0,
 463827,-0.3203125,-0.926513671875,-0.024169921875,-0.4878048896789551,0.4573170840740204,-0.12195122241973877,2.4000000953674316,2.0999999046325684,-6.900000095367432,34.99346923828125,0,
 463837,-0.328125,-0.918212890625,-0.015625,-0.7621951103210449,0.3353658616542816,0.09146341681480408,2.25,1.5,-5.550000190734863,34.94554901123047,0,
 463847,-0.324951171875,-0.92578125,-0.02001953125,-0.4268292784690857,0.18292683362960815,0.12195122241973877,2.8499999046325684,2.549999952316284,-7.650000095367432,34.99346923828125,0,
 463857,-0.32763671875,-0.923583984375,-0.02294921875,-0.3048780560493469,0.24390244483947754,0.4268292784690857,4.5,1.9500000476837158,-6.75,34.99346923828125,0,
 463867,-0.32861328125,-0.923828125,-0.018310546875,-0.3048780560493469,0.12195122241973877,0.4573170840740204,4.5,1.9500000476837158,-6.75,34.801780700683594,0,
 463877,-0.32421875,-0.93115234375,-0.01806640625,-0.3353658616542816,0.3353658616542816,0.27439025044441223,3.75,2.25,-7.800000190734863,35.23308563232422,0,
 463887,-0.330810546875,-0.922607421875,-0.016845703125,-0.15243902802467346,0.060975611209869385,0.3353658616542816,3.75,1.5,-7.800000190734863,35.137237548828125,0,
 463897,-0.335693359375,-0.923583984375,-0.019287109375,-0.12195122241973877,0.030487805604934692,0.6097561120986938,3.1500000953674316,2.549999952316284,-6.900000095367432,35.23308563232422,0,
 463907,-0.32861328125,-0.921630859375,-0.01953125,-0.3048780560493469,0.21341463923454285,0.5487805008888245,4.5,3.450000047683716,-8.25,34.99346923828125,0,
 463917,-0.324462890625,-0.92578125,-0.020263671875,-0.7317073345184326,0.15243902802467346,0.5487805008888245,4.5,3.450000047683716,-8.25,35.137237548828125,0,
 463927,-0.323974609375,-0.923095703125,-0.0185546875,-0.7317073345184326,0.4268292784690857,0.24390244483947754,2.8499999046325684,1.649999976158142,-6.449999809265137,34.94554901123047,0,
 463937,-0.32666015625,-0.925048828125,-0.017822265625,-0.5182926654815674,0.3353658616542816,0.3658536672592163,4.349999904632568,2.0999999046325684,-6.900000095367432,34.99346923828125,0,
 463947,-0.32763671875,-0.92919921875,-0.014892578125,-0.6097561120986938,0.18292683362960815,0.5487805008888245,4.199999809265137,0.30000001192092896,-6.0,35.137237548828125,0,
 463957,-0.3251953125,-0.924072265625,-0.0205078125,-0.8231707215309143,0.6402438879013062,0.3048780560493469,3.0,1.9500000476837158,-7.5,35.281005859375,0,
 463967,-0.326904296875,-0.92919921875,-0.0224609375,-0.7012194991111755,0.4573170840740204,0.396341472864151,3.0,1.9500000476837158,-7.5,35.137237548828125,0,
 463977,-0.332763671875,-0.9208984375,-0.014892578125,-0.8841463327407837,0.3658536672592163,0.3658536672592163,3.9000000953674316,0.15000000596046448,-9.149999618530273,35.137237548828125,0,
 463987,-0.326904296875,-0.918212890625,-0.017822265625,-0.6707317233085632,0.24390244483947754,0.5792682766914368,3.75,1.0499999523162842,-7.050000190734863,35.089317321777344,0,
 463997,-0.327880859375,-0.921875,-0.015869140625,-0.5792682766914368,0.09146341681480408,0.3353658616542816,4.5,1.0499999523162842,-6.300000190734863,35.137237548828125,0,
 464007,-0.330322265625,-0.922607421875,-0.019287109375,-0.6402438879013062,0.24390244483947754,0.21341463923454285,3.1500000953674316,2.0999999046325684,-7.650000095367432,34.99346923828125,0,
 464017,-0.32666015625,-0.924560546875,-0.022216796875,-0.5792682766914368,0.24390244483947754,0.0,3.1500000953674316,2.0999999046325684,-7.650000095367432,35.137237548828125,0,
 464027,-0.326171875,-0.92724609375,-0.01708984375,-0.7317073345184326,0.15243902802467346,-0.18292683362960815,2.4000000953674316,1.350000023841858,-6.150000095367432,35.42477798461914,0,
 464037,-0.32958984375,-0.922607421875,-0.019287109375,-0.9451219439506531,0.4573170840740204,-0.030487805604934692,4.949999809265137,1.0499999523162842,-6.75,35.23308563232422,0,
 464047,-0.328369140625,-0.92041015625,-0.0234375,-0.4878048896789551,0.4268292784690857,0.0,4.199999809265137,1.9500000476837158,-6.300000190734863,35.137237548828125,0,
 464057,-0.3271484375,-0.922607421875,-0.020751953125,-0.4878048896789551,0.15243902802467346,0.4268292784690857,4.199999809265137,1.9500000476837158,-6.300000190734863,35.281005859375,0,
 464067,-0.323974609375,-0.92138671875,-0.01513671875,-0.7621951103210449,0.5182926654815674,0.3048780560493469,2.8499999046325684,1.350000023841858,-6.449999809265137,35.137237548828125,0,
 464077,-0.3251953125,-0.923583984375,-0.018310546875,-0.6402438879013062,0.396341472864151,0.4573170840740204,3.5999999046325684,1.350000023841858,-10.949999809265137,34.94554901123047,0,
 464087,-0.32177734375,-0.92626953125,-0.023193359375,-0.3353658616542816,0.3353658616542816,0.4878048896789551,2.549999952316284,1.0499999523162842,-5.550000190734863,34.99346923828125,0,
 464097,-0.32421875,-0.923583984375,-0.017822265625,-0.4878048896789551,0.3048780560493469,0.6707317233085632,3.9000000953674316,2.8499999046325684,-6.900000095367432,35.23308563232422,0,
 464107,-0.32666015625,-0.92431640625,-0.020751953125,-0.6402438879013062,0.5792682766914368,0.3353658616542816,3.9000000953674316,2.8499999046325684,-6.900000095367432,35.089317321777344,0,
 464117,-0.324951171875,-0.923095703125,-0.0205078125,-0.27439025044441223,0.4268292784690857,0.18292683362960815,3.1500000953674316,1.350000023841858,-6.449999809265137,35.089317321777344,0,
 464127,-0.331298828125,-0.92236328125,-0.021728515625,-0.3048780560493469,0.09146341681480408,0.3658536672592163,3.9000000953674316,2.0999999046325684,-6.900000095367432,34.801780700683594,0,
 464137,-0.321533203125,-0.921142578125,-0.019287109375,-0.6097561120986938,0.3353658616542816,0.09146341681480408,3.1500000953674316,0.44999998807907104,-7.650000095367432,34.94554901123047,0,
 464147,-0.32958984375,-0.921142578125,-0.019775390625,-0.4878048896789551,0.4573170840740204,0.3048780560493469,2.8499999046325684,2.0999999046325684,-7.199999809265137,34.801780700683594,0,
 464157,-0.325439453125,-0.92236328125,-0.01953125,-0.8231707215309143,0.5182926654815674,0.12195122241973877,2.8499999046325684,2.0999999046325684,-7.199999809265137,35.089317321777344,0,
 464167,-0.324462890625,-0.926513671875,-0.0205078125,-0.792682945728302,0.4268292784690857,0.060975611209869385,3.75,-0.75,-8.550000190734863,35.281005859375,0,
 464177,-0.328125,-0.92919921875,-0.017822265625,-0.27439025044441223,0.5792682766914368,0.27439025044441223,5.099999904632568,1.350000023841858,-7.199999809265137,34.99346923828125,0,
 464187,-0.330078125,-0.919189453125,-0.0185546875,-0.21341463923454285,0.21341463923454285,0.396341472864151,3.9000000953674316,-0.15000000596046448,-7.949999809265137,35.23308563232422,0,
 464197,-0.328369140625,-0.923583984375,-0.013916015625,0.0,0.12195122241973877,0.27439025044441223,3.0,1.9500000476837158,-6.75,34.99346923828125,0,
 464207,-0.3251953125,-0.922607421875,-0.019287109375,-0.15243902802467346,0.3353658616542816,0.6097561120986938,3.0,1.9500000476837158,-6.75,35.089317321777344,0,
 464217,-0.331298828125,-0.927734375,-0.0185546875,-0.7012194991111755,0.15243902802467346,0.27439025044441223,4.349999904632568,0.8999999761581421,-8.399999618530273,35.089317321777344,0,
 464227,-0.330078125,-0.9189453125,-0.015380859375,-0.5182926654815674,0.4878048896789551,0.3048780560493469,4.349999904632568,-0.15000000596046448,-7.199999809265137,34.801780700683594,0,
 464237,-0.325439453125,-0.92333984375,-0.016845703125,-0.3353658616542816,0.3048780560493469,0.3658536672592163,3.0,2.700000047683716,-6.0,35.23308563232422,0,
 464247,-0.330322265625,-0.924560546875,-0.016357421875,-0.4878048896789551,0.12195122241973877,0.27439025044441223,3.0,2.700000047683716,-6.0,35.137237548828125,0,
 464257,-0.336669921875,-0.918701171875,-0.01416015625,-0.030487805604934692,0.3353658616542816,0.15243902802467346,3.5999999046325684,3.75,-5.400000095367432,35.23308563232422,0,
 464267,-0.324951171875,-0.92822265625,-0.02197265625,-0.6402438879013062,0.396341472864151,0.060975611209869385,3.1500000953674316,1.649999976158142,-9.149999618530273,35.089317321777344,0,
 464277,-0.32763671875,-0.920166015625,-0.0166015625,-0.21341463923454285,0.3658536672592163,0.09146341681480408,1.649999976158142,2.8499999046325684,-9.149999618530273,34.99346923828125,0,
 464287,-0.3291015625,-0.920166015625,-0.016845703125,-0.27439025044441223,0.060975611209869385,-0.09146341681480408,2.0999999046325684,1.649999976158142,-7.199999809265137,34.99346923828125,0,
 464297,-0.330810546875,-0.923583984375,-0.014892578125,-0.4573170840740204,0.24390244483947754,0.0,2.0999999046325684,1.649999976158142,-7.199999809265137,35.137237548828125,0,
 464307,-0.328857421875,-0.924072265625,-0.0146484375,-0.3048780560493469,0.060975611209869385,0.15243902802467346,3.1500000953674316,2.0999999046325684,-6.150000095367432,34.99346923828125,0,
 464317,-0.329345703125,-0.923828125,-0.018310546875,-0.3048780560493469,0.21341463923454285,0.060975611209869385,3.299999952316284,0.75,-7.800000190734863,35.137237548828125,0,
 464327,-0.322998046875,-0.918701171875,-0.0146484375,-0.4573170840740204,0.18292683362960815,0.060975611209869385,4.949999809265137,1.9500000476837158,-6.300000190734863,34.94554901123047,0,
 464337,-0.32275390625,-0.923095703125,-0.01220703125,-0.18292683362960815,0.4573170840740204,0.27439025044441223,3.9000000953674316,0.44999998807907104,-6.449999809265137,35.137237548828125,0,
 464347,-0.32470703125,-0.921630859375,-0.021728515625,-0.4268292784690857,0.3048780560493469,0.18292683362960815,3.9000000953674316,0.44999998807907104,-6.449999809265137,35.089317321777344,0,
 464357,-0.330078125,-0.921630859375,-0.01416015625,-0.396341472864151,0.3353658616542816,0.6402438879013062,2.0999999046325684,0.8999999761581421,-7.199999809265137,34.89762496948242,0,
 464367,-0.333740234375,-0.91748046875,-0.02392578125,-0.27439025044441223,0.3353658616542816,0.4573170840740204,3.5999999046325684,2.549999952316284,-6.449999809265137,35.137237548828125,0,
 464377,-0.327880859375,-0.924072265625,-0.02099609375,-0.27439025044441223,0.18292683362960815,0.6402438879013062,2.25,1.9500000476837158,-7.800000190734863,34.99346923828125,0,
 464387,-0.33154296875,-0.927978515625,-0.015625,-0.09146341681480408,0.3353658616542816,0.5792682766914368,4.349999904632568,0.44999998807907104,-7.650000095367432,34.801780700683594,0,
 464397,-0.326416015625,-0.9306640625,-0.01904296875,-0.3048780560493469,0.09146341681480408,0.8231707215309143,4.349999904632568,0.44999998807907104,-7.650000095367432,35.32892990112305,0,
 464407,-0.326904296875,-0.915283203125,-0.0205078125,-0.4878048896789551,0.15243902802467346,0.4573170840740204,3.0,1.9500000476837158,-7.5,35.137237548828125,0,
 464417,-0.327392578125,-0.92236328125,-0.014404296875,-0.396341472864151,0.396341472864151,0.3048780560493469,3.1500000953674316,1.350000023841858,-7.650000095367432,34.99346923828125,0,
 464427,-0.324951171875,-0.92138671875,-0.02001953125,-0.5792682766914368,0.4268292784690857,0.09146341681480408,2.8499999046325684,1.350000023841858,-6.449999809265137,34.99346923828125,0,
 464437,-0.328125,-0.92431640625,-0.021240234375,-0.396341472864151,0.4878048896789551,-0.060975611209869385,2.8499999046325684,1.350000023841858,-6.449999809265137,35.23308563232422,0,
 464447,-0.318603515625,-0.925048828125,-0.014892578125,-1.097561001777649,0.5487805008888245,0.060975611209869385,3.299999952316284,0.75,-9.0,35.137237548828125,0,
 464457,-0.324462890625,-0.927001953125,-0.016845703125,-0.8536585569381714,0.3353658616542816,0.0,3.299999952316284,1.5,-7.800000190734863,34.94554901123047,0,
 464467,-0.3232421875,-0.919677734375,-0.021240234375,-1.1585365533828735,0.4268292784690857,-0.030487805604934692,3.75,2.25,-6.75,34.99346923828125,0,
 464477,-0.32470703125,-0.924072265625,-0.017333984375,-0.7012194991111755,0.6402438879013062,0.21341463923454285,2.4000000953674316,1.649999976158142,-7.650000095367432,35.137237548828125,0,
 464488,-0.327880859375,-0.924560546875,-0.02197265625,-0.6097561120986938,0.27439025044441223,0.7012194991111755,2.4000000953674316,1.649999976158142,-7.650000095367432,34.99346923828125,0,
 464498,-0.3271484375,-0.92578125,-0.0234375,-0.3353658616542816,0.15243902802467346,0.7012194991111755,3.75,1.5,-6.300000190734863,35.137237548828125,0,
 464508,-0.326171875,-0.91748046875,-0.0185546875,-0.15243902802467346,0.3658536672592163,0.4878048896789551,4.5,2.25,-7.050000190734863,34.99346923828125,0,
 464518,-0.327880859375,-0.924072265625,-0.017822265625,-0.4878048896789551,0.15243902802467346,0.3048780560493469,3.299999952316284,2.25,-7.050000190734863,35.137237548828125,0,
 464528,-0.328125,-0.921630859375,-0.01171875,-0.27439025044441223,0.24390244483947754,0.21341463923454285,4.349999904632568,0.8999999761581421,-7.199999809265137,34.94554901123047,0,
 464538,-0.326416015625,-0.927978515625,-0.01904296875,-0.7317073345184326,0.3658536672592163,0.18292683362960815,4.349999904632568,0.8999999761581421,-7.199999809265137,34.99346923828125,0,
 464548,-0.33154296875,-0.9208984375,-0.015869140625,-0.7317073345184326,0.396341472864151,-0.15243902802467346,3.5999999046325684,2.0999999046325684,-4.949999809265137,34.99346923828125,0,
 464558,-0.33203125,-0.919921875,-0.017822265625,-0.8536585569381714,0.4268292784690857,0.0,2.4000000953674316,0.8999999761581421,-7.949999809265137,35.089317321777344,0,
 464568,-0.325927734375,-0.921630859375,-0.020751953125,-1.0365853309631348,0.396341472864151,0.24390244483947754,3.1500000953674316,0.8999999761581421,-6.900000095367432,34.7059326171875,0,
 464578,-0.32275390625,-0.920166015625,-0.023681640625,-0.3353658616542816,0.09146341681480408,0.24390244483947754,3.1500000953674316,0.8999999761581421,-6.900000095367432,34.94554901123047,0,
 464588,-0.325927734375,-0.92529296875,-0.024169921875,-0.396341472864151,0.24390244483947754,0.3048780560493469,5.400000095367432,1.350000023841858,-7.949999809265137,35.137237548828125,0,
 464598,-0.329345703125,-0.924560546875,-0.026611328125,0.030487805604934692,0.09146341681480408,0.4878048896789551,2.549999952316284,1.9500000476837158,-6.0,35.137237548828125,0,
 464608,-0.333251953125,-0.92333984375,-0.0166015625,0.060975611209869385,-0.060975611209869385,0.6402438879013062,3.5999999046325684,0.8999999761581421,-7.199999809265137,35.137237548828125,0,
 464618,-0.332275390625,-0.925048828125,-0.015380859375,-0.030487805604934692,0.0,0.5182926654815674,3.299999952316284,2.25,-6.75,34.801780700683594,0,
 464628,-0.332275390625,-0.92138671875,-0.016357421875,0.0,0.24390244483947754,0.3353658616542816,3.299999952316284,2.25,-6.75,35.137237548828125,0,
 464638,-0.32958984375,-0.9228515625,-0.02001953125,-0.4268292784690857,0.18292683362960815,0.24390244483947754,3.299999952316284,1.5,-7.800000190734863,35.23308563232422,0,
 464648,-0.32861328125,-0.918701171875,-0.020263671875,-0.4878048896789551,0.396341472864151,0.15243902802467346,2.4000000953674316,1.649999976158142,-6.150000095367432,35.137237548828125,0,
 464658,-0.33935546875,-0.924072265625,-0.022216796875,-0.21341463923454285,0.24390244483947754,0.15243902802467346,4.5,2.700000047683716,-6.300000190734863,34.99346923828125,0,
 464668,-0.324462890625,-0.927001953125,-0.0224609375,0.09146341681480408,0.24390244483947754,0.12195122241973877,2.4000000953674316,1.649999976158142,-6.449999809265137,34.801780700683594,0,
 464678,-0.328857421875,-0.9248046875,-0.01171875,-0.24390244483947754,0.030487805604934692,0.0,2.4000000953674316,1.649999976158142,-6.449999809265137,35.089317321777344,0,
 464688,-0.32763671875,-0.927490234375,-0.017578125,-0.3048780560493469,0.3048780560493469,0.21341463923454285,1.5,3.1500000953674316,-8.25,34.94554901123047,0,
 464698,-0.32568359375,-0.922607421875,-0.0185546875,-0.4573170840740204,0.18292683362960815,0.3658536672592163,2.4000000953674316,2.549999952316284,-6.900000095367432,35.137237548828125,0,
 464708,-0.327392578125,-0.916748046875,-0.018798828125,-0.6707317233085632,-0.030487805604934692,0.3048780560493469,2.4000000953674316,2.8499999046325684,-7.199999809265137,35.137237548828125,0,
 464718,-0.325927734375,-0.922607421875,-0.015869140625,-0.396341472864151,-0.09146341681480408,0.3353658616542816,3.299999952316284,1.9500000476837158,-7.800000190734863,34.99346923828125,0,
 464728,-0.3291015625,-0.92041015625,-0.01904296875,-0.3353658616542816,0.09146341681480408,0.3353658616542816,3.299999952316284,1.9500000476837158,-7.800000190734863,35.42477798461914,0,
 464738,-0.32470703125,-0.921875,-0.0166015625,-0.6097561120986938,0.4268292784690857,0.4573170840740204,2.8499999046325684,2.0999999046325684,-7.650000095367432,34.99346923828125,0,
 464748,-0.327880859375,-0.92724609375,-0.022216796875,-0.3048780560493469,0.4268292784690857,0.4268292784690857,3.1500000953674316,0.8999999761581421,-6.900000095367432,34.99346923828125,0,
 464758,-0.328857421875,-0.92724609375,-0.0224609375,-0.6097561120986938,0.5182926654815674,0.6707317233085632,3.0,2.25,-6.300000190734863,35.089317321777344,0,
 464768,-0.33154296875,-0.923828125,-0.015380859375,-1.0365853309631348,0.4573170840740204,0.09146341681480408,3.0,2.25,-6.300000190734863,34.94554901123047,0,
 464778,-0.3251953125,-0.9248046875,-0.01806640625,-0.792682945728302,0.21341463923454285,0.15243902802467346,4.199999809265137,1.5,-8.25,34.99346923828125,0,
 464788,-0.326171875,-0.92529296875,-0.01513671875,-0.9756097793579102,0.4268292784690857,0.3048780560493469,3.299999952316284,2.25,-7.050000190734863,35.23308563232422,0,
 464798,-0.327880859375,-0.920654296875,-0.01953125,-0.792682945728302,0.5487805008888245,-0.24390244483947754,2.8499999046325684,1.350000023841858,-7.650000095367432,35.281005859375,0,
 464808,-0.32470703125,-0.922607421875,-0.0205078125,-0.5182926654815674,0.09146341681480408,0.18292683362960815,3.1500000953674316,3.299999952316284,-7.949999809265137,35.089317321777344,0,
 464818,-0.327880859375,-0.919189453125,-0.017333984375,-0.7621951103210449,0.24390244483947754,0.0,3.1500000953674316,3.299999952316284,-7.949999809265137,34.99346923828125,0,
 464828,-0.32861328125,-0.92822265625,-0.017333984375,-0.7012194991111755,0.3048780560493469,0.030487805604934692,2.0999999046325684,2.0999999046325684,-6.900000095367432,35.137237548828125,0,
 464838,-0.324462890625,-0.927490234375,-0.012451171875,-0.9146341681480408,0.5487805008888245,0.030487805604934692,4.949999809265137,2.25,-7.5,35.137237548828125,0,
 464848,-0.327392578125,-0.920166015625,-0.018798828125,-1.1585365533828735,0.792682945728302,0.18292683362960815,3.9000000953674316,1.350000023841858,-6.449999809265137,34.99346923828125,0,
 464858,-0.332275390625,-0.919189453125,-0.02099609375,-0.9146341681480408,0.6097561120986938,0.18292683362960815,3.9000000953674316,1.649999976158142,-7.949999809265137,35.137237548828125,0,
 464868,-0.32470703125,-0.9189453125,-0.019775390625,-0.7621951103210449,0.4268292784690857,0.396341472864151,3.9000000953674316,1.649999976158142,-7.949999809265137,34.801780700683594,0,
 464878,-0.33447265625,-0.924072265625,-0.021240234375,-0.5487805008888245,0.3353658616542816,0.3353658616542816,3.299999952316284,0.0,-7.050000190734863,35.23308563232422,0,
 464888,-0.327392578125,-0.930908203125,-0.0205078125,-1.1585365533828735,0.5182926654815674,0.24390244483947754,4.349999904632568,2.549999952316284,-7.199999809265137,34.99346923828125,0,
 464898,-0.329833984375,-0.921630859375,-0.014404296875,-0.5792682766914368,0.3658536672592163,0.3048780560493469,4.199999809265137,1.0499999523162842,-5.550000190734863,34.801780700683594,0,
 464908,-0.3271484375,-0.9248046875,-0.020263671875,-0.9146341681480408,0.27439025044441223,0.3353658616542816,4.199999809265137,1.0499999523162842,-5.550000190734863,35.137237548828125,0,
 464918,-0.33251953125,-0.924072265625,-0.018310546875,-0.5487805008888245,0.3658536672592163,0.5487805008888245,4.199999809265137,1.0499999523162842,-5.550000190734863,35.137237548828125,0,
 464928,-0.330322265625,-0.919677734375,-0.019775390625,-0.9146341681480408,0.5182926654815674,0.3353658616542816,2.4000000953674316,3.299999952316284,-7.199999809265137,35.52062225341797,0,
 464938,-0.33056640625,-0.922119140625,-0.01953125,-0.7012194991111755,0.4878048896789551,0.3353658616542816,2.549999952316284,0.75,-7.5,34.562164306640625,0,
 464948,-0.32763671875,-0.92138671875,-0.0166015625,-0.7317073345184326,0.18292683362960815,0.09146341681480408,2.549999952316284,0.75,-7.5,34.99346923828125,0,
 464958,-0.324951171875,-0.921875,-0.029052734375,-0.5487805008888245,0.24390244483947754,0.3353658616542816,2.549999952316284,0.75,-7.5,34.801780700683594,0,
 464968,-0.324462890625,-0.923583984375,-0.01806640625,-0.5487805008888245,0.3353658616542816,0.4268292784690857,3.299999952316284,0.75,-7.050000190734863,34.99346923828125,0,
 464978,-0.323486328125,-0.91943359375,-0.02197265625,-0.4268292784690857,0.3658536672592163,0.030487805604934692,3.75,0.75,-6.0,35.137237548828125,0,
 464988,-0.32763671875,-0.924072265625,-0.0263671875,-0.15243902802467346,0.15243902802467346,-0.060975611209869385,4.5,3.9000000953674316,-9.300000190734863,35.137237548828125,0,
 464998,-0.321533203125,-0.92626953125,-0.022705078125,-0.15243902802467346,0.030487805604934692,0.4573170840740204,4.5,3.9000000953674316,-9.300000190734863,35.137237548828125,0,
 465008,-0.3251953125,-0.92578125,-0.02294921875,-0.060975611209869385,-0.030487805604934692,0.24390244483947754,4.5,3.9000000953674316,-9.300000190734863,34.562164306640625,0,
 465018,-0.331298828125,-0.92431640625,-0.020751953125,0.0,-0.09146341681480408,0.27439025044441223,2.8499999046325684,2.0999999046325684,-7.199999809265137,34.99346923828125,0,
 465028,-0.3271484375,-0.92138671875,-0.016845703125,0.15243902802467346,-0.060975611209869385,0.18292683362960815,3.5999999046325684,0.44999998807907104,-6.150000095367432,35.23308563232422,0,
 465038,-0.32421875,-0.9228515625,-0.016845703125,0.0,0.15243902802467346,0.09146341681480408,4.199999809265137,1.5,-6.300000190734863,34.99346923828125,0,
 465048,-0.322265625,-0.924072265625,-0.01708984375,-0.3353658616542816,0.12195122241973877,0.4573170840740204,4.199999809265137,1.5,-6.300000190734863,34.99346923828125,0,
 465058,-0.32666015625,-0.922119140625,-0.01904296875,-0.09146341681480408,0.09146341681480408,0.4878048896789551,3.0,0.0,-7.050000190734863,34.94554901123047,0,
 465068,-0.328125,-0.923095703125,-0.018798828125,-0.09146341681480408,0.396341472864151,0.18292683362960815,4.5,0.75,-7.050000190734863,34.99346923828125,0,
 465078,-0.3271484375,-0.921875,-0.019775390625,-0.3048780560493469,-0.15243902802467346,0.3048780560493469,3.5999999046325684,1.350000023841858,-6.449999809265137,35.23308563232422,0,
 465088,-0.32568359375,-0.924560546875,-0.02197265625,0.24390244483947754,0.27439025044441223,0.21341463923454285,1.5,3.9000000953674316,-7.5,34.801780700683594,0,
 465098,-0.3251953125,-0.9228515625,-0.01806640625,0.0,-0.030487805604934692,0.3658536672592163,1.5,3.9000000953674316,-7.5,35.137237548828125,0,
 465108,-0.3310546875,-0.92578125,-0.012451171875,-0.27439025044441223,0.27439025044441223,-0.09146341681480408,1.649999976158142,2.549999952316284,-7.650000095367432,34.94554901123047,0,
 465118,-0.3310546875,-0.9287109375,-0.01806640625,-0.4268292784690857,0.12195122241973877,0.5792682766914368,1.2000000476837158,0.8999999761581421,-9.149999618530273,35.137237548828125,0,
 465128,-0.329833984375,-0.923095703125,-0.025390625,0.15243902802467346,0.18292683362960815,0.21341463923454285,3.75,1.0499999523162842,-6.0,34.99346923828125,0,
 465138,-0.32666015625,-0.92431640625,-0.017822265625,-0.24390244483947754,0.27439025044441223,0.3048780560493469,3.75,1.0499999523162842,-6.0,35.23308563232422,0,
 465148,-0.330078125,-0.924560546875,-0.01611328125,-0.3353658616542816,0.3353658616542816,0.396341472864151,3.1500000953674316,2.549999952316284,-7.199999809265137,35.137237548828125,0,
 465158,-0.331787109375,-0.92822265625,-0.02294921875,-0.5487805008888245,0.4878048896789551,0.4878048896789551,3.9000000953674316,2.8499999046325684,-7.949999809265137,34.89762496948242,0,
 465168,-0.329833984375,-0.927978515625,-0.02294921875,-0.6097561120986938,0.18292683362960815,0.792682945728302,5.099999904632568,1.649999976158142,-8.699999809265137,34.99346923828125,0,
 465178,-0.326904296875,-0.920654296875,-0.0185546875,-0.5182926654815674,0.21341463923454285,0.4268292784690857,3.299999952316284,1.5,-7.5,35.137237548828125,0,
 465188,-0.330322265625,-0.919189453125,-0.019287109375,-0.6707317233085632,-0.21341463923454285,0.6097561120986938,3.299999952316284,1.5,-7.5,35.137237548828125,0,
 465198,-0.331787109375,-0.92236328125,-0.01806640625,-0.792682945728302,0.4573170840740204,0.5182926654815674,2.25,1.9500000476837158,-7.800000190734863,35.52062225341797,0,
 465209,-0.32763671875,-0.92333984375,-0.0166015625,-0.24390244483947754,0.5182926654815674,0.3048780560493469,2.25,1.5,-7.050000190734863,34.99346923828125,0,
 465219,-0.328857421875,-0.918212890625,-0.016357421875,-1.0060975551605225,0.4268292784690857,0.4573170840740204,4.949999809265137,2.25,-7.5,35.137237548828125,0,
 465229,-0.32763671875,-0.9228515625,-0.0107421875,-0.9146341681480408,0.4573170840740204,-0.030487805604934692,2.8499999046325684,0.15000000596046448,-7.949999809265137,35.137237548828125,0,
 465239,-0.331787109375,-0.923583984375,-0.0205078125,-0.9756097793579102,0.396341472864151,-0.15243902802467346,2.8499999046325684,0.15000000596046448,-7.949999809265137,35.137237548828125,0,
 465249,-0.328369140625,-0.928466796875,-0.01953125,-1.2804877758026123,0.9146341681480408,-0.396341472864151,4.5,1.0499999523162842,-7.5,35.137237548828125,0,
 465259,-0.3251953125,-0.92578125,-0.021728515625,-0.9146341681480408,0.4573170840740204,-0.18292683362960815,4.349999904632568,2.549999952316284,-7.650000095367432,34.94554901123047,0,
 465269,-0.321533203125,-0.923828125,-0.018310546875,-1.0365853309631348,0.4573170840740204,0.3048780560493469,3.0,2.700000047683716,-7.5,35.137237548828125,0,
 465279,-0.32763671875,-0.92431640625,-0.01904296875,-0.5487805008888245,0.5487805008888245,0.4878048896789551,3.1500000953674316,1.350000023841858,-6.900000095367432,35.137237548828125,0,
 465289,-0.323974609375,-0.91943359375,-0.01904296875,-0.5487805008888245,0.3048780560493469,0.7621951103210449,3.1500000953674316,1.350000023841858,-6.900000095367432,35.137237548828125,0,
 465299,-0.32568359375,-0.926513671875,-0.016357421875,-0.4878048896789551,0.21341463923454285,1.097561001777649,3.9000000953674316,-0.15000000596046448,-8.399999618530273,35.137237548828125,0,
 465309,-0.33154296875,-0.92041015625,-0.0166015625,-0.3048780560493469,-0.030487805604934692,1.1890244483947754,2.4000000953674316,0.8999999761581421,-7.650000095367432,35.137237548828125,0,
 465319,-0.327880859375,-0.919677734375,-0.022216796875,-0.6097561120986938,0.21341463923454285,1.0670732259750366,3.75,1.9500000476837158,-8.25,34.99346923828125,0,
 465329,-0.328369140625,-0.92041015625,-0.02001953125,-0.396341472864151,0.24390244483947754,0.9756097793579102,3.75,1.9500000476837158,-8.25,35.137237548828125,0,
 465339,-0.3291015625,-0.916259765625,-0.01953125,-0.6097561120986938,0.3048780560493469,0.7317073345184326,3.299999952316284,0.75,-7.5,34.94554901123047,0,
 465349,-0.332275390625,-0.92236328125,-0.0146484375,-0.7317073345184326,0.5792682766914368,0.4268292784690857,2.8499999046325684,2.549999952316284,-7.650000095367432,35.089317321777344,0,
 465359,-0.33251953125,-0.92236328125,-0.0205078125,-0.6097561120986938,0.5182926654815674,0.4268292784690857,3.299999952316284,1.5,-8.550000190734863,35.137237548828125,0,
 465369,-0.3330078125,-0.92236328125,-0.019775390625,-0.4573170840740204,0.6097561120986938,-0.3353658616542816,3.1500000953674316,0.15000000596046448,-7.650000095367432,35.089317321777344,0,
 465379,-0.32470703125,-0.9248046875,-0.0224609375,-0.3048780560493469,0.6707317233085632,-0.396341472864151,3.1500000953674316,0.15000000596046448,-7.650000095367432,34.61008834838867,0,
 465389,-0.3310546875,-0.92529296875,-0.01611328125,-0.8841463327407837,0.7621951103210449,-0.15243902802467346,3.1500000953674316,0.44999998807907104,-6.449999809265137,34.99346923828125,0,
 465399,-0.33056640625,-0.9228515625,-0.018310546875,-0.7012194991111755,0.5487805008888245,-0.3048780560493469,5.099999904632568,2.8499999046325684,-8.699999809265137,34.75385665893555,0,
 465409,-0.331298828125,-0.922119140625,-0.019775390625,-0.7621951103210449,0.5487805008888245,0.3658536672592163,2.549999952316284,1.0499999523162842,-7.5,35.47269821166992,0,
 465419,-0.3271484375,-0.927490234375,-0.017333984375,-0.21341463923454285,0.12195122241973877,0.09146341681480408,4.650000095367432,1.350000023841858,-7.650000095367432,35.137237548828125,0,
 465429,-0.3271484375,-0.922119140625,-0.0185546875,-0.09146341681480408,0.27439025044441223,0.3658536672592163,4.650000095367432,1.350000023841858,-7.650000095367432,35.23308563232422,0,
 465439,-0.329345703125,-0.923095703125,-0.023193359375,-0.24390244483947754,0.12195122241973877,0.7621951103210449,3.299999952316284,0.30000001192092896,-7.800000190734863,34.99346923828125,0,
 465449,-0.327392578125,-0.920166015625,-0.017822265625,0.030487805604934692,0.18292683362960815,0.6707317233085632,4.949999809265137,1.0499999523162842,-6.75,34.99346923828125,0,
 465459,-0.328857421875,-0.92333984375,-0.017822265625,-0.4878048896789551,-0.12195122241973877,0.9146341681480408,3.0,0.30000001192092896,-5.550000190734863,35.52062225341797,0,
 465469,-0.328857421875,-0.9228515625,-0.016845703125,-0.15243902802467346,0.09146341681480408,0.6402438879013062,1.649999976158142,0.8999999761581421,-6.150000095367432,35.23308563232422,0,
 465479,-0.32861328125,-0.92041015625,-0.0146484375,-0.4573170840740204,0.24390244483947754,0.18292683362960815,1.649999976158142,0.8999999761581421,-6.150000095367432,34.94554901123047,0,
 465489,-0.333984375,-0.918701171875,-0.016845703125,-0.060975611209869385,0.5487805008888245,-0.060975611209869385,3.299999952316284,1.9500000476837158,-7.5,35.137237548828125,0,
 465499,-0.328125,-0.91845703125,-0.017578125,-0.4573170840740204,-0.12195122241973877,-0.030487805604934692,2.549999952316284,3.1500000953674316,-7.800000190734863,34.94554901123047,0,
 465509,-0.331298828125,-0.921875,-0.01513671875,-0.21341463923454285,0.060975611209869385,0.060975611209869385,1.7999999523162842,1.5,-6.75,35.42477798461914,0,
 465519,-0.329345703125,-0.922119140625,-0.01953125,-0.4268292784690857,0.15243902802467346,0.09146341681480408,1.7999999523162842,1.5,-6.75,35.137237548828125,0,
 465529,-0.330810546875,-0.924560546875,-0.019287109375,-0.21341463923454285,0.21341463923454285,0.15243902802467346,3.1500000953674316,2.8499999046325684,-6.150000095367432,35.137237548828125,0,
 465539,-0.330078125,-0.92333984375,-0.02001953125,-0.18292683362960815,0.060975611209869385,0.3353658616542816,4.5,1.0499999523162842,-7.800000190734863,35.137237548828125,0,
 465549,-0.323486328125,-0.922119140625,-0.018798828125,-0.27439025044441223,-0.030487805604934692,0.3353658616542816,4.349999904632568,-0.15000000596046448,-7.199999809265137,34.99346923828125,0,
 465559,-0.330810546875,-0.922607421875,-0.019287109375,-0.15243902802467346,0.3353658616542816,0.5182926654815674,2.25,2.25,-8.25,34.94554901123047,0,
 465569,-0.329345703125,-0.922607421875,-0.011474609375,-0.4878048896789551,0.3353658616542816,0.4573170840740204,2.25,2.25,-8.25,34.99346923828125,0,
 465579,-0.322998046875,-0.9169921875,-0.018798828125,-0.4878048896789551,0.3658536672592163,0.3353658616542816,3.5999999046325684,2.0999999046325684,-7.199999809265137,35.137237548828125,0,
 465589,-0.330810546875,-0.918212890625,-0.01904296875,-0.6402438879013062,0.4268292784690857,0.18292683362960815,3.299999952316284,1.9500000476837158,-7.5,35.281005859375,0,
 465599,-0.33056640625,-0.923828125,-0.01806640625,-0.8536585569381714,0.4268292784690857,0.396341472864151,4.199999809265137,1.5,-7.800000190734863,34.801780700683594,0,
 465609,-0.328857421875,-0.928955078125,-0.0205078125,-0.6402438879013062,0.396341472864151,0.3353658616542816,1.5,1.0499999523162842,-7.800000190734863,35.137237548828125,0,
 465619,-0.3271484375,-0.927490234375,-0.01611328125,-0.792682945728302,0.24390244483947754,0.15243902802467346,1.5,1.0499999523162842,-7.800000190734863,34.99346923828125,0,
 465629,-0.32373046875,-0.923583984375,-0.01708984375,-0.6402438879013062,0.6097561120986938,-0.060975611209869385,3.0,1.5,-7.5,35.137237548828125,0,
 465639,-0.33251953125,-0.926025390625,-0.017333984375,-0.8231707215309143,0.24390244483947754,-0.030487805604934692,2.25,0.75,-6.75,35.23308563232422,0,
 465649,-0.328125,-0.930908203125,-0.019287109375,-0.8231707215309143,0.396341472864151,-0.12195122241973877,2.549999952316284,2.25,-6.75,34.801780700683594,0,
 465659,-0.32666015625,-0.927490234375,-0.02001953125,-0.6402438879013062,0.4268292784690857,-0.3048780560493469,2.549999952316284,2.25,-6.75,35.23308563232422,0,
 465669,-0.3251953125,-0.919677734375,-0.01611328125,-0.7317073345184326,0.4878048896789551,0.24390244483947754,4.199999809265137,2.25,-9.300000190734863,35.137237548828125,0,
 465679,-0.328369140625,-0.92041015625,-0.02001953125,-0.4878048896789551,0.4573170840740204,0.5487805008888245,3.299999952316284,1.0499999523162842,-9.300000190734863,35.23308563232422,0,
 465689,-0.334228515625,-0.925537109375,-0.017578125,-0.792682945728302,0.5487805008888245,0.6097561120986938,4.199999809265137,0.30000001192092896,-9.0,35.23308563232422,0,
 465699,-0.3310546875,-0.92333984375,-0.011962890625,0.21341463923454285,0.09146341681480408,0.6707317233085632,2.25,1.9500000476837158,-8.550000190734863,34.801780700683594,0,
 465709,-0.322509765625,-0.922607421875,-0.013427734375,-0.21341463923454285,0.15243902802467346,0.24390244483947754,2.25,1.9500000476837158,-8.550000190734863,34.94554901123047,0,
 465719,-0.32470703125,-0.918212890625,-0.01416015625,0.030487805604934692,-0.060975611209869385,0.15243902802467346,2.8499999046325684,1.649999976158142,-6.900000095367432,35.281005859375,0,
 465729,-0.323974609375,-0.92919921875,-0.018798828125,0.030487805604934692,0.24390244483947754,0.4573170840740204,3.0,1.5,-7.5,35.089317321777344,0,
 465739,-0.330810546875,-0.924072265625,-0.013427734375,-0.3048780560493469,0.27439025044441223,0.24390244483947754,4.199999809265137,1.9500000476837158,-7.800000190734863,35.137237548828125,0,
 465749,-0.32958984375,-0.922119140625,-0.019775390625,-0.060975611209869385,0.18292683362960815,0.18292683362960815,3.5999999046325684,2.0999999046325684,-7.199999809265137,35.137237548828125,0,
 465759,-0.325439453125,-0.927001953125,-0.01611328125,-0.7317073345184326,0.24390244483947754,0.12195122241973877,3.5999999046325684,2.0999999046325684,-7.199999809265137,35.137237548828125,0,
 465769,-0.328857421875,-0.920166015625,-0.01953125,-0.6402438879013062,0.4878048896789551,0.060975611209869385,6.0,1.9500000476837158,-6.75,34.99346923828125,0,
 465779,-0.328125,-0.922607421875,-0.019287109375,-0.4878048896789551,0.4573170840740204,-0.060975611209869385,3.0,2.25,-6.300000190734863,34.75385665893555,0,
 465789,-0.326171875,-0.925048828125,-0.023193359375,-0.4573170840740204,0.060975611209869385,0.24390244483947754,3.299999952316284,1.5,-7.5,35.137237548828125,0,
 465799,-0.327880859375,-0.92578125,-0.01953125,-0.3658536672592163,0.18292683362960815,0.4268292784690857,4.349999904632568,1.350000023841858,-8.699999809265137,35.281005859375,0,
 465809,-0.330810546875,-0.92578125,-0.018798828125,-0.3048780560493469,0.396341472864151,0.0,4.349999904632568,1.350000023841858,-8.699999809265137,34.94554901123047,0,
 465819,-0.323486328125,-0.924560546875,-0.01904296875,-0.4268292784690857,0.24390244483947754,0.5487805008888245,1.7999999523162842,1.5,-7.800000190734863,35.281005859375,0,
 465829,-0.32421875,-0.921142578125,-0.019287109375,-0.5792682766914368,0.24390244483947754,0.396341472864151,3.1500000953674316,2.0999999046325684,-7.199999809265137,35.137237548828125,0,
 465840,-0.3271484375,-0.9248046875,-0.01318359375,-0.4268292784690857,0.18292683362960815,0.15243902802467346,4.199999809265137,1.5,-7.5,35.137237548828125,0,
 465850,-0.322509765625,-0.922607421875,-0.01806640625,-0.396341472864151,0.0,0.4573170840740204,4.199999809265137,1.5,-7.5,34.99346923828125,0,
 465860,-0.32666015625,-0.922119140625,-0.017333984375,-0.09146341681480408,0.060975611209869385,0.15243902802467346,2.8499999046325684,1.649999976158142,-8.699999809265137,34.99346923828125,0,
 465870,-0.32861328125,-0.9189453125,-0.017578125,-0.792682945728302,0.3048780560493469,0.5792682766914368,3.5999999046325684,1.649999976158142,-6.449999809265137,35.52062225341797,0,
 465880,-0.329345703125,-0.92724609375,-0.0166015625,-0.396341472864151,0.24390244483947754,0.18292683362960815,5.25,0.75,-7.5,34.94554901123047,0,
 465890,-0.334228515625,-0.923828125,-0.017578125,-0.6707317233085632,0.4573170840740204,0.060975611209869385,3.1500000953674316,-0.15000000596046448,-7.949999809265137,34.99346923828125,0,
 465900,-0.322998046875,-0.919921875,-0.0205078125,-0.8841463327407837,0.3658536672592163,-0.09146341681480408,3.1500000953674316,-0.15000000596046448,-7.949999809265137,35.23308563232422,0,
 465910,-0.32666015625,-0.918701171875,-0.020751953125,-0.4573170840740204,0.12195122241973877,-0.030487805604934692,4.199999809265137,1.0499999523162842,-9.0,35.137237548828125,0,
 465920,-0.324462890625,-0.91796875,-0.0185546875,-0.9756097793579102,0.15243902802467346,0.3658536672592163,3.5999999046325684,1.649999976158142,-7.199999809265137,35.089317321777344,0,
 465930,-0.33251953125,-0.920166015625,-0.01806640625,-0.6097561120986938,0.3353658616542816,-0.060975611209869385,4.349999904632568,1.649999976158142,-8.699999809265137,35.137237548828125,0,
 465940,-0.328369140625,-0.92041015625,-0.014404296875,-0.27439025044441223,0.4878048896789551,0.27439025044441223,3.299999952316284,-0.30000001192092896,-6.75,34.7059326171875,0,
 465950,-0.333251953125,-0.92626953125,-0.021240234375,-0.4878048896789551,0.396341472864151,0.4573170840740204,3.299999952316284,-0.30000001192092896,-6.75,35.281005859375,0,
 465960,-0.322509765625,-0.91943359375,-0.023681640625,-0.5487805008888245,0.5487805008888245,0.060975611209869385,4.349999904632568,0.8999999761581421,-7.949999809265137,35.137237548828125,0,
 465970,-0.325439453125,-0.924072265625,-0.021484375,-1.097561001777649,0.3658536672592163,0.5792682766914368,3.9000000953674316,0.8999999761581421,-7.199999809265137,35.137237548828125,0,
 465980,-0.3310546875,-0.92529296875,-0.0205078125,-0.6097561120986938,0.3658536672592163,0.3658536672592163,2.549999952316284,1.0499999523162842,-7.800000190734863,35.52062225341797,0,
 465990,-0.326904296875,-0.921630859375,-0.017578125,-0.6707317233085632,0.3353658616542816,0.3658536672592163,3.1500000953674316,2.0999999046325684,-5.400000095367432,35.089317321777344,0,
 466000,-0.331298828125,-0.919189453125,-0.017578125,-0.8231707215309143,0.18292683362960815,0.6097561120986938,3.1500000953674316,2.0999999046325684,-5.400000095367432,35.281005859375,0,
 466010,-0.32421875,-0.926025390625,-0.0166015625,-0.6097561120986938,0.5182926654815674,0.3353658616542816,2.549999952316284,3.1500000953674316,-7.050000190734863,35.137237548828125,0,
 466020,-0.323974609375,-0.9208984375,-0.0224609375,-0.792682945728302,0.3353658616542816,0.396341472864151,3.75,0.75,-6.75,35.47269821166992,0,
 466030,-0.32666015625,-0.915771484375,-0.016357421875,-0.8536585569381714,0.3353658616542816,0.060975611209869385,3.75,0.0,-7.050000190734863,35.089317321777344,0,
 466040,-0.32177734375,-0.9228515625,-0.019775390625,-0.9146341681480408,0.7621951103210449,0.030487805604934692,3.75,0.0,-7.050000190734863,34.99346923828125,0,
 466050,-0.328369140625,-0.92431640625,-0.016845703125,-0.8231707215309143,0.5792682766914368,0.09146341681480408,5.400000095367432,0.44999998807907104,-8.399999618530273,35.089317321777344,0,
 466060,-0.32177734375,-0.925048828125,-0.016845703125,-0.6707317233085632,0.396341472864151,0.0,2.549999952316284,1.5,-7.800000190734863,35.137237548828125,0,
 466070,-0.325439453125,-0.916015625,-0.0224609375,-0.396341472864151,0.4268292784690857,0.24390244483947754,5.25,2.25,-7.5,35.137237548828125,0,
 466080,-0.32568359375,-0.92919921875,-0.01904296875,-0.6402438879013062,0.15243902802467346,0.0,3.299999952316284,1.9500000476837158,-7.050000190734863,35.23308563232422,0,
 466090,-0.3193359375,-0.92724609375,-0.014404296875,-0.3658536672592163,0.24390244483947754,0.5182926654815674,3.299999952316284,1.9500000476837158,-7.050000190734863,34.801780700683594,0,
 466100,-0.327392578125,-0.928955078125,-0.0185546875,-0.3048780560493469,0.21341463923454285,0.4878048896789551,4.349999904632568,0.8999999761581421,-7.650000095367432,35.089317321777344,0,
 466110,-0.325439453125,-0.927978515625,-0.01611328125,-0.27439025044441223,0.15243902802467346,0.3048780560493469,4.349999904632568,0.8999999761581421,-7.650000095367432,35.137237548828125,0,
 466120,-0.326416015625,-0.923095703125,-0.0185546875,-0.27439025044441223,0.24390244483947754,0.5182926654815674,3.9000000953674316,0.44999998807907104,-9.449999809265137,35.137237548828125,0,
 466130,-0.328857421875,-0.9248046875,-0.016357421875,-0.3658536672592163,0.09146341681480408,0.21341463923454285,3.0,1.9500000476837158,-7.5,35.137237548828125,0,
 466140,-0.329345703125,-0.925048828125,-0.017822265625,-0.6402438879013062,0.24390244483947754,0.5182926654815674,3.0,1.9500000476837158,-7.5,35.281005859375,0,
 466150,-0.3291015625,-0.920654296875,-0.017822265625,-0.4268292784690857,0.09146341681480408,0.12195122241973877,3.0,3.1500000953674316,-8.25,35.137237548828125,0,
 466160,-0.329345703125,-0.924072265625,-0.017822265625,-0.6097561120986938,0.4268292784690857,-0.24390244483947754,3.0,1.9500000476837158,-9.0,35.23308563232422,0,
 466170,-0.333251953125,-0.9189453125,-0.018798828125,-0.4878048896789551,0.3658536672592163,-0.060975611209869385,1.649999976158142,1.350000023841858,-6.449999809265137,35.137237548828125,0,
 466180,-0.328369140625,-0.922607421875,-0.022216796875,-0.6402438879013062,0.3658536672592163,-0.18292683362960815,1.649999976158142,1.350000023841858,-6.449999809265137,35.137237548828125,0,
 466190,-0.333984375,-0.92138671875,-0.018798828125,-0.12195122241973877,0.030487805604934692,-0.3048780560493469,3.75,1.9500000476837158,-6.75,35.137237548828125,0,
 466200,-0.32861328125,-0.927978515625,-0.019287109375,-0.3658536672592163,0.09146341681480408,0.3353658616542816,4.199999809265137,1.5,-7.050000190734863,35.089317321777344,0,
 466210,-0.3310546875,-0.920654296875,-0.01611328125,-0.3658536672592163,0.3658536672592163,0.4268292784690857,3.1500000953674316,4.050000190734863,-7.199999809265137,34.99346923828125,0,
 466220,-0.329345703125,-0.925537109375,-0.01953125,-0.18292683362960815,0.4573170840740204,0.5792682766914368,5.699999809265137,1.0499999523162842,-9.0,35.089317321777344,0,
 466230,-0.324951171875,-0.92626953125,-0.019775390625,-0.4878048896789551,0.060975611209869385,0.4573170840740204,5.699999809265137,1.0499999523162842,-9.0,35.281005859375,0,
 466240,-0.32568359375,-0.9248046875,-0.0146484375,-0.396341472864151,0.18292683362960815,0.3353658616542816,4.199999809265137,1.5,-9.0,35.23308563232422,0,
 466250,-0.33203125,-0.91455078125,-0.01708984375,-0.3048780560493469,0.15243902802467346,0.5487805008888245,5.699999809265137,1.0499999523162842,-7.800000190734863,35.137237548828125,0,
 466260,-0.326416015625,-0.924072265625,-0.01220703125,-0.4573170840740204,0.3048780560493469,0.030487805604934692,3.75,1.9500000476837158,-7.800000190734863,35.089317321777344,0,
 466270,-0.3310546875,-0.91748046875,-0.017822265625,-0.3658536672592163,0.4573170840740204,-0.21341463923454285,3.9000000953674316,1.350000023841858,-7.949999809265137,34.99346923828125,0,
 466280,-0.32861328125,-0.923583984375,-0.019775390625,-0.3658536672592163,0.3048780560493469,-0.18292683362960815,3.9000000953674316,1.350000023841858,-7.949999809265137,35.137237548828125,0,
 466290,-0.32568359375,-0.923095703125,-0.0185546875,-0.6402438879013062,0.15243902802467346,-0.060975611209869385,5.25,0.0,-7.5,34.99346923828125,0,
 466300,-0.32568359375,-0.922607421875,-0.01904296875,-0.5182926654815674,0.4573170840740204,0.030487805604934692,2.8499999046325684,1.649999976158142,-6.150000095367432,35.137237548828125,0,
 466310,-0.322265625,-0.923095703125,-0.021728515625,-0.5487805008888245,0.24390244483947754,0.4268292784690857,3.9000000953674316,1.649999976158142,-7.650000095367432,35.281005859375,0,
 466320,-0.33056640625,-0.92431640625,-0.01953125,-0.3658536672592163,0.030487805604934692,0.5792682766914368,3.5999999046325684,3.299999952316284,-8.699999809265137,35.23308563232422,0,
 466330,-0.33056640625,-0.923828125,-0.0166015625,-0.27439025044441223,0.060975611209869385,0.8841463327407837,3.5999999046325684,3.299999952316284,-8.699999809265137,34.94554901123047,0,
 466340,-0.32958984375,-0.923828125,-0.021240234375,0.030487805604934692,0.09146341681480408,0.4268292784690857,4.199999809265137,1.9500000476837158,-7.5,35.137237548828125,0,
 466350,-0.325439453125,-0.921630859375,-0.019287109375,0.12195122241973877,0.15243902802467346,0.5792682766914368,3.299999952316284,2.25,-7.5,34.99346923828125,0,
 466360,-0.328857421875,-0.92041015625,-0.01611328125,-0.3048780560493469,0.0,0.7317073345184326,4.949999809265137,2.25,-7.5,35.089317321777344,0,
 466370,-0.322021484375,-0.920654296875,-0.018310546875,-0.4268292784690857,0.4268292784690857,0.21341463923454285,4.949999809265137,2.25,-7.5,35.137237548828125,0,
 466380,-0.324951171875,-0.93115234375,-0.015380859375,-0.4573170840740204,0.4573170840740204,0.15243902802467346,4.199999809265137,2.700000047683716,-6.75,34.801780700683594,0,
 466390,-0.32958984375,-0.925537109375,-0.012451171875,-0.8231707215309143,0.4878048896789551,-0.15243902802467346,3.9000000953674316,2.0999999046325684,-7.199999809265137,35.137237548828125,0,
 466400,-0.329833984375,-0.927001953125,-0.017578125,-0.8841463327407837,0.4878048896789551,-0.15243902802467346,4.349999904632568,2.8499999046325684,-7.650000095367432,34.99346923828125,0,
 466410,-0.324462890625,-0.9248046875,-0.0146484375,-0.792682945728302,0.3353658616542816,0.0,4.199999809265137,1.5,-6.75,34.99346923828125,0,
 466420,-0.324462890625,-0.927490234375,-0.015380859375,-0.7012194991111755,0.396341472864151,-0.030487805604934692,4.199999809265137,1.5,-6.75,35.089317321777344,0,
 466430,-0.322265625,-0.922119140625,-0.021484375,-0.6402438879013062,0.6402438879013062,-0.27439025044441223,1.2000000476837158,0.44999998807907104,-9.449999809265137,34.801780700683594,0,
 466440,-0.325439453125,-0.92431640625,-0.015869140625,-0.8231707215309143,0.27439025044441223,0.15243902802467346,3.1500000953674316,1.649999976158142,-6.900000095367432,35.089317321777344,0,
 466450,-0.3310546875,-0.919677734375,-0.0234375,-1.0670732259750366,0.3353658616542816,0.3048780560493469,3.9000000953674316,0.44999998807907104,-8.399999618530273,35.137237548828125,0,
 466460,-0.331298828125,-0.926025390625,-0.01611328125,-0.5182926654815674,0.3353658616542816,0.396341472864151,3.0,1.9500000476837158,-7.050000190734863,35.281005859375,0,
 466470,-0.327392578125,-0.923095703125,-0.01904296875,-0.7317073345184326,0.21341463923454285,0.4573170840740204,3.0,1.9500000476837158,-7.050000190734863,35.23308563232422,0,
 466480,-0.32470703125,-0.916015625,-0.0205078125,-0.6402438879013062,0.12195122241973877,0.8231707215309143,3.75,0.30000001192092896,-7.050000190734863,34.801780700683594,0,
 466490,-0.325927734375,-0.91796875,-0.015869140625,-0.24390244483947754,0.24390244483947754,0.4878048896789551,3.299999952316284,1.9500000476837158,-7.050000190734863,35.137237548828125,0,
 466500,-0.328857421875,-0.9228515625,-0.01513671875,-0.4268292784690857,0.3658536672592163,0.3048780560493469,4.349999904632568,0.8999999761581421,-7.949999809265137,35.137237548828125,0,
 466510,-0.328125,-0.921142578125,-0.015625,-0.15243902802467346,0.3658536672592163,0.4573170840740204,4.5,0.75,-7.800000190734863,35.137237548828125,0,
 466520,-0.328125,-0.921875,-0.01806640625,-0.3353658616542816,0.4268292784690857,0.24390244483947754,4.5,0.75,-7.800000190734863,35.23308563232422,0,
 466530,-0.327392578125,-0.924072265625,-0.021728515625,-0.4573170840740204,0.5182926654815674,0.3048780560493469,4.5,1.0499999523162842,-11.25,35.137237548828125,0,
 466541,-0.325927734375,-0.926025390625,-0.016845703125,-0.396341472864151,0.5792682766914368,0.030487805604934692,3.0,2.25,-6.75,35.23308563232422,0,
 466551,-0.328369140625,-0.929443359375,-0.01806640625,-0.3658536672592163,0.4878048896789551,0.030487805604934692,2.4000000953674316,2.549999952316284,-7.199999809265137,35.137237548828125,0,
 466561,-0.32861328125,-0.918212890625,-0.019287109375,-0.3353658616542816,0.3353658616542816,0.09146341681480408,2.4000000953674316,2.549999952316284,-7.199999809265137,35.089317321777344,0,
 466571,-0.32275390625,-0.918212890625,-0.023193359375,-0.21341463923454285,0.030487805604934692,-0.15243902802467346,5.099999904632568,2.549999952316284,-7.199999809265137,35.281005859375,0,
 466581,-0.327880859375,-0.92431640625,-0.017333984375,-0.3048780560493469,0.4268292784690857,0.3658536672592163,3.1500000953674316,2.549999952316284,-7.949999809265137,35.089317321777344,0,
 466591,-0.329833984375,-0.927001953125,-0.01708984375,-0.060975611209869385,0.3353658616542816,0.27439025044441223,5.099999904632568,2.0999999046325684,-6.900000095367432,35.137237548828125,0,
 466601,-0.32763671875,-0.922607421875,-0.017822265625,-0.7317073345184326,0.3658536672592163,-0.060975611209869385,3.9000000953674316,2.549999952316284,-7.199999809265137,34.94554901123047,0,
 466611,-0.323974609375,-0.91845703125,-0.0166015625,-0.7012194991111755,0.3353658616542816,0.060975611209869385,3.9000000953674316,2.549999952316284,-7.199999809265137,35.137237548828125,0,
 466621,-0.325439453125,-0.9267578125,-0.018798828125,-0.9756097793579102,0.4573170840740204,0.060975611209869385,3.0,1.9500000476837158,-6.300000190734863,35.23308563232422,0,
 466631,-0.323486328125,-0.927734375,-0.01806640625,-0.9756097793579102,0.396341472864151,-0.09146341681480408,5.849999904632568,4.050000190734863,-7.949999809265137,34.801780700683594,0,
 466641,-0.323974609375,-0.922119140625,-0.017822265625,-0.7317073345184326,0.09146341681480408,-0.3048780560493469,4.5,1.5,-7.5,35.281005859375,0,
 466651,-0.330810546875,-0.926025390625,-0.013671875,-0.27439025044441223,0.3658536672592163,0.24390244483947754,2.8499999046325684,3.299999952316284,-8.399999618530273,35.23308563232422,0,
 466661,-0.332275390625,-0.923828125,-0.015869140625,-0.7621951103210449,0.5182926654815674,0.18292683362960815,2.8499999046325684,3.299999952316284,-8.399999618530273,35.281005859375,0,
 466671,-0.326416015625,-0.927001953125,-0.021484375,-0.27439025044441223,0.3353658616542816,-0.030487805604934692,3.75,1.5,-7.5,35.23308563232422,0,
 466681,-0.324462890625,-0.91796875,-0.0224609375,-0.7012194991111755,0.3658536672592163,0.7012194991111755,3.1500000953674316,0.8999999761581421,-7.949999809265137,35.281005859375,0,
 466691,-0.322998046875,-0.92041015625,-0.020263671875,-0.6707317233085632,0.4268292784690857,0.7621951103210449,4.349999904632568,2.0999999046325684,-7.949999809265137,35.23308563232422,0,
 466701,-0.331298828125,-0.92236328125,-0.0185546875,-0.6097561120986938,0.4268292784690857,0.7317073345184326,3.9000000953674316,2.8499999046325684,-6.900000095367432,34.99346923828125,0,
 466711,-0.323486328125,-0.921142578125,-0.0146484375,-0.8536585569381714,0.5182926654815674,0.21341463923454285,3.9000000953674316,2.8499999046325684,-6.900000095367432,34.75385665893555,0,
 466721,-0.3232421875,-0.92333984375,-0.017578125,-0.7317073345184326,0.5792682766914368,0.5182926654815674,3.1500000953674316,1.649999976158142,-7.199999809265137,35.137237548828125,0,
 466731,-0.32421875,-0.927978515625,-0.0234375,-0.4878048896789551,0.3353658616542816,0.6402438879013062,1.2000000476837158,2.549999952316284,-9.449999809265137,35.137237548828125,0,
 466741,-0.332763671875,-0.9228515625,-0.0205078125,-0.3048780560493469,0.4573170840740204,0.21341463923454285,3.5999999046325684,0.8999999761581421,-8.699999809265137,35.137237548828125,0,
 466751,-0.327880859375,-0.91943359375,-0.016845703125,-0.4878048896789551,0.3353658616542816,0.15243902802467346,3.5999999046325684,0.8999999761581421,-8.699999809265137,35.089317321777344,0,
 466761,-0.33251953125,-0.924072265625,-0.02001953125,-0.6402438879013062,0.12195122241973877,0.3048780560493469,4.349999904632568,1.649999976158142,-8.399999618530273,35.42477798461914,0,
 466771,-0.323486328125,-0.924072265625,-0.01513671875,-0.3353658616542816,0.27439025044441223,0.21341463923454285,3.0,2.25,-6.300000190734863,34.99346923828125,0,
 466781,-0.328125,-0.921630859375,-0.021240234375,-0.5487805008888245,0.21341463923454285,0.24390244483947754,4.349999904632568,2.549999952316284,-7.650000095367432,34.99346923828125,0,
 466791,-0.322265625,-0.930419921875,-0.01953125,-0.24390244483947754,0.21341463923454285,0.24390244483947754,3.1500000953674316,2.549999952316284,-7.650000095367432,35.089317321777344,0,
 466801,-0.327392578125,-0.922119140625,-0.019287109375,-0.3353658616542816,0.4268292784690857,0.5487805008888245,3.1500000953674316,2.549999952316284,-7.650000095367432,35.089317321777344,0,
 466811,-0.32763671875,-0.924072265625,-0.01806640625,-0.396341472864151,0.24390244483947754,0.4878048896789551,4.349999904632568,2.8499999046325684,-7.949999809265137,35.281005859375,0,
 466821,-0.322265625,-0.921630859375,-0.015380859375,-0.396341472864151,0.24390244483947754,0.3658536672592163,4.349999904632568,0.8999999761581421,-7.199999809265137,34.801780700683594,0,
 466831,-0.32373046875,-0.9248046875,-0.019775390625,-0.09146341681480408,0.27439025044441223,0.3353658616542816,3.5999999046325684,2.549999952316284,-7.949999809265137,34.94554901123047,0,
 466841,-0.330078125,-0.910888671875,-0.01513671875,-0.060975611209869385,0.0,0.3048780560493469,3.299999952316284,1.0499999523162842,-7.800000190734863,35.137237548828125,0,
 466851,-0.32763671875,-0.93115234375,-0.017333984375,-0.15243902802467346,0.15243902802467346,0.27439025044441223,3.299999952316284,1.0499999523162842,-7.800000190734863,35.137237548828125,0,
 466861,-0.324951171875,-0.922119140625,-0.01611328125,-0.5792682766914368,0.4268292784690857,0.030487805604934692,3.9000000953674316,2.0999999046325684,-6.900000095367432,35.137237548828125,0,
 466871,-0.325439453125,-0.92626953125,-0.01416015625,-0.792682945728302,0.4878048896789551,0.0,3.9000000953674316,1.649999976158142,-6.150000095367432,34.99346923828125,0,
 466881,-0.328125,-0.925048828125,-0.018798828125,-0.4268292784690857,0.12195122241973877,0.09146341681480408,3.1500000953674316,1.649999976158142,-7.650000095367432,35.137237548828125,0,
 466891,-0.328369140625,-0.920654296875,-0.0185546875,-0.5487805008888245,0.4268292784690857,0.27439025044441223,3.9000000953674316,1.350000023841858,-6.900000095367432,34.99346923828125,0,
 466901,-0.331298828125,-0.9208984375,-0.0166015625,-0.3658536672592163,0.3353658616542816,0.060975611209869385,3.9000000953674316,1.350000023841858,-6.900000095367432,34.99346923828125,0,
 466911,-0.329833984375,-0.9248046875,-0.015869140625,-0.5487805008888245,0.5182926654815674,0.09146341681480408,4.199999809265137,1.0499999523162842,-8.25,35.52062225341797,0,
 466921,-0.326904296875,-0.9228515625,-0.019287109375,-0.8231707215309143,0.4268292784690857,0.15243902802467346,2.549999952316284,1.5,-8.25,34.801780700683594,0,
 466931,-0.328125,-0.92431640625,-0.014892578125,-0.6402438879013062,0.6402438879013062,0.4573170840740204,3.5999999046325684,0.8999999761581421,-6.449999809265137,35.23308563232422,0,
 466941,-0.328369140625,-0.92236328125,-0.01806640625,-0.6707317233085632,0.5792682766914368,0.27439025044441223,3.5999999046325684,0.8999999761581421,-6.449999809265137,35.089317321777344,0,
 466951,-0.322998046875,-0.9228515625,-0.017333984375,-0.5792682766914368,0.4268292784690857,0.3353658616542816,5.099999904632568,2.0999999046325684,-6.900000095367432,34.801780700683594,0,
 466961,-0.325439453125,-0.9208984375,-0.021728515625,-0.8536585569381714,0.3353658616542816,0.060975611209869385,3.5999999046325684,1.350000023841858,-7.650000095367432,35.281005859375,0,
 466971,-0.326416015625,-0.920166015625,-0.01904296875,-0.8231707215309143,0.3048780560493469,0.030487805604934692,3.9000000953674316,1.350000023841858,-7.650000095367432,34.99346923828125,0,
 466981,-0.329833984375,-0.926513671875,-0.020751953125,-0.6097561120986938,0.5792682766914368,0.060975611209869385,3.5999999046325684,1.649999976158142,-6.900000095367432,35.137237548828125,0,
 466991,-0.3291015625,-0.928466796875,-0.01318359375,-0.6707317233085632,0.18292683362960815,0.0,3.5999999046325684,1.649999976158142,-6.900000095367432,35.23308563232422,0,
 467001,-0.324951171875,-0.921875,-0.0185546875,-0.9451219439506531,0.6402438879013062,0.21341463923454285,4.349999904632568,0.15000000596046448,-7.199999809265137,34.94554901123047,0,
 467011,-0.322265625,-0.92236328125,-0.01953125,-0.8231707215309143,0.5487805008888245,0.030487805604934692,3.0,0.0,-7.5,35.32892990112305,0,
 467021,-0.3291015625,-0.919677734375,-0.025146484375,-0.7012194991111755,0.5487805008888245,-0.060975611209869385,3.0,1.5,-6.300000190734863,35.089317321777344,0,
 467031,-0.326904296875,-0.926513671875,-0.022216796875,-0.7317073345184326,0.5487805008888245,-0.09146341681480408,3.299999952316284,1.5,-7.050000190734863,35.137237548828125,0,
 467041,-0.322998046875,-0.923828125,-0.01904296875,-0.9756097793579102,0.4573170840740204,0.12195122241973877,3.299999952316284,1.5,-7.050000190734863,35.281005859375,0,
 467051,-0.321044921875,-0.92529296875,-0.025390625,-0.7012194991111755,0.5487805008888245,0.5792682766914368,4.5,1.5,-8.25,35.137237548828125,0,
 467061,-0.32470703125,-0.9296875,-0.02099609375,-0.3048780560493469,0.15243902802467346,0.792682945728302,3.1500000953674316,1.649999976158142,-7.949999809265137,35.137237548828125,0,
 467071,-0.31884765625,-0.92041015625,-0.021240234375,-0.5487805008888245,0.27439025044441223,0.7621951103210449,3.5999999046325684,0.15000000596046448,-7.650000095367432,35.137237548828125,0,
 467081,-0.3232421875,-0.921630859375,-0.01806640625,-0.24390244483947754,0.0,0.9146341681480408,2.0999999046325684,0.8999999761581421,-7.650000095367432,35.23308563232422,0,
