timestamp,accl_x,accl_y,accl_z,gyro_x,gyro_y,gyro_z,mag_x,mag_y,mag_z,temp,emg,
 915460,-0.278564453125,-0.940185546875,-0.0224609375,0.060975611209869385,0.18292683362960815,1.1890244483947754,-1.5,1.5,-8.25,36.91038513183594,0,
 915470,-0.27734375,-0.93994140625,-0.018310546875,0.24390244483947754,0.3353658616542816,0.8841463327407837,-1.5,1.5,-8.25,36.67076873779297,0,
 915480,-0.282958984375,-0.933837890625,-0.01806640625,-0.18292683362960815,0.030487805604934692,1.0670732259750366,1.5,2.25,-8.550000190734863,36.57492446899414,0,
 915490,-0.281494140625,-0.9375,-0.009521484375,-0.3658536672592163,0.0,0.6707317233085632,0.75,0.30000001192092896,-8.550000190734863,36.67076873779297,0,
 915500,-0.277587890625,-0.933349609375,-0.01611328125,-0.6707317233085632,0.396341472864151,0.3048780560493469,1.7999999523162842,3.1500000953674316,-7.800000190734863,36.67076873779297,0,
 915510,-0.28564453125,-0.934326171875,-0.016845703125,-0.9451219439506531,0.6402438879013062,0.0,2.0999999046325684,2.0999999046325684,-8.699999809265137,36.527000427246094,0,
 915520,-0.2841796875,-0.93017578125,-0.02197265625,-1.402438998222351,0.6097561120986938,-0.5487805008888245,2.0999999046325684,2.0999999046325684,-8.699999809265137,36.527000427246094,0,
 915530,-0.27685546875,-0.938720703125,-0.016357421875,-1.6768293380737305,0.7012194991111755,-0.8536585569381714,1.5,2.25,-7.800000190734863,36.718692779541016,0,
 915540,-0.27734375,-0.931884765625,-0.01953125,-1.4939024448394775,0.9756097793579102,-0.5792682766914368,0.30000001192092896,1.9500000476837158,-6.0,36.718692779541016,0,
 915550,-0.27685546875,-0.936279296875,-0.02783203125,-1.6463414430618286,0.6097561120986938,-0.4268292784690857,1.649999976158142,1.350000023841858,-10.949999809265137,36.718692779541016,0,
 915560,-0.2783203125,-0.935791015625,-0.022216796875,-0.9451219439506531,0.7317073345184326,0.18292683362960815,0.75,3.450000047683716,-8.25,36.57492446899414,0,
 915570,-0.277587890625,-0.943359375,-0.028564453125,-0.792682945728302,0.396341472864151,0.396341472864151,0.8999999761581421,0.8999999761581421,-9.149999618530273,36.527000427246094,0,
 915580,-0.27978515625,-0.92919921875,-0.02392578125,0.030487805604934692,0.24390244483947754,0.8536585569381714,2.0999999046325684,1.649999976158142,-7.199999809265137,36.718692779541016,0,
 915590,-0.28173828125,-0.931884765625,-0.01806640625,0.21341463923454285,0.0,1.0365853309631348,0.44999998807907104,0.8999999761581421,-8.399999618530273,36.814537048339844,0,
 915600,-0.285888671875,-0.93896484375,-0.021728515625,0.3658536672592163,0.09146341681480408,1.3109756708145142,1.0499999523162842,2.25,-7.800000190734863,36.57492446899414,0,
 915610,-0.28125,-0.937744140625,-0.01904296875,0.4573170840740204,-0.09146341681480408,1.097561001777649,1.0499999523162842,2.25,-7.800000190734863,36.814537048339844,0,
 915620,-0.278564453125,-0.93310546875,-0.023193359375,0.18292683362960815,0.060975611209869385,0.7317073345184326,-0.30000001192092896,3.450000047683716,-7.5,36.38323211669922,0,
 915630,-0.285400390625,-0.939697265625,-0.014892578125,-0.030487805604934692,0.3353658616542816,0.4573170840740204,0.75,2.25,-7.800000190734863,36.57492446899414,0,
 915640,-0.28515625,-0.931884765625,-0.0146484375,-0.3353658616542816,-0.12195122241973877,-0.3048780560493469,-0.30000001192092896,1.9500000476837158,-8.25,36.814537048339844,0,
 915650,-0.2802734375,-0.94287109375,-0.01806640625,-0.8231707215309143,0.3658536672592163,-0.6402438879013062,3.75,1.0499999523162842,-12.300000190734863,36.1915397644043,0,
 915660,-0.288818359375,-0.934814453125,-0.02392578125,-1.2195122241973877,0.7317073345184326,-0.5182926654815674,3.75,1.0499999523162842,-12.300000190734863,36.814537048339844,0,
 915670,-0.28369140625,-0.936279296875,-0.020751953125,-1.0670732259750366,0.3658536672592163,-0.792682945728302,0.0,0.75,-9.300000190734863,36.57492446899414,0,
 915680,-0.27685546875,-0.9423828125,-0.01953125,-1.3109756708145142,0.4573170840740204,-0.8841463327407837,1.649999976158142,3.299999952316284,-6.150000095367432,36.814537048339844,0,
 915690,-0.2783203125,-0.936767578125,-0.019287109375,-1.1890244483947754,0.6097561120986938,-0.4573170840740204,0.75,1.0499999523162842,-8.550000190734863,36.718692779541016,0,
 915700,-0.28466796875,-0.93798828125,-0.02197265625,-0.9756097793579102,0.4878048896789551,0.3048780560493469,0.75,1.0499999523162842,-8.550000190734863,36.67076873779297,0,
 915710,-0.27734375,-0.93310546875,-0.031494140625,-0.030487805604934692,0.3048780560493469,0.7621951103210449,0.44999998807907104,0.44999998807907104,-7.949999809265137,36.57492446899414,0,
 915720,-0.280517578125,-0.937744140625,-0.025390625,0.6097561120986938,-0.060975611209869385,0.7621951103210449,1.7999999523162842,0.75,-8.25,36.67076873779297,0,
 915730,-0.28173828125,-0.935302734375,-0.022216796875,0.3353658616542816,-0.15243902802467346,0.6707317233085632,0.75,2.25,-7.050000190734863,36.718692779541016,0,
 915740,-0.281005859375,-0.9375,-0.0185546875,-0.09146341681480408,0.4573170840740204,0.7012194991111755,0.44999998807907104,2.549999952316284,-7.650000095367432,36.814537048339844,0,
 915750,-0.2822265625,-0.93701171875,-0.010009765625,-0.6402438879013062,0.3658536672592163,0.030487805604934692,0.44999998807907104,2.549999952316284,-7.650000095367432,36.814537048339844,0,
 915760,-0.285400390625,-0.938232421875,-0.010009765625,-0.5182926654815674,0.4573170840740204,-0.12195122241973877,1.649999976158142,1.350000023841858,-7.949999809265137,36.47908020019531,0,
 915770,-0.27880859375,-0.93798828125,-0.016357421875,-0.7317073345184326,0.5487805008888245,-0.030487805604934692,0.44999998807907104,2.0999999046325684,-7.949999809265137,36.527000427246094,0,
 915780,-0.281494140625,-0.93310546875,-0.0263671875,-0.7012194991111755,0.5792682766914368,-0.18292683362960815,0.44999998807907104,2.0999999046325684,-7.199999809265137,36.57492446899414,0,
 915790,-0.279052734375,-0.934326171875,-0.020263671875,-0.9451219439506531,0.4878048896789551,-0.09146341681480408,0.44999998807907104,2.0999999046325684,-7.199999809265137,36.67076873779297,0,
 915800,-0.277587890625,-0.94140625,-0.0205078125,-0.5487805008888245,0.3048780560493469,0.3048780560493469,1.7999999523162842,1.9500000476837158,-7.050000190734863,36.47908020019531,0,
 915811,-0.275634765625,-0.9384765625,-0.023193359375,-0.3658536672592163,0.09146341681480408,0.5487805008888245,0.0,0.30000001192092896,-7.050000190734863,36.67076873779297,0,
 915821,-0.275146484375,-0.934326171875,-0.021240234375,-0.060975611209869385,-0.030487805604934692,0.9756097793579102,-0.15000000596046448,1.649999976158142,-9.449999809265137,36.57492446899414,0,
 915831,-0.27880859375,-0.937255859375,-0.029296875,0.3353658616542816,0.12195122241973877,1.097561001777649,1.0499999523162842,0.75,-8.550000190734863,36.86246109008789,0,
 915841,-0.2802734375,-0.939208984375,-0.02685546875,0.5487805008888245,0.030487805604934692,1.0060975551605225,1.0499999523162842,0.75,-8.550000190734863,36.814537048339844,0,
 915851,-0.28125,-0.937744140625,-0.0185546875,0.0,0.09146341681480408,0.8231707215309143,0.0,2.700000047683716,-9.0,36.814537048339844,0,
 915861,-0.2841796875,-0.93701171875,-0.01611328125,0.0,0.3048780560493469,0.4878048896789551,1.0499999523162842,1.0499999523162842,-9.300000190734863,36.527000427246094,0,
 915871,-0.283935546875,-0.936279296875,-0.017578125,-0.7621951103210449,0.18292683362960815,-0.21341463923454285,1.5,3.1500000953674316,-8.550000190734863,36.67076873779297,0,
 915881,-0.279296875,-0.93798828125,-0.01806640625,-0.7621951103210449,0.5487805008888245,-0.030487805604934692,0.15000000596046448,1.350000023841858,-8.399999618530273,36.527000427246094,0,
 915891,-0.28125,-0.9306640625,-0.013427734375,-1.0670732259750366,0.5487805008888245,-0.7317073345184326,0.15000000596046448,1.350000023841858,-8.399999618530273,36.718692779541016,0,
 915901,-0.279052734375,-0.93603515625,-0.01611328125,-1.1585365533828735,0.6707317233085632,-0.8231707215309143,1.649999976158142,3.299999952316284,-7.949999809265137,36.718692779541016,0,
 915911,-0.278076171875,-0.9375,-0.020263671875,-1.2804877758026123,0.21341463923454285,-0.7317073345184326,0.30000001192092896,2.25,-7.5,36.57492446899414,0,
 915921,-0.28173828125,-0.93798828125,-0.020751953125,-1.1280487775802612,0.792682945728302,-0.24390244483947754,0.8999999761581421,0.44999998807907104,-7.199999809265137,36.527000427246094,0,
 915931,-0.274658203125,-0.93994140625,-0.021484375,-1.3109756708145142,0.7621951103210449,0.4268292784690857,0.8999999761581421,0.44999998807907104,-7.199999809265137,36.718692779541016,0,
 915941,-0.278564453125,-0.93408203125,-0.026611328125,-0.5487805008888245,0.6097561120986938,1.0365853309631348,1.649999976158142,-0.15000000596046448,-9.449999809265137,36.814537048339844,0,
 915951,-0.27685546875,-0.934326171875,-0.03076171875,0.12195122241973877,0.27439025044441223,0.9756097793579102,0.30000001192092896,0.0,-8.550000190734863,36.527000427246094,0,
 915961,-0.28076171875,-0.93359375,-0.025390625,0.21341463923454285,0.18292683362960815,1.0365853309631348,0.75,0.0,-9.0,36.38323211669922,0,
 915971,-0.283447265625,-0.942626953125,-0.01513671875,0.18292683362960815,-0.24390244483947754,0.9146341681480408,0.75,2.700000047683716,-8.25,36.718692779541016,0,
 915981,-0.287109375,-0.9384765625,-0.01416015625,-0.09146341681480408,0.21341463923454285,0.5792682766914368,0.75,2.700000047683716,-8.25,36.67076873779297,0,
 915991,-0.2802734375,-0.9375,-0.021484375,-0.396341472864151,0.27439025044441223,0.4878048896789551,0.15000000596046448,0.15000000596046448,-7.650000095367432,36.57492446899414,0,
 916001,-0.28369140625,-0.9345703125,-0.019775390625,-0.6707317233085632,0.5792682766914368,0.12195122241973877,0.44999998807907104,1.649999976158142,-9.449999809265137,36.57492446899414,0,
 916011,-0.280029296875,-0.93359375,-0.018310546875,-0.9451219439506531,0.396341472864151,-0.12195122241973877,0.75,1.5,-7.5,36.527000427246094,0,
 916021,-0.2822265625,-0.9384765625,-0.02197265625,-1.0670732259750366,0.4573170840740204,-0.030487805604934692,0.75,1.5,-7.5,36.718692779541016,0,
 916031,-0.284423828125,-0.94189453125,-0.029541015625,-1.3414634466171265,0.4878048896789551,0.21341463923454285,-0.15000000596046448,2.8499999046325684,-8.699999809265137,36.57492446899414,0,
 916041,-0.283935546875,-0.936767578125,-0.024658203125,-0.5792682766914368,0.18292683362960815,0.0,0.8999999761581421,1.649999976158142,-7.949999809265137,36.527000427246094,0,
 916051,-0.2783203125,-0.940673828125,-0.03125,-0.3353658616542816,0.3048780560493469,0.3048780560493469,0.75,1.0499999523162842,-8.550000190734863,36.86246109008789,0,
 916061,-0.283203125,-0.93212890625,-0.026123046875,-0.060975611209869385,0.18292683362960815,0.5487805008888245,1.5,-1.5,-9.300000190734863,36.527000427246094,0,
 916071,-0.277099609375,-0.937255859375,-0.027099609375,0.3048780560493469,-0.12195122241973877,0.7621951103210449,1.5,-1.5,-9.300000190734863,36.57492446899414,0,
 916081,-0.288330078125,-0.93896484375,-0.01953125,0.6402438879013062,-0.060975611209869385,0.8231707215309143,1.2000000476837158,2.549999952316284,-7.650000095367432,36.814537048339844,0,
 916091,-0.287109375,-0.943603515625,-0.0146484375,0.7621951103210449,0.0,0.8231707215309143,-0.44999998807907104,1.649999976158142,-8.399999618530273,36.718692779541016,0,
 916101,-0.282470703125,-0.937255859375,-0.015869140625,0.6402438879013062,0.27439025044441223,0.396341472864151,1.2000000476837158,2.0999999046325684,-7.650000095367432,36.814537048339844,0,
 916111,-0.283203125,-0.936767578125,-0.012451171875,-0.060975611209869385,0.18292683362960815,0.27439025044441223,0.8999999761581421,1.649999976158142,-9.149999618530273,36.718692779541016,0,
 916121,-0.283935546875,-0.939453125,-0.01220703125,-0.3353658616542816,0.0,-0.21341463923454285,0.8999999761581421,1.649999976158142,-9.149999618530273,36.86246109008789,0,
 916131,-0.287109375,-0.935302734375,-0.019287109375,-0.6707317233085632,0.4878048896789551,-0.4878048896789551,0.8999999761581421,0.15000000596046448,-7.650000095367432,36.67076873779297,0,
 916141,-0.282958984375,-0.93017578125,-0.016357421875,-0.792682945728302,0.5182926654815674,-0.9756097793579102,0.15000000596046448,1.649999976158142,-7.650000095367432,36.47908020019531,0,
 916151,-0.276611328125,-0.94140625,-0.015869140625,-1.0670732259750366,0.7012194991111755,-1.0365853309631348,0.8999999761581421,2.0999999046325684,-8.699999809265137,36.57492446899414,0,
 916161,-0.277587890625,-0.94189453125,-0.018310546875,-1.1585365533828735,0.6097561120986938,-0.18292683362960815,0.8999999761581421,2.0999999046325684,-8.699999809265137,36.814537048339844,0,
 916171,-0.279296875,-0.93896484375,-0.022216796875,-0.6402438879013062,0.4268292784690857,0.4878048896789551,0.75,0.30000001192092896,-8.550000190734863,36.814537048339844,0,
 916181,-0.277587890625,-0.937255859375,-0.028076171875,-0.4878048896789551,0.3048780560493469,0.5182926654815674,0.0,1.5,-7.5,36.527000427246094,0,
 916191,-0.28125,-0.934326171875,-0.0244140625,-0.18292683362960815,0.15243902802467346,1.1280487775802612,2.25,0.75,-7.800000190734863,36.86246109008789,0,
 916201,-0.27783203125,-0.93408203125,-0.0205078125,0.15243902802467346,0.030487805604934692,0.6707317233085632,1.2000000476837158,0.8999999761581421,-7.949999809265137,36.57492446899414,0,
 916211,-0.2861328125,-0.9345703125,-0.015869140625,-0.12195122241973877,0.3353658616542816,0.8841463327407837,1.2000000476837158,0.8999999761581421,-7.949999809265137,36.718692779541016,0,
 916221,-0.280517578125,-0.9404296875,-0.015380859375,-0.5792682766914368,0.27439025044441223,0.4878048896789551,0.75,1.0499999523162842,-6.75,36.67076873779297,0,
 916231,-0.282958984375,-0.93408203125,-0.011962890625,-1.0060975551605225,0.12195122241973877,0.3048780560493469,1.5,3.450000047683716,-8.550000190734863,36.718692779541016,0,
 916241,-0.27783203125,-0.939208984375,-0.01513671875,-1.2195122241973877,0.5182926654815674,-0.4573170840740204,1.5,1.9500000476837158,-7.800000190734863,36.57492446899414,0,
 916251,-0.28125,-0.940185546875,-0.019775390625,-1.7073171138763428,0.4573170840740204,-0.5182926654815674,1.5,1.9500000476837158,-7.800000190734863,36.527000427246094,0,
 916261,-0.283203125,-0.940673828125,-0.015380859375,-1.9512195587158203,0.7317073345184326,-1.097561001777649,1.649999976158142,3.75,-9.149999618530273,36.67076873779297,0,
 916271,-0.27197265625,-0.9375,-0.022216796875,-2.0426828861236572,0.4878048896789551,-0.3048780560493469,1.7999999523162842,1.9500000476837158,-8.550000190734863,36.57492446899414,0,
 916281,-0.278076171875,-0.943359375,-0.02001953125,-1.3109756708145142,0.7317073345184326,-0.4573170840740204,0.8999999761581421,1.649999976158142,-7.949999809265137,36.57492446899414,0,
 916291,-0.28076171875,-0.93505859375,-0.031982421875,-1.097561001777649,0.12195122241973877,0.21341463923454285,0.44999998807907104,0.15000000596046448,-7.199999809265137,36.86246109008789,0,
 916301,-0.27734375,-0.93896484375,-0.030029296875,-0.4878048896789551,0.24390244483947754,0.8536585569381714,0.44999998807907104,0.15000000596046448,-7.199999809265137,36.47908020019531,0,
 916311,-0.28173828125,-0.931396484375,-0.027587890625,-0.060975611209869385,-0.09146341681480408,1.0670732259750366,1.2000000476837158,0.44999998807907104,-7.650000095367432,36.718692779541016,0,
 916321,-0.28271484375,-0.9365234375,-0.025390625,0.27439025044441223,-0.21341463923454285,1.0670732259750366,1.0499999523162842,1.0499999523162842,-9.75,36.527000427246094,0,
 916331,-0.28076171875,-0.934326171875,-0.019775390625,0.5182926654815674,-0.09146341681480408,0.7012194991111755,2.0999999046325684,0.8999999761581421,-10.199999809265137,36.718692779541016,0,
 916341,-0.28173828125,-0.938232421875,-0.01318359375,0.4573170840740204,-0.030487805604934692,0.8536585569381714,2.0999999046325684,0.8999999761581421,-10.199999809265137,36.718692779541016,0,
 916351,-0.282958984375,-0.93505859375,-0.013916015625,-0.3353658616542816,0.060975611209869385,0.3353658616542816,0.8999999761581421,1.350000023841858,-9.149999618530273,36.527000427246094,0,
 916361,-0.28857421875,-0.939208984375,-0.01513671875,-0.792682945728302,0.15243902802467346,0.0,0.8999999761581421,1.649999976158142,-8.699999809265137,36.814537048339844,0,
 916371,-0.2802734375,-0.9375,-0.0185546875,-0.4573170840740204,0.6097561120986938,-0.6402438879013062,2.4000000953674316,2.0999999046325684,-8.399999618530273,36.718692779541016,0,
 916381,-0.2763671875,-0.927734375,-0.02392578125,-0.6097561120986938,0.396341472864151,-0.8231707215309143,0.75,0.30000001192092896,-8.25,36.57492446899414,0,
 916391,-0.2734375,-0.937255859375,-0.019775390625,-0.6097561120986938,0.5792682766914368,-0.6097561120986938,0.75,0.30000001192092896,-8.25,36.67076873779297,0,
 916401,-0.279296875,-0.934814453125,-0.0234375,-0.7317073345184326,0.4573170840740204,-0.18292683362960815,1.649999976158142,1.350000023841858,-8.699999809265137,36.527000427246094,0,
 916411,-0.27392578125,-0.94091796875,-0.02490234375,-0.27439025044441223,0.12195122241973877,0.3353658616542816,2.25,1.0499999523162842,-9.75,36.718692779541016,0,
 916421,-0.278076171875,-0.94384765625,-0.03271484375,-0.4573170840740204,0.27439025044441223,0.8231707215309143,0.30000001192092896,0.30000001192092896,-7.5,36.814537048339844,0,
 916431,-0.281982421875,-0.943115234375,-0.029296875,0.3658536672592163,0.060975611209869385,1.1890244483947754,-0.15000000596046448,0.8999999761581421,-7.949999809265137,36.57492446899414,0,
 916441,-0.28173828125,-0.940185546875,-0.016357421875,0.8231707215309143,0.030487805604934692,1.2804877758026123,-0.15000000596046448,0.8999999761581421,-7.949999809265137,36.57492446899414,0,
 916451,-0.28564453125,-0.939208984375,-0.0146484375,0.3353658616542816,0.030487805604934692,1.1280487775802612,1.649999976158142,1.350000023841858,-7.949999809265137,36.57492446899414,0,
 916461,-0.28466796875,-0.94287109375,-0.012939453125,0.12195122241973877,0.12195122241973877,0.6707317233085632,-0.15000000596046448,0.44999998807907104,-6.900000095367432,36.67076873779297,0,
 916471,-0.28369140625,-0.939697265625,-0.013671875,-0.5182926654815674,0.12195122241973877,0.4878048896789551,2.25,-1.0499999523162842,-9.0,36.67076873779297,0,
 916482,-0.28271484375,-0.940673828125,-0.0126953125,-0.9451219439506531,0.5182926654815674,-0.3353658616542816,2.25,-1.0499999523162842,-9.0,36.814537048339844,0,
 916492,-0.281005859375,-0.935791015625,-0.01806640625,-1.3414634466171265,0.4573170840740204,-0.6707317233085632,1.2000000476837158,1.649999976158142,-6.900000095367432,36.91038513183594,0,
 916502,-0.2841796875,-0.934326171875,-0.01953125,-1.4939024448394775,0.9756097793579102,-0.7317073345184326,1.7999999523162842,2.700000047683716,-9.0,36.527000427246094,0,
 916512,-0.2763671875,-0.941650390625,-0.02197265625,-1.402438998222351,0.8536585569381714,-0.9451219439506531,0.15000000596046448,3.299999952316284,-6.900000095367432,36.718692779541016,0,
 916522,-0.27392578125,-0.93603515625,-0.017822265625,-1.7073171138763428,0.7317073345184326,-0.4268292784690857,1.649999976158142,1.649999976158142,-6.449999809265137,36.814537048339844,0,
 916532,-0.272216796875,-0.93798828125,-0.0244140625,-1.5243902206420898,0.396341472864151,0.4268292784690857,1.649999976158142,1.649999976158142,-6.449999809265137,36.67076873779297,0,
 916542,-0.28173828125,-0.936279296875,-0.033203125,-0.6097561120986938,0.4268292784690857,0.6097561120986938,0.15000000596046448,1.649999976158142,-8.699999809265137,36.57492446899414,0,
 916552,-0.275146484375,-0.9384765625,-0.024169921875,-0.21341463923454285,0.3048780560493469,1.25,1.649999976158142,2.0999999046325684,-9.149999618530273,36.57492446899414,0,
 916562,-0.2822265625,-0.93603515625,-0.023681640625,0.7012194991111755,0.27439025044441223,1.3414634466171265,1.2000000476837158,2.549999952316284,-9.149999618530273,36.814537048339844,0,
 916572,-0.281494140625,-0.935302734375,-0.023681640625,0.5792682766914368,-0.060975611209869385,0.8841463327407837,1.2000000476837158,2.549999952316284,-9.149999618530273,36.718692779541016,0,
 916582,-0.2822265625,-0.9404296875,-0.0146484375,0.3353658616542816,0.12195122241973877,0.9146341681480408,0.0,1.9500000476837158,-8.25,36.47908020019531,0,
 916592,-0.28515625,-0.93212890625,-0.009521484375,0.030487805604934692,0.0,0.3353658616542816,0.75,1.5,-7.5,36.527000427246094,0,
 916602,-0.282958984375,-0.9443359375,-0.017578125,-0.5487805008888245,0.3048780560493469,0.12195122241973877,0.30000001192092896,1.0499999523162842,-6.0,36.38323211669922,0,
 916612,-0.283935546875,-0.935302734375,-0.018310546875,-1.3719512224197388,0.6097561120986938,-0.7012194991111755,1.2000000476837158,2.549999952316284,-9.449999809265137,36.57492446899414,0,
 916622,-0.281982421875,-0.932373046875,-0.0224609375,-0.8536585569381714,0.5182926654815674,-0.9146341681480408,1.2000000476837158,2.549999952316284,-9.449999809265137,36.718692779541016,0,
 916632,-0.276123046875,-0.939697265625,-0.021240234375,-1.1890244483947754,0.4878048896789551,-0.3353658616542816,0.44999998807907104,1.649999976158142,-9.149999618530273,36.67076873779297,0,
 916642,-0.27685546875,-0.94140625,-0.02099609375,-0.9451219439506531,0.4573170840740204,0.030487805604934692,0.0,1.9500000476837158,-8.550000190734863,36.57492446899414,0,
 916652,-0.276611328125,-0.939208984375,-0.025390625,-0.792682945728302,0.18292683362960815,0.6097561120986938,1.0499999523162842,1.9500000476837158,-8.550000190734863,36.57492446899414,0,
 916662,-0.281982421875,-0.9365234375,-0.027099609375,0.0,0.4268292784690857,0.5487805008888245,3.299999952316284,1.0499999523162842,-8.550000190734863,36.814537048339844,0,
 916672,-0.278564453125,-0.94140625,-0.02490234375,0.4268292784690857,0.24390244483947754,1.1890244483947754,3.299999952316284,1.0499999523162842,-8.550000190734863,36.718692779541016,0,
 916682,-0.280029296875,-0.93212890625,-0.0166015625,0.6707317233085632,0.0,1.097561001777649,0.15000000596046448,0.8999999761581421,-9.449999809265137,36.718692779541016,0,
 916692,-0.283935546875,-0.940185546875,-0.0185546875,0.3048780560493469,-0.09146341681480408,0.9146341681480408,0.0,2.25,-8.25,36.718692779541016,0,
 916702,-0.28173828125,-0.933349609375,-0.0146484375,-0.09146341681480408,-0.030487805604934692,0.6707317233085632,1.2000000476837158,1.350000023841858,-8.699999809265137,36.718692779541016,0,
 916712,-0.283203125,-0.93798828125,-0.01904296875,-0.5792682766914368,0.12195122241973877,0.09146341681480408,1.2000000476837158,1.350000023841858,-8.699999809265137,36.57492446899414,0,
 916722,-0.282958984375,-0.9384765625,-0.0166015625,-0.8841463327407837,0.21341463923454285,0.21341463923454285,-0.30000001192092896,1.9500000476837158,-8.25,36.67076873779297,0,
 916732,-0.281982421875,-0.9365234375,-0.0185546875,-1.0060975551605225,0.27439025044441223,-0.09146341681480408,1.7999999523162842,2.25,-8.25,36.67076873779297,0,
 916742,-0.279541015625,-0.93212890625,-0.021484375,-1.0060975551605225,0.18292683362960815,-0.6707317233085632,0.0,2.700000047683716,-7.050000190734863,36.47908020019531,0,
 916752,-0.27587890625,-0.933837890625,-0.015869140625,-0.9756097793579102,0.5792682766914368,-0.030487805604934692,1.7999999523162842,1.0499999523162842,-7.5,36.814537048339844,0,
 916762,-0.277587890625,-0.936767578125,-0.016845703125,-0.792682945728302,0.27439025044441223,-0.030487805604934692,1.7999999523162842,1.0499999523162842,-7.5,36.718692779541016,0,
 916772,-0.27734375,-0.93408203125,-0.0263671875,-0.7012194991111755,0.27439025044441223,0.27439025044441223,-0.75,3.450000047683716,-7.5,36.67076873779297,0,
 916782,-0.278564453125,-0.94091796875,-0.023681640625,-0.3048780560493469,0.27439025044441223,0.7012194991111755,1.649999976158142,0.44999998807907104,-9.899999618530273,36.38323211669922,0,
 916792,-0.278076171875,-0.9365234375,-0.023681640625,-0.12195122241973877,0.18292683362960815,0.7621951103210449,-0.15000000596046448,1.649999976158142,-6.449999809265137,36.814537048339844,0,
 916802,-0.280517578125,-0.941162109375,-0.0234375,-0.060975611209869385,0.24390244483947754,0.8841463327407837,-0.15000000596046448,1.649999976158142,-6.449999809265137,36.527000427246094,0,
 916812,-0.280029296875,-0.9384765625,-0.0224609375,0.5182926654815674,0.060975611209869385,0.9146341681480408,0.30000001192092896,1.9500000476837158,-7.800000190734863,36.718692779541016,0,
 916822,-0.283203125,-0.938720703125,-0.017578125,0.3048780560493469,0.24390244483947754,0.6402438879013062,1.2000000476837158,1.350000023841858,-7.650000095367432,36.814537048339844,0,
 916832,-0.284423828125,-0.94287109375,-0.020751953125,-0.5182926654815674,0.3353658616542816,-0.09146341681480408,1.5,1.9500000476837158,-8.550000190734863,36.47908020019531,0,
 916842,-0.283935546875,-0.93896484375,-0.02099609375,-0.3658536672592163,0.21341463923454285,-0.396341472864151,-0.44999998807907104,1.350000023841858,-9.149999618530273,36.38323211669922,0,
 916852,-0.285888671875,-0.93310546875,-0.0166015625,-0.792682945728302,0.3353658616542816,-0.396341472864151,-0.44999998807907104,1.350000023841858,-9.149999618530273,36.718692779541016,0,
 916862,-0.28173828125,-0.93359375,-0.02001953125,-1.0365853309631348,0.5487805008888245,-0.6402438879013062,1.649999976158142,1.649999976158142,-8.399999618530273,36.718692779541016,0,
 916872,-0.279052734375,-0.940185546875,-0.024169921875,-1.2195122241973877,0.4268292784690857,-0.3658536672592163,2.8499999046325684,1.649999976158142,-7.949999809265137,36.67076873779297,0,
 916882,-0.27490234375,-0.943359375,-0.028076171875,-1.4634146690368652,0.3658536672592163,0.0,2.549999952316284,-0.30000001192092896,-9.75,36.814537048339844,0,
 916892,-0.2763671875,-0.93798828125,-0.02978515625,-0.7317073345184326,0.5792682766914368,0.7317073345184326,1.7999999523162842,2.25,-7.5,36.1915397644043,0,
 916902,-0.276611328125,-0.932861328125,-0.025146484375,-0.18292683362960815,0.060975611209869385,0.8536585569381714,1.7999999523162842,2.25,-7.5,36.718692779541016,0,
 916912,-0.27490234375,-0.9326171875,-0.023681640625,0.18292683362960815,0.3048780560493469,1.1280487775802612,1.5,0.0,-7.5,36.67076873779297,0,
 916922,-0.287109375,-0.93359375,-0.0185546875,-0.030487805604934692,0.060975611209869385,1.2195122241973877,2.0999999046325684,2.8499999046325684,-7.650000095367432,36.527000427246094,0,
 916932,-0.2822265625,-0.932373046875,-0.0185546875,-0.18292683362960815,0.15243902802467346,1.2195122241973877,-0.44999998807907104,2.549999952316284,-8.699999809265137,36.57492446899414,0,
 916942,-0.28271484375,-0.93310546875,-0.012939453125,-0.24390244483947754,0.15243902802467346,0.7012194991111755,-0.44999998807907104,2.549999952316284,-8.699999809265137,36.47908020019531,0,
 916952,-0.28515625,-0.93359375,-0.02001953125,-0.7621951103210449,0.15243902802467346,0.21341463923454285,-0.15000000596046448,2.0999999046325684,-8.699999809265137,36.57492446899414,0,
 916962,-0.27880859375,-0.935791015625,-0.014892578125,-1.1280487775802612,0.396341472864151,-0.21341463923454285,1.7999999523162842,2.25,-9.300000190734863,36.814537048339844,0,
 916972,-0.281494140625,-0.939208984375,-0.01806640625,-1.0670732259750366,0.8231707215309143,-0.5792682766914368,1.0499999523162842,0.75,-9.300000190734863,36.86246109008789,0,
 916982,-0.28076171875,-0.934814453125,-0.022705078125,-1.3109756708145142,0.5487805008888245,-0.8536585569381714,0.8999999761581421,4.5,-10.949999809265137,36.718692779541016,0,
 916992,-0.27783203125,-0.9365234375,-0.0224609375,-1.402438998222351,0.4878048896789551,-0.9146341681480408,0.8999999761581421,4.5,-10.949999809265137,36.57492446899414,0,
 917002,-0.283447265625,-0.9404296875,-0.020751953125,-1.3414634466171265,0.7012194991111755,-0.7621951103210449,0.30000001192092896,2.25,-7.050000190734863,36.57492446899414,0,
 917012,-0.27587890625,-0.93994140625,-0.029052734375,-1.097561001777649,0.6402438879013062,0.4268292784690857,0.75,1.9500000476837158,-7.050000190734863,36.814537048339844,0,
 917022,-0.2802734375,-0.9345703125,-0.02978515625,-0.4573170840740204,0.396341472864151,0.6707317233085632,0.75,1.5,-9.0,36.57492446899414,0,
 917032,-0.27685546875,-0.931884765625,-0.02587890625,-0.15243902802467346,0.24390244483947754,0.9146341681480408,0.75,1.5,-9.0,36.47908020019531,0,
 917042,-0.282470703125,-0.93310546875,-0.013671875,0.5182926654815674,0.060975611209869385,1.097561001777649,1.2000000476837158,1.649999976158142,-7.949999809265137,36.527000427246094,0,
 917052,-0.283447265625,-0.94189453125,-0.015625,0.5487805008888245,-0.3658536672592163,1.432926893234253,1.2000000476837158,-0.15000000596046448,-9.449999809265137,36.527000427246094,0,
 917062,-0.2822265625,-0.939697265625,-0.017333984375,0.030487805604934692,0.18292683362960815,0.6097561120986938,1.5,0.75,-8.25,36.527000427246094,0,
 917072,-0.283203125,-0.937255859375,-0.01171875,-0.4268292784690857,0.3658536672592163,0.5182926654815674,0.8999999761581421,1.649999976158142,-7.199999809265137,36.814537048339844,0,
 917082,-0.28173828125,-0.93408203125,-0.016845703125,-0.5182926654815674,0.3658536672592163,-0.15243902802467346,0.8999999761581421,1.649999976158142,-7.199999809265137,36.38323211669922,0,
 917092,-0.28271484375,-0.935546875,-0.015380859375,-1.097561001777649,0.5792682766914368,-0.4878048896789551,-0.8999999761581421,2.8499999046325684,-8.699999809265137,36.718692779541016,0,
 917102,-0.277587890625,-0.936767578125,-0.01904296875,-1.25,0.7317073345184326,-0.6402438879013062,1.649999976158142,1.649999976158142,-7.949999809265137,36.57492446899414,0,
 917112,-0.279541015625,-0.935791015625,-0.020751953125,-1.097561001777649,0.7317073345184326,-0.8231707215309143,1.0499999523162842,0.75,-9.300000190734863,36.814537048339844,0,
 917122,-0.2763671875,-0.944091796875,-0.014404296875,-0.9756097793579102,0.5182926654815674,-0.15243902802467346,1.0499999523162842,0.75,-9.300000190734863,36.814537048339844,0,
 917132,-0.27783203125,-0.936279296875,-0.020263671875,-0.8536585569381714,0.4268292784690857,0.15243902802467346,2.8499999046325684,2.0999999046325684,-8.699999809265137,36.527000427246094,0,
 917142,-0.27783203125,-0.936767578125,-0.021728515625,-0.7317073345184326,0.4268292784690857,0.4268292784690857,0.15000000596046448,1.649999976158142,-9.149999618530273,36.57492446899414,0,
 917152,-0.274169921875,-0.938232421875,-0.027099609375,-0.24390244483947754,0.4268292784690857,1.0670732259750366,0.75,1.5,-8.550000190734863,36.718692779541016,0,
 917162,-0.283447265625,-0.9326171875,-0.025146484375,0.15243902802467346,0.3048780560493469,1.432926893234253,1.0499999523162842,0.75,-8.550000190734863,36.814537048339844,0,
 917172,-0.280029296875,-0.938232421875,-0.021728515625,0.5792682766914368,-0.09146341681480408,1.1890244483947754,1.0499999523162842,0.75,-8.550000190734863,36.57492446899414,0,
 917182,-0.282958984375,-0.938232421875,-0.017822265625,0.12195122241973877,0.18292683362960815,1.0060975551605225,0.75,2.25,-8.25,36.47908020019531,0,
 917192,-0.28173828125,-0.940185546875,-0.013916015625,0.0,0.12195122241973877,0.9756097793579102,1.0499999523162842,-0.75,-9.300000190734863,36.718692779541016,0,
 917202,-0.28271484375,-0.934326171875,-0.013427734375,-0.5792682766914368,0.4268292784690857,0.15243902802467346,0.15000000596046448,2.8499999046325684,-8.699999809265137,36.57492446899414,0,
 917212,-0.2861328125,-0.936767578125,-0.01416015625,-0.5487805008888245,0.6402438879013062,-0.27439025044441223,1.649999976158142,1.649999976158142,-8.399999618530273,36.57492446899414,0,
 917222,-0.280517578125,-0.937255859375,-0.01416015625,-1.25,0.6097561120986938,-0.4878048896789551,1.649999976158142,1.649999976158142,-8.399999618530273,36.67076873779297,0,
 917232,-0.28173828125,-0.936767578125,-0.017578125,-1.3414634466171265,0.792682945728302,-0.5487805008888245,0.75,1.9500000476837158,-8.25,36.57492446899414,0,
 917242,-0.275146484375,-0.93359375,-0.028076171875,-1.5243902206420898,0.7317073345184326,-0.6097561120986938,1.7999999523162842,2.25,-6.75,36.718692779541016,0,
 917253,-0.2802734375,-0.935546875,-0.02099609375,-1.3109756708145142,0.5792682766914368,-0.060975611209869385,0.75,1.0499999523162842,-7.5,36.57492446899414,0,
 917263,-0.27490234375,-0.94384765625,-0.023193359375,-0.8231707215309143,0.3658536672592163,0.060975611209869385,0.75,1.0499999523162842,-7.5,36.718692779541016,0,
 917273,-0.27783203125,-0.936279296875,-0.0322265625,-0.21341463923454285,0.3658536672592163,1.097561001777649,0.8999999761581421,1.350000023841858,-9.449999809265137,36.718692779541016,0,
 917283,-0.28125,-0.941650390625,-0.028076171875,0.27439025044441223,0.09146341681480408,1.2804877758026123,0.44999998807907104,1.649999976158142,-7.949999809265137,36.527000427246094,0,
 917293,-0.28271484375,-0.93603515625,-0.021240234375,0.6707317233085632,0.21341463923454285,1.2195122241973877,0.15000000596046448,0.44999998807907104,-10.649999618530273,36.814537048339844,0,
 917303,-0.285400390625,-0.936767578125,-0.013671875,0.3658536672592163,0.030487805604934692,0.9756097793579102,0.44999998807907104,2.0999999046325684,-8.699999809265137,36.814537048339844,0,
 917313,-0.2802734375,-0.93408203125,-0.0166015625,0.27439025044441223,0.0,0.18292683362960815,0.44999998807907104,2.0999999046325684,-8.699999809265137,36.718692779541016,0,
 917323,-0.287109375,-0.939208984375,-0.012939453125,-0.6097561120986938,0.3353658616542816,0.18292683362960815,2.0999999046325684,1.350000023841858,-7.650000095367432,36.86246109008789,0,
 917333,-0.28662109375,-0.93408203125,-0.013671875,-0.5182926654815674,0.6402438879013062,-0.5182926654815674,0.44999998807907104,2.549999952316284,-7.199999809265137,36.527000427246094,0,
 917343,-0.28125,-0.9365234375,-0.01904296875,-1.3719512224197388,0.6707317233085632,-0.6707317233085632,1.0499999523162842,1.5,-9.300000190734863,36.57492446899414,0,
 917353,-0.278564453125,-0.936279296875,-0.02490234375,-1.7073171138763428,0.5182926654815674,-0.9146341681480408,1.0499999523162842,1.5,-9.300000190734863,36.57492446899414,0,
 917363,-0.276123046875,-0.93359375,-0.02099609375,-1.4939024448394775,0.7012194991111755,-0.9146341681480408,1.0499999523162842,1.0499999523162842,-8.25,36.814537048339844,0,
 917373,-0.28564453125,-0.938232421875,-0.0244140625,-1.3719512224197388,0.5792682766914368,-0.5792682766914368,1.2000000476837158,0.44999998807907104,-8.399999618530273,36.814537048339844,0,
 917383,-0.282470703125,-0.939453125,-0.021484375,-1.0670732259750366,0.396341472864151,0.396341472864151,2.0999999046325684,1.649999976158142,-6.449999809265137,36.47908020019531,0,
 917393,-0.278076171875,-0.938232421875,-0.029296875,-0.8841463327407837,0.396341472864151,0.6097561120986938,2.4000000953674316,4.5,-11.699999809265137,36.57492446899414,0,
 917403,-0.282958984375,-0.93505859375,-0.02978515625,-0.09146341681480408,0.15243902802467346,1.097561001777649,2.4000000953674316,4.5,-11.699999809265137,36.67076873779297,0,
 917413,-0.279296875,-0.939453125,-0.023193359375,0.09146341681480408,0.18292683362960815,1.0060975551605225,1.649999976158142,1.649999976158142,-7.650000095367432,36.718692779541016,0,
 917423,-0.2822265625,-0.935791015625,-0.02001953125,0.3353658616542816,0.060975611209869385,1.402438998222351,0.75,1.0499999523162842,-7.800000190734863,36.67076873779297,0,
 917433,-0.283935546875,-0.9365234375,-0.01904296875,0.3353658616542816,0.24390244483947754,0.7012194991111755,0.15000000596046448,1.649999976158142,-9.449999809265137,36.57492446899414,0,
 917443,-0.2841796875,-0.935546875,-0.021484375,-0.6707317233085632,0.15243902802467346,0.7317073345184326,1.2000000476837158,2.0999999046325684,-8.699999809265137,36.57492446899414,0,
 917453,-0.2783203125,-0.935791015625,-0.0224609375,-0.3353658616542816,0.24390244483947754,0.4573170840740204,1.2000000476837158,2.0999999046325684,-8.699999809265137,36.527000427246094,0,
 917463,-0.2802734375,-0.9384765625,-0.01904296875,-0.4878048896789551,0.4878048896789551,-0.060975611209869385,0.15000000596046448,3.299999952316284,-9.449999809265137,36.47908020019531,0,
 917473,-0.277587890625,-0.938232421875,-0.02197265625,-1.0060975551605225,0.4573170840740204,-0.5487805008888245,0.75,1.0499999523162842,-8.25,36.527000427246094,0,
 917483,-0.279052734375,-0.942626953125,-0.01953125,-1.1280487775802612,0.5487805008888245,-0.3353658616542816,1.7999999523162842,1.5,-7.5,36.86246109008789,0,
 917493,-0.27783203125,-0.933837890625,-0.024169921875,-0.9756097793579102,0.4878048896789551,-0.3353658616542816,1.7999999523162842,1.5,-7.5,36.67076873779297,0,
 917503,-0.277099609375,-0.935546875,-0.023681640625,-0.9451219439506531,0.5182926654815674,0.5487805008888245,0.8999999761581421,0.44999998807907104,-8.399999618530273,36.67076873779297,0,
 917513,-0.279296875,-0.935791015625,-0.02734375,-0.5487805008888245,0.15243902802467346,0.7317073345184326,1.2000000476837158,1.350000023841858,-9.449999809265137,36.86246109008789,0,
 917523,-0.281494140625,-0.940185546875,-0.02734375,0.09146341681480408,0.060975611209869385,1.1280487775802612,0.44999998807907104,1.649999976158142,-7.650000095367432,36.38323211669922,0,
 917533,-0.275390625,-0.93701171875,-0.025390625,0.396341472864151,-0.21341463923454285,0.9146341681480408,1.0499999523162842,3.1500000953674316,-8.25,36.527000427246094,0,
 917543,-0.286376953125,-0.935546875,-0.018310546875,0.3048780560493469,0.060975611209869385,0.4268292784690857,1.0499999523162842,3.1500000953674316,-8.25,36.57492446899414,0,
 917553,-0.287841796875,-0.935302734375,-0.017578125,-0.3048780560493469,0.09146341681480408,0.060975611209869385,-0.15000000596046448,2.8499999046325684,-7.650000095367432,36.57492446899414,0,
 917563,-0.28125,-0.943359375,-0.014892578125,-0.8536585569381714,0.6402438879013062,-0.396341472864151,0.75,0.75,-8.25,36.57492446899414,0,
 917573,-0.283203125,-0.931640625,-0.015625,-1.3109756708145142,0.8841463327407837,-0.5182926654815674,1.0499999523162842,2.25,-8.550000190734863,36.527000427246094,0,
 917583,-0.27978515625,-0.94091796875,-0.012451171875,-1.432926893234253,0.6707317233085632,-0.8231707215309143,1.0499999523162842,2.25,-8.550000190734863,36.814537048339844,0,
 917593,-0.279296875,-0.93408203125,-0.020263671875,-1.6463414430618286,0.8231707215309143,-0.792682945728302,1.2000000476837158,0.44999998807907104,-7.949999809265137,36.57492446899414,0,
 917603,-0.275146484375,-0.9345703125,-0.021728515625,-1.3109756708145142,0.7621951103210449,-0.396341472864151,-0.15000000596046448,3.299999952316284,-7.199999809265137,36.814537048339844,0,
 917613,-0.274169921875,-0.94482421875,-0.027099609375,-0.7621951103210449,0.3658536672592163,0.18292683362960815,0.0,2.700000047683716,-7.800000190734863,36.86246109008789,0,
 917623,-0.277587890625,-0.942138671875,-0.02490234375,-0.9146341681480408,0.5182926654815674,0.5487805008888245,1.649999976158142,0.15000000596046448,-9.149999618530273,36.527000427246094,0,
 917633,-0.27197265625,-0.93701171875,-0.029052734375,-0.396341472864151,0.18292683362960815,1.2804877758026123,1.649999976158142,0.15000000596046448,-9.149999618530273,36.718692779541016,0,
 917643,-0.281494140625,-0.936279296875,-0.032958984375,0.5792682766914368,0.09146341681480408,1.4634146690368652,0.15000000596046448,1.649999976158142,-7.650000095367432,36.718692779541016,0,
 917653,-0.280517578125,-0.931640625,-0.025146484375,0.4268292784690857,0.030487805604934692,1.1890244483947754,0.0,1.9500000476837158,-7.5,36.718692779541016,0,
 917663,-0.281494140625,-0.93310546875,-0.017578125,0.4268292784690857,0.24390244483947754,0.8231707215309143,0.75,3.1500000953674316,-7.800000190734863,36.67076873779297,0,
 917673,-0.2861328125,-0.93798828125,-0.014892578125,0.09146341681480408,0.09146341681480408,0.5487805008888245,0.44999998807907104,1.350000023841858,-7.650000095367432,36.57492446899414,0,
 917683,-0.279296875,-0.9365234375,-0.015625,-0.9451219439506531,0.5487805008888245,0.09146341681480408,0.44999998807907104,1.350000023841858,-7.650000095367432,36.527000427246094,0,
 917693,-0.281494140625,-0.938720703125,-0.0205078125,-0.9756097793579102,0.4573170840740204,-0.4573170840740204,0.30000001192092896,1.5,-7.5,36.57492446899414,0,
 917703,-0.28173828125,-0.93359375,-0.01611328125,-1.1890244483947754,0.7012194991111755,-0.9451219439506531,0.44999998807907104,0.44999998807907104,-9.899999618530273,36.718692779541016,0,
 917713,-0.280029296875,-0.93701171875,-0.020751953125,-1.1280487775802612,0.6402438879013062,-1.1280487775802612,-0.15000000596046448,1.649999976158142,-7.650000095367432,36.718692779541016,0,
 917723,-0.279296875,-0.939453125,-0.021240234375,-1.1585365533828735,0.7317073345184326,-0.8841463327407837,-0.15000000596046448,1.649999976158142,-7.650000095367432,36.47908020019531,0,
 917733,-0.278564453125,-0.943359375,-0.0224609375,-1.097561001777649,0.5792682766914368,-0.396341472864151,0.75,0.75,-8.25,36.814537048339844,0,
 917743,-0.275634765625,-0.93994140625,-0.03466796875,-0.8536585569381714,0.5182926654815674,0.3353658616542816,0.15000000596046448,2.549999952316284,-7.949999809265137,36.718692779541016,0,
 917753,-0.27978515625,-0.935302734375,-0.02978515625,-0.3353658616542816,0.5792682766914368,1.097561001777649,0.0,2.700000047683716,-9.300000190734863,36.57492446899414,0,
 917763,-0.282470703125,-0.936279296875,-0.022705078125,0.3658536672592163,-0.030487805604934692,1.402438998222351,0.75,1.5,-8.550000190734863,36.718692779541016,0,
 917773,-0.282470703125,-0.937255859375,-0.0244140625,0.9451219439506531,-0.030487805604934692,1.3109756708145142,0.75,1.5,-8.550000190734863,36.47908020019531,0,
 917783,-0.284912109375,-0.936279296875,-0.013671875,0.792682945728302,-0.060975611209869385,1.3719512224197388,0.75,2.700000047683716,-9.75,36.814537048339844,0,
 917793,-0.28955078125,-0.93701171875,-0.010498046875,-0.18292683362960815,0.0,0.6402438879013062,0.30000001192092896,2.25,-8.25,36.57492446899414,0,
 917803,-0.28662109375,-0.9404296875,-0.0107421875,-0.4268292784690857,0.5182926654815674,0.4878048896789551,1.7999999523162842,2.700000047683716,-9.0,36.57492446899414,0,
 917813,-0.287841796875,-0.9375,-0.015380859375,-1.25,0.6707317233085632,0.030487805604934692,1.7999999523162842,2.700000047683716,-9.0,36.57492446899414,0,
 917823,-0.28271484375,-0.934814453125,-0.023193359375,-1.1280487775802612,1.0060975551605225,-0.4878048896789551,0.30000001192092896,0.0,-8.25,36.527000427246094,0,
 917833,-0.279296875,-0.93505859375,-0.015380859375,-1.2804877758026123,0.5182926654815674,-0.8536585569381714,0.8999999761581421,0.8999999761581421,-7.650000095367432,36.57492446899414,0,
 917843,-0.2783203125,-0.9384765625,-0.023193359375,-1.3719512224197388,0.6707317233085632,-1.0365853309631348,1.5,3.1500000953674316,-9.300000190734863,36.718692779541016,0,
 917853,-0.281005859375,-0.939697265625,-0.0185546875,-1.3109756708145142,0.6097561120986938,-0.7317073345184326,0.8999999761581421,1.649999976158142,-7.949999809265137,36.527000427246094,0,
 917863,-0.279541015625,-0.939697265625,-0.02392578125,-1.4634146690368652,0.24390244483947754,-0.15243902802467346,0.8999999761581421,1.649999976158142,-7.949999809265137,36.814537048339844,0,
 917873,-0.2822265625,-0.93603515625,-0.030029296875,-1.0365853309631348,0.3048780560493469,0.4268292784690857,0.75,1.5,-7.050000190734863,36.47908020019531,0,
 917883,-0.2763671875,-0.9326171875,-0.031982421875,-0.5182926654815674,0.18292683362960815,1.0060975551605225,1.7999999523162842,2.25,-6.300000190734863,36.67076873779297,0,
 917903,-0.28369140625,-0.933837890625,-0.016845703125,0.24390244483947754,-0.12195122241973877,1.2804877758026123,0.0,1.0499999523162842,-8.550000190734863,36.718692779541016,0,
 917913,-0.284423828125,-0.93994140625,-0.018798828125,0.18292683362960815,0.030487805604934692,0.6707317233085632,0.0,1.0499999523162842,-8.550000190734863,36.718692779541016,0,
 917923,-0.287841796875,-0.939697265625,-0.016357421875,-0.060975611209869385,0.27439025044441223,0.396341472864151,0.75,2.25,-9.300000190734863,36.814537048339844,0,
 917933,-0.2822265625,-0.935302734375,-0.018310546875,-0.21341463923454285,0.3048780560493469,0.12195122241973877,0.0,2.25,-6.0,36.67076873779297,0,
 917943,-0.28173828125,-0.93505859375,-0.017822265625,-1.1585365533828735,0.5487805008888245,-0.5182926654815674,0.0,4.650000095367432,-7.5,36.718692779541016,0,
 917953,-0.27978515625,-0.934814453125,-0.024169921875,-1.1280487775802612,0.396341472864151,-0.5487805008888245,0.0,4.650000095367432,-7.5,36.718692779541016,0,
 917963,-0.284423828125,-0.93603515625,-0.02490234375,-0.9756097793579102,0.4878048896789551,-0.7012194991111755,1.2000000476837158,0.8999999761581421,-7.650000095367432,36.814537048339844,0,
 917973,-0.27685546875,-0.939208984375,-0.012939453125,-1.2195122241973877,0.5487805008888245,-0.18292683362960815,0.75,1.5,-7.800000190734863,36.718692779541016,0,
 917984,-0.27880859375,-0.939453125,-0.030517578125,-0.6402438879013062,0.18292683362960815,0.8231707215309143,-0.30000001192092896,0.0,-9.0,36.718692779541016,0,
 917994,-0.280029296875,-0.940185546875,-0.0322265625,-0.3048780560493469,0.21341463923454285,1.1280487775802612,0.15000000596046448,2.0999999046325684,-8.699999809265137,36.718692779541016,0,
 918004,-0.27490234375,-0.9345703125,-0.0302734375,0.4573170840740204,-0.030487805604934692,0.9451219439506531,0.15000000596046448,2.0999999046325684,-8.699999809265137,36.527000427246094,0,
 918014,-0.282958984375,-0.93603515625,-0.02294921875,0.9146341681480408,-0.27439025044441223,1.3414634466171265,0.0,0.75,-7.5,36.718692779541016,0,
 918024,-0.280517578125,-0.944091796875,-0.015869140625,0.7012194991111755,-0.21341463923454285,0.7012194991111755,-0.15000000596046448,2.8499999046325684,-6.150000095367432,36.57492446899414,0,
 918034,-0.281982421875,-0.9375,-0.0185546875,0.3658536672592163,0.3048780560493469,0.6707317233085632,0.75,3.450000047683716,-8.25,36.57492446899414,0,
 918044,-0.288818359375,-0.939697265625,-0.015625,-0.24390244483947754,0.060975611209869385,0.4878048896789551,0.75,3.450000047683716,-8.25,36.718692779541016,0,
 918054,-0.286376953125,-0.935546875,-0.01708984375,-0.8841463327407837,0.4268292784690857,-0.15243902802467346,0.75,2.700000047683716,-9.0,36.57492446899414,0,
 918064,-0.284912109375,-0.934326171875,-0.013916015625,-1.097561001777649,0.6707317233085632,-0.396341472864151,0.44999998807907104,2.0999999046325684,-7.949999809265137,36.38323211669922,0,
 918074,-0.28466796875,-0.93359375,-0.012451171875,-1.097561001777649,0.9146341681480408,-0.6707317233085632,1.5,1.0499999523162842,-7.5,37.006229400634766,0,
 918084,-0.28125,-0.936279296875,-0.014892578125,-1.1280487775802612,0.6402438879013062,-0.5487805008888245,0.44999998807907104,0.15000000596046448,-8.699999809265137,36.57492446899414,0,
 918094,-0.2724609375,-0.93798828125,-0.01806640625,-1.2195122241973877,0.6707317233085632,-0.24390244483947754,0.44999998807907104,0.15000000596046448,-8.699999809265137,36.67076873779297,0,
 918104,-0.279052734375,-0.93798828125,-0.02001953125,-0.9756097793579102,0.24390244483947754,0.4268292784690857,2.8499999046325684,3.299999952316284,-8.699999809265137,36.91038513183594,0,
 918114,-0.27978515625,-0.9375,-0.025390625,-0.5792682766914368,0.5182926654815674,0.7317073345184326,1.7999999523162842,1.9500000476837158,-9.300000190734863,36.28738784790039,0,
 918124,-0.283935546875,-0.9375,-0.02294921875,-0.060975611209869385,0.24390244483947754,1.25,0.44999998807907104,2.0999999046325684,-7.199999809265137,36.67076873779297,0,
 918134,-0.283935546875,-0.934326171875,-0.021728515625,0.3658536672592163,0.030487805604934692,1.1585365533828735,1.0499999523162842,0.75,-7.050000190734863,36.718692779541016,0,
 918144,-0.2841796875,-0.92724609375,-0.015869140625,0.6707317233085632,-0.12195122241973877,1.25,0.44999998807907104,2.549999952316284,-7.949999809265137,36.57492446899414,0,
 918154,-0.286376953125,-0.93603515625,-0.011962890625,0.060975611209869385,-0.12195122241973877,0.8841463327407837,0.30000001192092896,0.0,-8.25,36.814537048339844,0,
 918164,-0.284423828125,-0.934326171875,-0.01171875,0.030487805604934692,0.15243902802467346,0.9146341681480408,1.5,1.5,-7.050000190734863,36.47908020019531,0,
 918174,-0.285888671875,-0.935791015625,-0.0146484375,-0.6707317233085632,0.4878048896789551,0.060975611209869385,0.0,2.25,-7.800000190734863,36.57492446899414,0,
 918184,-0.284423828125,-0.93359375,-0.02099609375,-1.0670732259750366,0.3353658616542816,-0.396341472864151,0.0,2.25,-7.800000190734863,36.67076873779297,0,
 918194,-0.2802734375,-0.9296875,-0.021728515625,-0.8536585569381714,0.396341472864151,-0.5487805008888245,1.5,3.450000047683716,-7.050000190734863,36.814537048339844,0,
 918204,-0.27783203125,-0.939453125,-0.01806640625,-0.8841463327407837,0.6097561120986938,-0.3658536672592163,1.5,0.75,-9.300000190734863,36.57492446899414,0,
 918214,-0.280517578125,-0.93896484375,-0.021240234375,-1.0365853309631348,0.3353658616542816,-0.18292683362960815,0.0,3.1500000953674316,-10.800000190734863,36.57492446899414,0,
 918224,-0.28125,-0.934814453125,-0.027587890625,-1.0365853309631348,0.4573170840740204,-0.18292683362960815,0.8999999761581421,2.0999999046325684,-7.650000095367432,36.57492446899414,0,
 918234,-0.276123046875,-0.93408203125,-0.0224609375,-0.6402438879013062,0.3353658616542816,0.4268292784690857,0.8999999761581421,2.0999999046325684,-7.650000095367432,36.86246109008789,0,
 918244,-0.281005859375,-0.927978515625,-0.024169921875,0.21341463923454285,0.3353658616542816,0.24390244483947754,1.649999976158142,2.549999952316284,-7.949999809265137,36.57492446899414,0,
 918254,-0.28125,-0.935546875,-0.0234375,0.4573170840740204,-0.18292683362960815,0.7012194991111755,1.649999976158142,2.549999952316284,-7.650000095367432,36.86246109008789,0,
 918264,-0.286865234375,-0.94287109375,-0.021728515625,0.3658536672592163,-0.15243902802467346,1.0060975551605225,2.4000000953674316,1.649999976158142,-8.699999809265137,36.57492446899414,0,
 918274,-0.280517578125,-0.938720703125,-0.01904296875,0.396341472864151,0.030487805604934692,0.9756097793579102,2.4000000953674316,1.649999976158142,-8.699999809265137,36.57492446899414,0,
 918284,-0.28515625,-0.937744140625,-0.02099609375,-0.09146341681480408,0.15243902802467346,0.7012194991111755,0.15000000596046448,2.0999999046325684,-7.650000095367432,36.814537048339844,0,
 918294,-0.28271484375,-0.93701171875,-0.013671875,-0.3048780560493469,0.5182926654815674,-0.030487805604934692,-0.15000000596046448,2.549999952316284,-7.199999809265137,36.814537048339844,0,
 918304,-0.276611328125,-0.94189453125,-0.0224609375,-0.6097561120986938,0.09146341681480408,-0.4268292784690857,-0.8999999761581421,2.0999999046325684,-7.949999809265137,36.718692779541016,0,
 918314,-0.278564453125,-0.937744140625,-0.01611328125,-0.9146341681480408,0.15243902802467346,-0.030487805604934692,0.8999999761581421,2.549999952316284,-7.650000095367432,36.718692779541016,0,
 918324,-0.2822265625,-0.93896484375,-0.01904296875,-0.8841463327407837,0.396341472864151,-0.3353658616542816,0.8999999761581421,2.549999952316284,-7.650000095367432,36.527000427246094,0,
 918334,-0.277587890625,-0.93603515625,-0.01953125,-0.8231707215309143,0.8841463327407837,-0.4878048896789551,1.0499999523162842,2.700000047683716,-6.75,36.57492446899414,0,
 918344,-0.27783203125,-0.94482421875,-0.019287109375,-1.3109756708145142,0.5487805008888245,-0.3658536672592163,0.44999998807907104,1.350000023841858,-6.449999809265137,36.91038513183594,0,
 918354,-0.272705078125,-0.940673828125,-0.023193359375,-1.0060975551605225,0.3048780560493469,0.060975611209869385,0.0,0.75,-8.550000190734863,36.814537048339844,0,
 918364,-0.280029296875,-0.941162109375,-0.031005859375,-0.8841463327407837,0.3353658616542816,0.4878048896789551,0.0,0.75,-8.550000190734863,36.814537048339844,0,
 918374,-0.280517578125,-0.931884765625,-0.029296875,-0.4573170840740204,0.3353658616542816,0.9756097793579102,-0.30000001192092896,1.9500000476837158,-9.0,36.718692779541016,0,
 918384,-0.279052734375,-0.933837890625,-0.021484375,-0.3048780560493469,0.24390244483947754,1.1280487775802612,1.5,0.75,-7.5,36.67076873779297,0,
 918394,-0.281494140625,-0.936767578125,-0.01806640625,0.12195122241973877,0.030487805604934692,0.5487805008888245,0.75,1.0499999523162842,-8.25,36.57492446899414,0,
 918404,-0.275634765625,-0.93505859375,-0.014404296875,-0.030487805604934692,0.21341463923454285,0.7621951103210449,1.649999976158142,2.0999999046325684,-9.449999809265137,36.814537048339844,0,
 918414,-0.28564453125,-0.942138671875,-0.015625,-0.4268292784690857,0.4268292784690857,0.4573170840740204,1.649999976158142,2.0999999046325684,-9.449999809265137,36.718692779541016,0,
 918424,-0.28369140625,-0.93603515625,-0.019287109375,-0.9451219439506531,0.6097561120986938,0.09146341681480408,2.0999999046325684,1.350000023841858,-10.949999809265137,36.57492446899414,0,
 918434,-0.283203125,-0.934814453125,-0.023193359375,-0.9756097793579102,0.6097561120986938,-0.21341463923454285,1.649999976158142,2.8499999046325684,-7.650000095367432,36.718692779541016,0,
 918444,-0.280517578125,-0.93017578125,-0.0263671875,-0.6097561120986938,0.4878048896789551,-0.24390244483947754,0.75,1.5,-7.800000190734863,36.67076873779297,0,
 918454,-0.27978515625,-0.93212890625,-0.0224609375,-0.6402438879013062,0.4573170840740204,-0.27439025044441223,-0.75,2.25,-9.0,36.527000427246094,0,
 918464,-0.277099609375,-0.9404296875,-0.02099609375,-1.097561001777649,0.4573170840740204,-0.21341463923454285,-0.75,2.25,-9.0,36.718692779541016,0,
 918474,-0.2841796875,-0.942138671875,-0.021728515625,-0.8536585569381714,0.3658536672592163,0.12195122241973877,1.0499999523162842,1.5,-8.550000190734863,36.67076873779297,0,
 918484,-0.278076171875,-0.93603515625,-0.02294921875,-0.6097561120986938,0.3658536672592163,0.15243902802467346,-0.15000000596046448,0.8999999761581421,-7.949999809265137,36.718692779541016,0,
 918494,-0.27978515625,-0.9345703125,-0.02685546875,-0.4878048896789551,0.24390244483947754,0.3353658616542816,1.649999976158142,1.649999976158142,-7.949999809265137,36.57492446899414,0,
 918504,-0.27880859375,-0.932373046875,-0.027099609375,0.09146341681480408,0.27439025044441223,0.060975611209869385,1.649999976158142,1.649999976158142,-7.949999809265137,36.57492446899414,0,
 918514,-0.275634765625,-0.93701171875,-0.015625,-0.5182926654815674,0.18292683362960815,-0.060975611209869385,-0.15000000596046448,2.0999999046325684,-7.199999809265137,36.814537048339844,0,
 918524,-0.2841796875,-0.939208984375,-0.014892578125,-0.6402438879013062,0.18292683362960815,0.4268292784690857,1.5,2.700000047683716,-10.800000190734863,36.67076873779297,0,
 918534,-0.280029296875,-0.9423828125,-0.025634765625,-0.5792682766914368,0.3353658616542816,-0.030487805604934692,0.0,1.9500000476837158,-7.800000190734863,36.718692779541016,0,
 918544,-0.28515625,-0.934814453125,-0.02392578125,-0.7621951103210449,0.3353658616542816,-0.09146341681480408,0.44999998807907104,2.0999999046325684,-9.149999618530273,36.91038513183594,0,
 918554,-0.28076171875,-0.935302734375,-0.020751953125,-0.7317073345184326,0.396341472864151,-0.4268292784690857,0.44999998807907104,2.0999999046325684,-9.149999618530273,36.527000427246094,0,
 918564,-0.280517578125,-0.93212890625,-0.02001953125,-0.6402438879013062,0.396341472864151,-0.12195122241973877,1.2000000476837158,1.649999976158142,-8.399999618530273,36.67076873779297,0,
 918574,-0.282470703125,-0.932373046875,-0.0205078125,-0.6402438879013062,-0.060975611209869385,0.3048780560493469,1.0499999523162842,1.5,-8.25,36.718692779541016,0,
 918584,-0.2802734375,-0.939697265625,-0.022705078125,-0.6402438879013062,0.6097561120986938,0.21341463923454285,0.44999998807907104,2.0999999046325684,-8.399999618530273,36.718692779541016,0,
 918594,-0.273193359375,-0.94189453125,-0.026611328125,-0.6707317233085632,0.3048780560493469,0.4573170840740204,0.44999998807907104,2.0999999046325684,-8.399999618530273,36.814537048339844,0,
 918604,-0.280029296875,-0.931884765625,-0.022705078125,-0.09146341681480408,0.27439025044441223,0.396341472864151,0.15000000596046448,-0.15000000596046448,-9.899999618530273,36.57492446899414,0,
 918614,-0.282470703125,-0.937255859375,-0.01611328125,-0.3353658616542816,0.21341463923454285,0.5487805008888245,0.8999999761581421,2.8499999046325684,-8.699999809265137,36.57492446899414,0,
 918624,-0.278564453125,-0.941162109375,-0.021240234375,-0.3658536672592163,0.24390244483947754,0.5792682766914368,3.0,1.0499999523162842,-9.75,36.57492446899414,0,
 918634,-0.28076171875,-0.93505859375,-0.020751953125,-0.21341463923454285,0.030487805604934692,0.396341472864151,0.0,1.9500000476837158,-7.5,36.718692779541016,0,
 918644,-0.277587890625,-0.935546875,-0.016845703125,-0.6097561120986938,0.24390244483947754,0.3353658616542816,0.0,1.9500000476837158,-7.5,36.718692779541016,0,
 918654,-0.2783203125,-0.9306640625,-0.0185546875,-0.3353658616542816,0.27439025044441223,0.5182926654815674,1.0499999523162842,3.1500000953674316,-7.5,36.47908020019531,0,
 918664,-0.277587890625,-0.937255859375,-0.0185546875,-0.21341463923454285,0.09146341681480408,0.27439025044441223,1.2000000476837158,2.549999952316284,-9.149999618530273,36.57492446899414,0,
 918674,-0.28173828125,-0.9365234375,-0.019287109375,-0.15243902802467346,0.6097561120986938,0.27439025044441223,0.0,1.5,-7.800000190734863,36.67076873779297,0,
 918684,-0.278076171875,-0.946044921875,-0.02490234375,-0.4573170840740204,0.09146341681480408,0.12195122241973877,-0.30000001192092896,2.700000047683716,-7.050000190734863,36.67076873779297,0,
 918694,-0.283935546875,-0.943359375,-0.025390625,-0.7317073345184326,0.27439025044441223,0.5487805008888245,-0.30000001192092896,2.700000047683716,-7.050000190734863,36.814537048339844,0,
 918704,-0.2861328125,-0.935302734375,-0.01953125,-0.7012194991111755,0.24390244483947754,0.4878048896789551,2.0999999046325684,3.299999952316284,-7.949999809265137,36.38323211669922,0,
 918714,-0.283935546875,-0.931396484375,-0.016845703125,-0.030487805604934692,0.3353658616542816,0.6402438879013062,0.44999998807907104,1.649999976158142,-8.399999618530273,36.814537048339844,0,
 918725,-0.276123046875,-0.936767578125,-0.016845703125,-0.21341463923454285,0.4573170840740204,0.27439025044441223,0.15000000596046448,2.549999952316284,-8.399999618530273,36.814537048339844,0,
 918735,-0.283447265625,-0.942626953125,-0.020751953125,-0.18292683362960815,0.18292683362960815,0.3048780560493469,0.15000000596046448,2.549999952316284,-8.399999618530273,36.527000427246094,0,
 918745,-0.281494140625,-0.943603515625,-0.021728515625,-0.5792682766914368,0.3658536672592163,0.4268292784690857,1.649999976158142,1.649999976158142,-8.699999809265137,36.57492446899414,0,
 918755,-0.282958984375,-0.937255859375,-0.0224609375,-0.4268292784690857,0.15243902802467346,0.6402438879013062,0.0,2.700000047683716,-7.5,36.33531188964844,0,
 918765,-0.28125,-0.9365234375,-0.016357421875,-0.5182926654815674,0.3048780560493469,0.18292683362960815,0.44999998807907104,0.8999999761581421,-6.900000095367432,36.814537048339844,0,
 918775,-0.283203125,-0.935546875,-0.01708984375,-0.3658536672592163,0.21341463923454285,0.4878048896789551,1.5,2.700000047683716,-7.050000190734863,36.67076873779297,0,
 918785,-0.283447265625,-0.93701171875,-0.02734375,-0.27439025044441223,0.27439025044441223,0.3658536672592163,1.5,2.700000047683716,-7.050000190734863,36.57492446899414,0,
 918795,-0.279541015625,-0.9375,-0.016845703125,-0.24390244483947754,0.3353658616542816,0.3048780560493469,1.0499999523162842,2.25,-8.550000190734863,36.814537048339844,0,
 918805,-0.2802734375,-0.939453125,-0.01904296875,-0.27439025044441223,0.24390244483947754,0.3658536672592163,1.2000000476837158,2.0999999046325684,-7.199999809265137,36.57492446899414,0,
 918815,-0.283447265625,-0.93798828125,-0.015625,-0.3658536672592163,-0.060975611209869385,0.4878048896789551,0.30000001192092896,2.25,-8.25,36.718692779541016,0,
 918825,-0.277587890625,-0.93701171875,-0.020751953125,-0.6097561120986938,0.21341463923454285,0.0,0.30000001192092896,2.25,-8.25,36.718692779541016,0,
 918835,-0.283447265625,-0.93212890625,-0.012939453125,-0.9756097793579102,0.5182926654815674,-0.12195122241973877,-0.15000000596046448,1.649999976158142,-7.949999809265137,36.38323211669922,0,
 918845,-0.276611328125,-0.93896484375,-0.01513671875,-0.4878048896789551,0.27439025044441223,-0.21341463923454285,0.30000001192092896,3.1500000953674316,-9.0,36.67076873779297,0,
 918855,-0.281982421875,-0.934326171875,-0.0244140625,-0.9756097793579102,0.18292683362960815,0.09146341681480408,0.15000000596046448,0.8999999761581421,-7.650000095367432,36.86246109008789,0,
 918865,-0.281982421875,-0.936279296875,-0.026611328125,-1.0060975551605225,0.4878048896789551,0.09146341681480408,-0.8999999761581421,2.549999952316284,-8.399999618530273,36.86246109008789,0,
 918875,-0.2763671875,-0.931640625,-0.025390625,-0.4878048896789551,0.396341472864151,0.27439025044441223,-0.8999999761581421,2.549999952316284,-8.399999618530273,36.38323211669922,0,
 918885,-0.275634765625,-0.936279296875,-0.02099609375,0.060975611209869385,0.24390244483947754,0.5792682766914368,1.5,2.25,-9.300000190734863,36.814537048339844,0,
 918895,-0.286376953125,-0.93994140625,-0.02294921875,-0.3353658616542816,0.27439025044441223,0.5792682766914368,-0.30000001192092896,2.25,-7.5,36.527000427246094,0,
 918905,-0.283447265625,-0.937255859375,-0.02392578125,-0.18292683362960815,0.5182926654815674,0.3353658616542816,0.8999999761581421,1.350000023841858,-7.650000095367432,36.57492446899414,0,
 918915,-0.276123046875,-0.935546875,-0.0205078125,-0.18292683362960815,0.3658536672592163,0.396341472864151,0.8999999761581421,1.350000023841858,-7.650000095367432,36.57492446899414,0,
 918925,-0.2861328125,-0.9345703125,-0.01708984375,0.030487805604934692,0.27439025044441223,0.21341463923454285,0.8999999761581421,-1.350000023841858,-10.199999809265137,36.86246109008789,0,
 918935,-0.278076171875,-0.934814453125,-0.011474609375,-0.6097561120986938,0.27439025044441223,0.4573170840740204,0.0,-0.30000001192092896,-8.25,36.718692779541016,0,
 918945,-0.280517578125,-0.940185546875,-0.017333984375,-0.3353658616542816,0.4268292784690857,0.7317073345184326,1.5,3.1500000953674316,-8.550000190734863,36.57492446899414,0,
 918955,-0.28515625,-0.93603515625,-0.023193359375,-0.7317073345184326,0.5792682766914368,0.12195122241973877,0.8999999761581421,2.549999952316284,-7.199999809265137,36.67076873779297,0,
 918965,-0.279296875,-0.940673828125,-0.024169921875,-0.6097561120986938,0.21341463923454285,0.4268292784690857,0.8999999761581421,2.549999952316284,-7.199999809265137,36.86246109008789,0,
 918975,-0.27587890625,-0.937255859375,-0.021728515625,-0.060975611209869385,0.3658536672592163,0.7317073345184326,0.44999998807907104,2.0999999046325684,-6.449999809265137,36.718692779541016,0,
 918985,-0.281494140625,-0.94091796875,-0.02587890625,0.030487805604934692,0.15243902802467346,0.7317073345184326,0.0,1.5,-7.800000190734863,36.814537048339844,0,
 918995,-0.279052734375,-0.940673828125,-0.022216796875,0.18292683362960815,0.0,0.4268292784690857,1.2000000476837158,2.0999999046325684,-7.949999809265137,36.527000427246094,0,
 919005,-0.2900390625,-0.938232421875,-0.01904296875,0.18292683362960815,0.12195122241973877,0.3048780560493469,0.15000000596046448,2.0999999046325684,-8.699999809265137,36.57492446899414,0,
 919015,-0.28271484375,-0.93994140625,-0.014404296875,-0.060975611209869385,0.3048780560493469,-0.030487805604934692,0.15000000596046448,2.0999999046325684,-8.699999809265137,36.67076873779297,0,
 919025,-0.285888671875,-0.940673828125,-0.019775390625,-0.3658536672592163,0.3658536672592163,-0.030487805604934692,0.75,1.0499999523162842,-7.050000190734863,36.718692779541016,0,
 919035,-0.2802734375,-0.935302734375,-0.018310546875,-0.6707317233085632,0.3048780560493469,-0.3353658616542816,3.0,2.700000047683716,-9.0,36.38323211669922,0,
 919045,-0.281982421875,-0.9384765625,-0.02197265625,-0.6402438879013062,0.4878048896789551,-0.09146341681480408,1.2000000476837158,0.8999999761581421,-9.149999618530273,36.28738784790039,0,
 919055,-0.279052734375,-0.93408203125,-0.02001953125,-0.8841463327407837,0.12195122241973877,-0.060975611209869385,1.2000000476837158,0.8999999761581421,-9.149999618530273,36.718692779541016,0,
 919065,-0.27880859375,-0.93603515625,-0.027587890625,-0.5487805008888245,0.396341472864151,0.5487805008888245,0.0,0.75,-8.550000190734863,36.718692779541016,0,
 919075,-0.27783203125,-0.93701171875,-0.023681640625,-0.6097561120986938,0.3658536672592163,0.27439025044441223,0.44999998807907104,0.44999998807907104,-7.199999809265137,36.38323211669922,0,
 919085,-0.278076171875,-0.938720703125,-0.025390625,-0.15243902802467346,0.12195122241973877,0.8231707215309143,1.5,1.5,-7.050000190734863,36.814537048339844,0,
 919095,-0.28369140625,-0.93896484375,-0.02197265625,0.15243902802467346,0.09146341681480408,0.9451219439506531,1.7999999523162842,1.5,-6.75,36.47908020019531,0,
 919105,-0.286376953125,-0.93701171875,-0.016357421875,0.18292683362960815,0.21341463923454285,0.6707317233085632,1.7999999523162842,1.5,-6.75,36.814537048339844,0,
 919115,-0.281982421875,-0.941162109375,-0.023193359375,-0.09146341681480408,0.396341472864151,0.4878048896789551,0.75,2.25,-7.050000190734863,36.57492446899414,0,
 919125,-0.287841796875,-0.9423828125,-0.01806640625,-0.3353658616542816,0.18292683362960815,0.27439025044441223,0.75,2.25,-7.5,36.57492446899414,0,
 919135,-0.28173828125,-0.9375,-0.016845703125,-0.6402438879013062,0.4573170840740204,-0.15243902802467346,-0.30000001192092896,1.9500000476837158,-8.550000190734863,36.86246109008789,0,
 919145,-0.27978515625,-0.937255859375,-0.012939453125,-0.4573170840740204,0.6707317233085632,-0.3048780560493469,-0.30000001192092896,1.9500000476837158,-8.550000190734863,36.57492446899414,0,
 919155,-0.28173828125,-0.943603515625,-0.01708984375,-0.6707317233085632,0.6402438879013062,-0.5487805008888245,2.25,1.5,-8.550000190734863,36.527000427246094,0,
 919165,-0.277099609375,-0.9443359375,-0.021728515625,-1.1280487775802612,0.5182926654815674,-0.3658536672592163,-0.30000001192092896,1.0499999523162842,-6.75,36.38323211669922,0,
 919175,-0.28125,-0.93896484375,-0.022216796875,-0.5792682766914368,0.4878048896789551,-0.15243902802467346,1.2000000476837158,-0.8999999761581421,-6.900000095367432,36.86246109008789,0,
 919185,-0.2734375,-0.9365234375,-0.027099609375,-0.7012194991111755,0.4573170840740204,0.060975611209869385,1.5,2.700000047683716,-7.800000190734863,36.718692779541016,0,
 919195,-0.28125,-0.934326171875,-0.022216796875,-0.4268292784690857,0.5487805008888245,0.7012194991111755,1.5,2.700000047683716,-7.800000190734863,36.57492446899414,0,
 919205,-0.276611328125,-0.93701171875,-0.01904296875,-0.18292683362960815,0.09146341681480408,0.792682945728302,0.8999999761581421,2.0999999046325684,-7.949999809265137,36.57492446899414,0,
 919215,-0.2734375,-0.94287109375,-0.01806640625,0.09146341681480408,0.21341463923454285,0.9756097793579102,0.44999998807907104,0.15000000596046448,-8.399999618530273,36.57492446899414,0,
 919225,-0.27783203125,-0.934326171875,-0.01611328125,0.18292683362960815,-0.3658536672592163,1.097561001777649,1.5,1.5,-8.550000190734863,36.86246109008789,0,
 919235,-0.28662109375,-0.936279296875,-0.0244140625,-0.030487805604934692,0.09146341681480408,0.9451219439506531,1.5,1.0499999523162842,-9.0,36.57492446899414,0,
 919245,-0.287353515625,-0.938720703125,-0.02001953125,-0.3658536672592163,0.24390244483947754,0.9756097793579102,1.5,1.0499999523162842,-9.0,36.527000427246094,0,
 919255,-0.281494140625,-0.93603515625,-0.015625,-0.3353658616542816,0.24390244483947754,0.15243902802467346,0.30000001192092896,2.25,-9.0,37.006229400634766,0,
 919265,-0.28369140625,-0.936279296875,-0.021240234375,-0.7012194991111755,0.5182926654815674,-0.060975611209869385,2.25,0.75,-8.550000190734863,36.718692779541016,0,
 919275,-0.286865234375,-0.93603515625,-0.016845703125,-0.8231707215309143,0.4268292784690857,-0.4573170840740204,0.44999998807907104,0.8999999761581421,-9.149999618530273,36.814537048339844,0,
 919285,-0.280517578125,-0.93603515625,-0.01904296875,-1.0060975551605225,0.6707317233085632,-0.6097561120986938,0.44999998807907104,0.8999999761581421,-9.149999618530273,36.527000427246094,0,
 919295,-0.277099609375,-0.9365234375,-0.020751953125,-1.5548781156539917,0.6097561120986938,-0.792682945728302,0.44999998807907104,1.649999976158142,-9.449999809265137,36.718692779541016,0,
 919305,-0.272705078125,-0.936767578125,-0.02099609375,-1.5243902206420898,0.8536585569381714,-0.18292683362960815,1.2000000476837158,0.44999998807907104,-7.199999809265137,36.718692779541016,0,
 919315,-0.27880859375,-0.935302734375,-0.02392578125,-1.0670732259750366,0.4268292784690857,0.4268292784690857,1.649999976158142,1.350000023841858,-8.399999618530273,36.91038513183594,0,
 919325,-0.27197265625,-0.93701171875,-0.03466796875,-0.4573170840740204,0.15243902802467346,1.3109756708145142,0.75,2.700000047683716,-7.800000190734863,36.718692779541016,0,
 919335,-0.27294921875,-0.933349609375,-0.0283203125,0.24390244483947754,-0.060975611209869385,1.2804877758026123,0.75,2.700000047683716,-7.800000190734863,36.57492446899414,0,
 919345,-0.280517578125,-0.933837890625,-0.02490234375,0.21341463923454285,0.09146341681480408,1.6463414430618286,0.75,0.30000001192092896,-9.300000190734863,36.57492446899414,0,
 919355,-0.280029296875,-0.930419921875,-0.017333984375,0.396341472864151,-0.060975611209869385,1.2195122241973877,0.75,2.25,-9.0,36.527000427246094,0,
 919365,-0.28466796875,-0.9384765625,-0.010986328125,-0.18292683362960815,0.030487805604934692,0.8231707215309143,0.0,1.0499999523162842,-7.050000190734863,36.86246109008789,0,
 919375,-0.289794921875,-0.934814453125,-0.013671875,-0.3353658616542816,0.396341472864151,0.24390244483947754,0.0,1.0499999523162842,-7.050000190734863,36.91038513183594,0,
 919385,-0.287109375,-0.934326171875,-0.016357421875,-0.9451219439506531,0.7621951103210449,-0.3658536672592163,0.15000000596046448,2.0999999046325684,-8.399999618530273,36.527000427246094,0,
 919395,-0.281982421875,-0.9375,-0.017822265625,-0.8841463327407837,0.4573170840740204,-0.24390244483947754,0.75,2.700000047683716,-7.5,36.814537048339844,0,
 919405,-0.282470703125,-0.937255859375,-0.01904296875,-0.9146341681480408,0.5487805008888245,-0.6402438879013062,0.8999999761581421,3.299999952316284,-8.399999618530273,36.67076873779297,0,
 919415,-0.279052734375,-0.928466796875,-0.021728515625,-0.9756097793579102,0.4268292784690857,-0.3353658616542816,0.8999999761581421,3.299999952316284,-8.399999618530273,36.67076873779297,0,
 919425,-0.278076171875,-0.939453125,-0.01904296875,-0.7012194991111755,0.3658536672592163,-0.12195122241973877,0.8999999761581421,3.299999952316284,-8.399999618530273,36.67076873779297,0,
 919435,-0.2783203125,-0.94189453125,-0.02392578125,-0.6707317233085632,0.24390244483947754,0.09146341681480408,-1.0499999523162842,1.9500000476837158,-7.5,36.57492446899414,0,
 919445,-0.27490234375,-0.935546875,-0.0263671875,-0.21341463923454285,0.27439025044441223,0.8841463327407837,0.75,1.5,-11.399999618530273,36.67076873779297,0,
 919455,-0.2802734375,-0.937255859375,-0.023681640625,-0.15243902802467346,0.09146341681480408,1.0365853309631348,0.75,1.5,-7.800000190734863,36.86246109008789,0,
 919466,-0.275634765625,-0.935302734375,-0.022705078125,0.5487805008888245,-0.12195122241973877,1.2195122241973877,0.75,1.5,-7.800000190734863,36.814537048339844,0,
 919476,-0.281005859375,-0.9326171875,-0.02001953125,0.4573170840740204,-0.12195122241973877,0.9451219439506531,1.0499999523162842,1.5,-6.75,36.527000427246094,0,
 919486,-0.28662109375,-0.934326171875,-0.012939453125,0.0,-0.030487805604934692,0.7621951103210449,1.7999999523162842,0.75,-6.900000095367432,36.57492446899414,0,
 919496,-0.283935546875,-0.942626953125,-0.0107421875,-0.09146341681480408,0.27439025044441223,0.4878048896789551,-0.8999999761581421,2.0999999046325684,-7.199999809265137,36.67076873779297,0,
 919506,-0.279296875,-0.93896484375,-0.017333984375,-0.7317073345184326,0.27439025044441223,-0.060975611209869385,-0.8999999761581421,2.0999999046325684,-7.199999809265137,36.57492446899414,0,
 919516,-0.282470703125,-0.93701171875,-0.016845703125,-1.2195122241973877,0.6707317233085632,-0.060975611209869385,-0.8999999761581421,2.0999999046325684,-7.199999809265137,36.718692779541016,0,
 919526,-0.279541015625,-0.936279296875,-0.016357421875,-1.1585365533828735,0.792682945728302,-0.5792682766914368,0.8999999761581421,2.25,-8.25,36.57492446899414,0,
 919536,-0.27880859375,-0.93212890625,-0.01953125,-1.1585365533828735,0.7621951103210449,-0.5182926654815674,0.15000000596046448,2.8499999046325684,-9.149999618530273,36.33531188964844,0,
 919546,-0.275634765625,-0.93603515625,-0.025146484375,-1.2804877758026123,0.7317073345184326,-0.15243902802467346,-1.5,0.30000001192092896,-9.300000190734863,36.814537048339844,0,
 919556,-0.278076171875,-0.939453125,-0.029541015625,-1.402438998222351,0.24390244483947754,0.24390244483947754,-1.5,0.30000001192092896,-9.300000190734863,36.814537048339844,0,
 919566,-0.279052734375,-0.941162109375,-0.030517578125,-0.7621951103210449,0.3658536672592163,0.9451219439506531,-36.599998474121094,0.30000001192092896,-9.300000190734863,36.527000427246094,0,
 919576,-0.28369140625,-0.938720703125,-0.029052734375,-0.3658536672592163,-0.030487805604934692,0.792682945728302,0.15000000596046448,1.350000023841858,-7.949999809265137,36.57492446899414,0,
 919586,-0.27734375,-0.939453125,-0.024658203125,0.27439025044441223,0.09146341681480408,1.25,3.0,1.0499999523162842,-7.5,36.57492446899414,0,
 919596,-0.286865234375,-0.93994140625,-0.013916015625,-0.18292683362960815,0.12195122241973877,1.3414634466171265,3.0,1.0499999523162842,-7.5,36.57492446899414,0,
 919606,-0.2861328125,-0.94482421875,-0.0126953125,0.3353658616542816,0.060975611209869385,0.5792682766914368,0.44999998807907104,1.0499999523162842,-7.5,36.718692779541016,0,
 919616,-0.289306640625,-0.940673828125,-0.016845703125,-0.6402438879013062,0.09146341681480408,0.09146341681480408,1.0499999523162842,0.0,-8.25,36.718692779541016,0,
 919626,-0.288818359375,-0.93505859375,-0.01953125,-0.7317073345184326,0.4268292784690857,-0.396341472864151,2.0999999046325684,3.75,-8.399999618530273,36.57492446899414,0,
 919636,-0.2861328125,-0.93505859375,-0.018310546875,-1.1280487775802612,0.6097561120986938,-0.4878048896789551,0.75,1.9500000476837158,-7.800000190734863,36.57492446899414,0,
 919646,-0.2822265625,-0.935546875,-0.018310546875,-1.0670732259750366,0.7317073345184326,-0.6402438879013062,0.75,1.9500000476837158,-7.800000190734863,36.814537048339844,0,
 919656,-0.27734375,-0.935546875,-0.017822265625,-1.2804877758026123,0.6707317233085632,-0.5792682766914368,1.5,2.25,-8.550000190734863,36.814537048339844,0,
 919666,-0.27783203125,-0.930908203125,-0.02001953125,-1.1585365533828735,0.6707317233085632,-0.27439025044441223,1.0499999523162842,1.9500000476837158,-8.550000190734863,36.814537048339844,0,
 919676,-0.278076171875,-0.93994140625,-0.020263671875,-1.0670732259750366,0.4878048896789551,-0.18292683362960815,1.2000000476837158,2.8499999046325684,-6.150000095367432,36.86246109008789,0,
 919686,-0.280029296875,-0.941162109375,-0.029296875,-0.8536585569381714,0.24390244483947754,0.3048780560493469,1.2000000476837158,2.8499999046325684,-6.150000095367432,36.38323211669922,0,
 919696,-0.28125,-0.94091796875,-0.0302734375,-0.3048780560493469,0.24390244483947754,0.6402438879013062,1.649999976158142,0.44999998807907104,-8.399999618530273,36.527000427246094,0,
 919706,-0.28125,-0.936767578125,-0.026123046875,0.12195122241973877,0.0,1.1890244483947754,0.75,1.5,-9.0,36.814537048339844,0,
 919716,-0.278564453125,-0.93603515625,-0.021728515625,0.4878048896789551,0.09146341681480408,1.3414634466171265,0.15000000596046448,2.549999952316284,-7.949999809265137,36.86246109008789,0,
 919726,-0.2783203125,-0.933837890625,-0.014892578125,0.396341472864151,-0.15243902802467346,0.6707317233085632,0.8999999761581421,0.8999999761581421,-9.449999809265137,36.57492446899414,0,
 919736,-0.2841796875,-0.939208984375,-0.0205078125,-0.09146341681480408,-0.18292683362960815,0.6097561120986938,0.8999999761581421,0.8999999761581421,-9.449999809265137,36.67076873779297,0,
 919746,-0.283935546875,-0.943359375,-0.01513671875,-0.3353658616542816,0.18292683362960815,0.6402438879013062,1.0499999523162842,-0.30000001192092896,-9.75,36.718692779541016,0,
 919756,-0.28076171875,-0.937255859375,-0.013671875,-0.6707317233085632,0.3353658616542816,0.15243902802467346,0.15000000596046448,2.549999952316284,-8.699999809265137,36.86246109008789,0,
 919766,-0.28564453125,-0.930419921875,-0.015380859375,-0.7317073345184326,0.7012194991111755,0.0,0.0,2.25,-9.0,36.718692779541016,0,
 919776,-0.2841796875,-0.93408203125,-0.01904296875,-1.0365853309631348,0.6707317233085632,-0.5182926654815674,0.0,2.25,-9.0,36.718692779541016,0,
 919786,-0.27880859375,-0.94287109375,-0.01953125,-0.7621951103210449,0.396341472864151,-0.4268292784690857,0.0,1.9500000476837158,-7.5,36.57492446899414,0,
 919796,-0.27734375,-0.936767578125,-0.01806640625,-1.1280487775802612,0.18292683362960815,-0.060975611209869385,-0.30000001192092896,2.25,-7.5,36.57492446899414,0,
 919806,-0.27880859375,-0.9443359375,-0.0224609375,-0.7317073345184326,0.27439025044441223,0.18292683362960815,-0.75,1.9500000476837158,-7.050000190734863,36.814537048339844,0,
 919816,-0.27880859375,-0.93701171875,-0.02783203125,-0.27439025044441223,0.27439025044441223,1.0670732259750366,1.5,2.25,-8.550000190734863,36.67076873779297,0,
 919826,-0.281005859375,-0.939453125,-0.025390625,0.0,0.09146341681480408,1.25,1.5,2.25,-8.550000190734863,36.57492446899414,0,
 919836,-0.279052734375,-0.930419921875,-0.021728515625,0.0,-0.15243902802467346,1.25,0.8999999761581421,0.8999999761581421,-7.650000095367432,36.47908020019531,0,
 919846,-0.278564453125,-0.9365234375,-0.023193359375,0.12195122241973877,-0.030487805604934692,0.9451219439506531,3.5999999046325684,4.050000190734863,-9.449999809265137,36.718692779541016,0,
 919856,-0.287109375,-0.940185546875,-0.022216796875,0.18292683362960815,0.060975611209869385,0.4878048896789551,0.75,1.5,-8.25,36.57492446899414,0,
 919866,-0.28662109375,-0.9365234375,-0.016357421875,0.030487805604934692,0.4268292784690857,0.3658536672592163,0.8999999761581421,-0.44999998807907104,-9.149999618530273,36.718692779541016,0,
 919876,-0.285400390625,-0.937255859375,-0.0126953125,-0.5487805008888245,0.5487805008888245,-0.09146341681480408,0.8999999761581421,-0.44999998807907104,-9.149999618530273,36.67076873779297,0,
 919886,-0.283935546875,-0.936767578125,-0.01513671875,-0.8841463327407837,0.5182926654815674,-0.5792682766914368,-0.30000001192092896,0.75,-9.0,36.814537048339844,0,
 919896,-0.280029296875,-0.93701171875,-0.019775390625,-1.25,0.4573170840740204,-0.8841463327407837,1.649999976158142,2.0999999046325684,-7.199999809265137,36.57492446899414,0,
 919906,-0.279541015625,-0.93505859375,-0.01953125,-1.0365853309631348,0.6707317233085632,-0.6707317233085632,1.2000000476837158,1.649999976158142,-8.399999618530273,36.814537048339844,0,
 919916,-0.282958984375,-0.93408203125,-0.018310546875,-1.25,0.4573170840740204,-0.3048780560493469,1.2000000476837158,1.649999976158142,-8.399999618530273,36.718692779541016,0,
 919926,-0.27734375,-0.9375,-0.02392578125,-0.8231707215309143,0.5182926654815674,0.4268292784690857,1.7999999523162842,0.75,-7.050000190734863,36.67076873779297,0,
 919936,-0.27783203125,-0.9365234375,-0.0283203125,-0.396341472864151,0.4573170840740204,0.7317073345184326,1.2000000476837158,1.649999976158142,-7.650000095367432,36.814537048339844,0,
 919946,-0.2861328125,-0.941650390625,-0.02783203125,0.09146341681480408,0.24390244483947754,1.25,-0.15000000596046448,2.0999999046325684,-8.699999809265137,36.527000427246094,0,
 919956,-0.284912109375,-0.9375,-0.01806640625,-0.060975611209869385,0.18292683362960815,1.585365891456604,1.5,1.9500000476837158,-6.75,36.814537048339844,0,
 919966,-0.285888671875,-0.94189453125,-0.020263671875,0.5792682766914368,0.0,1.432926893234253,1.5,1.9500000476837158,-6.75,36.814537048339844,0,
 919976,-0.2841796875,-0.935791015625,-0.015625,0.5182926654815674,-0.060975611209869385,1.0060975551605225,-0.44999998807907104,0.8999999761581421,-6.449999809265137,36.57492446899414,0,
 919986,-0.285888671875,-0.937744140625,-0.01806640625,-0.27439025044441223,0.12195122241973877,0.4878048896789551,0.44999998807907104,1.350000023841858,-7.199999809265137,36.57492446899414,0,
 919996,-0.291015625,-0.9365234375,-0.016357421875,-0.792682945728302,0.3353658616542816,-0.09146341681480408,1.0499999523162842,2.25,-9.0,36.814537048339844,0,
 920006,-0.2861328125,-0.93798828125,-0.01611328125,-1.3414634466171265,0.5487805008888245,-0.5182926654815674,1.0499999523162842,2.25,-9.0,36.527000427246094,0,
 920016,-0.281494140625,-0.936279296875,-0.017578125,-1.1585365533828735,0.5792682766914368,-1.1280487775802612,1.5,1.9500000476837158,-6.75,36.718692779541016,0,
 920026,-0.27880859375,-0.940185546875,-0.017578125,-1.1585365533828735,0.9451219439506531,-1.097561001777649,1.0499999523162842,0.0,-7.050000190734863,36.527000427246094,0,
 920036,-0.2783203125,-0.939697265625,-0.020751953125,-1.3719512224197388,0.6402438879013062,-0.792682945728302,0.75,2.700000047683716,-8.25,36.814537048339844,0,
 920046,-0.275146484375,-0.94287109375,-0.023681640625,-1.0365853309631348,0.4573170840740204,-0.4878048896789551,0.44999998807907104,2.549999952316284,-7.199999809265137,36.814537048339844,0,
 920056,-0.27783203125,-0.9384765625,-0.027099609375,-1.097561001777649,0.396341472864151,0.6707317233085632,0.44999998807907104,2.549999952316284,-7.199999809265137,36.57492446899414,0,
 920066,-0.27978515625,-0.9423828125,-0.03173828125,0.0,0.396341472864151,0.9451219439506531,2.25,1.9500000476837158,-8.25,36.57492446899414,0,
 920076,-0.278076171875,-0.935546875,-0.02978515625,0.3658536672592163,-0.27439025044441223,1.0060975551605225,0.30000001192092896,3.1500000953674316,-8.25,36.718692779541016,0,
 920086,-0.280517578125,-0.939453125,-0.02001953125,0.7012194991111755,-0.060975611209869385,1.097561001777649,0.44999998807907104,1.350000023841858,-6.449999809265137,36.47908020019531,0,
 920096,-0.284912109375,-0.937255859375,-0.0087890625,0.6402438879013062,-0.030487805604934692,1.0060975551605225,1.0499999523162842,1.9500000476837158,-7.5,36.718692779541016,0,
 920106,-0.288330078125,-0.937744140625,-0.005615234375,0.12195122241973877,0.21341463923454285,0.3658536672592163,1.0499999523162842,1.9500000476837158,-7.5,36.718692779541016,0,
 920116,-0.286865234375,-0.937744140625,-0.01806640625,-0.4268292784690857,0.396341472864151,0.0,0.8999999761581421,0.8999999761581421,-7.650000095367432,36.814537048339844,0,
 920126,-0.277099609375,-0.935302734375,-0.019775390625,-0.7317073345184326,0.5792682766914368,-0.396341472864151,0.30000001192092896,0.75,-8.25,36.47908020019531,0,
 920136,-0.28076171875,-0.93798828125,-0.025634765625,-1.25,0.5487805008888245,-0.4573170840740204,1.0499999523162842,1.9500000476837158,-9.0,36.86246109008789,0,
 920146,-0.2802734375,-0.9404296875,-0.019775390625,-1.432926893234253,0.396341472864151,-0.7317073345184326,1.0499999523162842,1.9500000476837158,-9.0,36.814537048339844,0,
 920156,-0.273681640625,-0.936279296875,-0.0244140625,-0.9756097793579102,0.6707317233085632,0.12195122241973877,1.2000000476837158,3.299999952316284,-11.699999809265137,36.718692779541016,0,
 920167,-0.279541015625,-0.940673828125,-0.026611328125,-1.1890244483947754,0.27439025044441223,-0.030487805604934692,1.0499999523162842,3.450000047683716,-7.800000190734863,36.814537048339844,0,
 920177,-0.28076171875,-0.94287109375,-0.02197265625,-0.4268292784690857,0.27439025044441223,0.5487805008888245,0.0,2.700000047683716,-7.5,36.67076873779297,0,
 920187,-0.273681640625,-0.940673828125,-0.019287109375,0.030487805604934692,0.12195122241973877,0.7317073345184326,0.8999999761581421,2.0999999046325684,-8.399999618530273,36.718692779541016,0,
 920197,-0.280029296875,-0.934326171875,-0.017578125,0.060975611209869385,0.15243902802467346,1.0365853309631348,0.8999999761581421,2.0999999046325684,-8.399999618530273,36.814537048339844,0,
 920207,-0.27734375,-0.93505859375,-0.018798828125,0.060975611209869385,0.0,1.0365853309631348,2.25,3.1500000953674316,-9.75,36.33531188964844,0,
 920217,-0.284912109375,-0.93798828125,-0.016845703125,-0.030487805604934692,0.060975611209869385,0.8536585569381714,0.8999999761581421,2.549999952316284,-8.399999618530273,36.57492446899414,0,
 920227,-0.28271484375,-0.939208984375,-0.01025390625,-0.21341463923454285,0.3658536672592163,0.7012194991111755,1.2000000476837158,0.44999998807907104,-8.399999618530273,36.67076873779297,0,
 920237,-0.28076171875,-0.93408203125,-0.018310546875,-0.9451219439506531,0.15243902802467346,0.21341463923454285,1.2000000476837158,0.44999998807907104,-8.399999618530273,36.57492446899414,0,
 920247,-0.27783203125,-0.931396484375,-0.020751953125,-1.1280487775802612,0.4268292784690857,-0.3048780560493469,1.2000000476837158,0.8999999761581421,-7.949999809265137,36.814537048339844,0,
 920257,-0.278076171875,-0.938720703125,-0.0185546875,-1.2804877758026123,0.4878048896789551,-0.15243902802467346,1.649999976158142,5.25,-9.449999809265137,36.57492446899414,0,
 920267,-0.279541015625,-0.93310546875,-0.020751953125,-0.6707317233085632,0.6097561120986938,-0.3048780560493469,1.5,1.5,-7.800000190734863,36.38323211669922,0,
 920277,-0.275146484375,-0.939208984375,-0.0205078125,-0.8231707215309143,0.3658536672592163,-0.15243902802467346,0.44999998807907104,0.8999999761581421,-8.399999618530273,36.718692779541016,0,
 920287,-0.28271484375,-0.93798828125,-0.0166015625,-0.7621951103210449,0.27439025044441223,0.27439025044441223,0.44999998807907104,0.8999999761581421,-8.399999618530273,36.86246109008789,0,
 920297,-0.281494140625,-0.9443359375,-0.0234375,-0.4268292784690857,0.3048780560493469,0.6402438879013062,1.7999999523162842,2.700000047683716,-9.300000190734863,36.86246109008789,0,
 920307,-0.279296875,-0.93701171875,-0.025146484375,-0.18292683362960815,0.3658536672592163,1.0365853309631348,1.5,1.9500000476837158,-8.25,36.67076873779297,0,
 920317,-0.28125,-0.933837890625,-0.0244140625,-0.09146341681480408,0.3658536672592163,0.7621951103210449,1.7999999523162842,3.450000047683716,-7.5,36.57492446899414,0,
 920327,-0.2841796875,-0.9365234375,-0.020263671875,-0.3048780560493469,0.15243902802467346,0.4268292784690857,-0.30000001192092896,1.5,-7.800000190734863,36.67076873779297,0,
 920337,-0.28076171875,-0.93798828125,-0.0185546875,0.060975611209869385,0.3658536672592163,0.6707317233085632,-0.30000001192092896,1.5,-7.800000190734863,36.67076873779297,0,
 920347,-0.278564453125,-0.934814453125,-0.013916015625,-0.396341472864151,0.27439025044441223,0.27439025044441223,0.30000001192092896,1.9500000476837158,-8.25,36.67076873779297,0,
 920357,-0.28173828125,-0.9375,-0.017333984375,-0.7621951103210449,0.4878048896789551,-0.15243902802467346,-0.8999999761581421,3.75,-9.449999809265137,36.718692779541016,0,
 920367,-0.28369140625,-0.929931640625,-0.013427734375,-1.1280487775802612,0.12195122241973877,-0.8841463327407837,0.30000001192092896,0.30000001192092896,-8.25,36.57492446899414,0,
 920377,-0.286865234375,-0.93701171875,-0.018310546875,-1.4634146690368652,0.5792682766914368,-0.4573170840740204,0.30000001192092896,0.30000001192092896,-8.25,36.47908020019531,0,
 920387,-0.283935546875,-0.9306640625,-0.01904296875,-1.5548781156539917,0.5792682766914368,-0.6707317233085632,0.75,2.25,-7.800000190734863,36.527000427246094,0,
 920397,-0.2705078125,-0.93896484375,-0.029296875,-1.1585365533828735,0.396341472864151,-0.12195122241973877,0.0,2.700000047683716,-7.050000190734863,36.91038513183594,0,
 920407,-0.277587890625,-0.940185546875,-0.027587890625,-0.9146341681480408,0.24390244483947754,0.18292683362960815,1.5,1.0499999523162842,-7.050000190734863,36.718692779541016,0,
 920417,-0.275634765625,-0.936767578125,-0.030029296875,-0.4878048896789551,0.3353658616542816,0.6402438879013062,0.15000000596046448,2.549999952316284,-8.699999809265137,36.57492446899414,0,
 920427,-0.28564453125,-0.937255859375,-0.02880859375,0.15243902802467346,0.060975611209869385,0.5792682766914368,0.15000000596046448,2.549999952316284,-8.699999809265137,36.527000427246094,0,
 920437,-0.27734375,-0.936279296875,-0.01953125,0.0,0.0,0.7621951103210449,0.0,1.0499999523162842,-6.75,36.718692779541016,0,
 920447,-0.279296875,-0.9384765625,-0.01708984375,0.7317073345184326,0.0,0.6097561120986938,0.44999998807907104,1.649999976158142,-7.650000095367432,37.006229400634766,0,
 920457,-0.288330078125,-0.9365234375,-0.01123046875,0.21341463923454285,0.060975611209869385,0.5792682766914368,1.2000000476837158,2.549999952316284,-7.650000095367432,36.718692779541016,0,
 920467,-0.284912109375,-0.938232421875,-0.01416015625,-0.4573170840740204,0.3658536672592163,-0.060975611209869385,1.2000000476837158,2.549999952316284,-7.650000095367432,36.527000427246094,0,
 920477,-0.28564453125,-0.9326171875,-0.019287109375,-0.8841463327407837,0.7012194991111755,-0.24390244483947754,1.0499999523162842,2.25,-7.5,36.67076873779297,0,
 920487,-0.277099609375,-0.93994140625,-0.020263671875,-0.7621951103210449,0.5487805008888245,-0.6402438879013062,1.0499999523162842,0.75,-7.5,36.86246109008789,0,
 920497,-0.2744140625,-0.93505859375,-0.023193359375,-1.1585365533828735,0.6707317233085632,-0.3658536672592163,0.30000001192092896,1.0499999523162842,-8.550000190734863,36.814537048339844,0,
 920507,-0.2783203125,-0.938232421875,-0.020751953125,-1.0060975551605225,0.5792682766914368,0.18292683362960815,1.2000000476837158,2.0999999046325684,-7.650000095367432,36.67076873779297,0,
 920517,-0.27978515625,-0.941650390625,-0.0244140625,-0.9451219439506531,0.3048780560493469,0.4268292784690857,1.2000000476837158,2.0999999046325684,-7.650000095367432,36.47908020019531,0,
 920527,-0.2724609375,-0.9423828125,-0.025146484375,-0.18292683362960815,0.3658536672592163,0.792682945728302,-0.15000000596046448,2.0999999046325684,-8.699999809265137,36.38323211669922,0,
 920537,-0.280517578125,-0.935791015625,-0.02783203125,0.5487805008888245,0.0,1.2195122241973877,1.649999976158142,3.299999952316284,-7.949999809265137,36.814537048339844,0,
 920547,-0.281982421875,-0.936279296875,-0.020263671875,0.3353658616542816,-0.15243902802467346,1.0365853309631348,1.0499999523162842,0.0,-7.800000190734863,36.814537048339844,0,
 920557,-0.276611328125,-0.93603515625,-0.01318359375,0.24390244483947754,-0.15243902802467346,0.6707317233085632,1.0499999523162842,0.0,-7.800000190734863,36.718692779541016,0,
 920567,-0.280029296875,-0.937744140625,-0.012451171875,-0.3658536672592163,0.18292683362960815,0.6097561120986938,1.5,-0.30000001192092896,-10.050000190734863,36.57492446899414,0,
 920577,-0.28515625,-0.938232421875,-0.018310546875,-0.7621951103210449,0.3353658616542816,0.0,0.44999998807907104,0.44999998807907104,-7.650000095367432,36.57492446899414,0,
 920587,-0.288330078125,-0.935546875,-0.014404296875,-1.3414634466171265,0.3658536672592163,-0.15243902802467346,0.30000001192092896,2.25,-9.0,36.814537048339844,0,
 920597,-0.281494140625,-0.93505859375,-0.01123046875,-1.4634146690368652,0.7317073345184326,-0.5182926654815674,1.2000000476837158,1.350000023841858,-7.650000095367432,36.67076873779297,0,
 920607,-0.280029296875,-0.9365234375,-0.02392578125,-1.5548781156539917,0.7012194991111755,-0.7317073345184326,1.2000000476837158,1.350000023841858,-7.650000095367432,36.718692779541016,0,
 920617,-0.27197265625,-0.936767578125,-0.02001953125,-1.6463414430618286,0.6097561120986938,-0.18292683362960815,2.8499999046325684,0.15000000596046448,-8.399999618530273,36.28738784790039,0,
 920627,-0.27587890625,-0.940673828125,-0.023681640625,-1.1890244483947754,0.4573170840740204,0.18292683362960815,0.44999998807907104,0.15000000596046448,-9.149999618530273,36.718692779541016,0,
 920637,-0.283203125,-0.940185546875,-0.0244140625,-1.1585365533828735,0.4878048896789551,0.3658536672592163,2.549999952316284,1.9500000476837158,-9.300000190734863,36.67076873779297,0,
 920647,-0.271484375,-0.936279296875,-0.030029296875,-0.5182926654815674,0.15243902802467346,0.8536585569381714,1.7999999523162842,1.9500000476837158,-9.300000190734863,36.527000427246094,0,
 920657,-0.28369140625,-0.941650390625,-0.024169921875,-0.24390244483947754,0.27439025044441223,1.25,1.7999999523162842,1.9500000476837158,-9.300000190734863,36.814537048339844,0,
 920667,-0.279296875,-0.935791015625,-0.01904296875,0.3353658616542816,0.18292683362960815,1.0670732259750366,2.4000000953674316,3.75,-10.949999809265137,36.814537048339844,0,
 920677,-0.28759765625,-0.9375,-0.01611328125,0.27439025044441223,-0.27439025044441223,0.9146341681480408,1.5,0.0,-7.800000190734863,36.814537048339844,0,
 920687,-0.279541015625,-0.93505859375,-0.014892578125,-0.4268292784690857,0.4573170840740204,0.18292683362960815,0.8999999761581421,0.15000000596046448,-8.699999809265137,36.67076873779297,0,
 920697,-0.281005859375,-0.934326171875,-0.01513671875,-0.7621951103210449,0.3658536672592163,0.030487805604934692,0.8999999761581421,0.15000000596046448,-8.699999809265137,36.718692779541016,0,
 920707,-0.28662109375,-0.93701171875,-0.01611328125,-0.9756097793579102,0.3048780560493469,-0.18292683362960815,0.44999998807907104,2.8499999046325684,-7.650000095367432,36.57492446899414,0,
 920717,-0.276611328125,-0.93408203125,-0.013916015625,-1.1280487775802612,0.7012194991111755,-0.3353658616542816,1.5,0.30000001192092896,-9.0,36.86246109008789,0,
 920727,-0.275146484375,-0.93505859375,-0.02294921875,-0.5792682766914368,0.6097561120986938,-0.24390244483947754,1.0499999523162842,1.0499999523162842,-7.800000190734863,36.67076873779297,0,
 920737,-0.281494140625,-0.937744140625,-0.024169921875,-0.7012194991111755,0.4573170840740204,0.09146341681480408,1.0499999523162842,3.1500000953674316,-7.800000190734863,36.718692779541016,0,
 920747,-0.28173828125,-0.9345703125,-0.0263671875,-0.3353658616542816,0.18292683362960815,0.5182926654815674,1.0499999523162842,3.1500000953674316,-7.800000190734863,36.814537048339844,0,
 920757,-0.276611328125,-0.92431640625,-0.02197265625,-0.21341463923454285,0.15243902802467346,0.4573170840740204,3.0,3.1500000953674316,-7.5,36.47908020019531,0,
 920767,-0.283203125,-0.935791015625,-0.024169921875,-0.15243902802467346,0.09146341681480408,0.792682945728302,0.15000000596046448,2.549999952316284,-11.399999618530273,36.527000427246094,0,
 920777,-0.287109375,-0.9384765625,-0.02392578125,0.060975611209869385,-0.030487805604934692,0.7621951103210449,0.0,1.0499999523162842,-8.25,36.814537048339844,0,
 920787,-0.27734375,-0.938232421875,-0.020263671875,0.24390244483947754,0.27439025044441223,0.7621951103210449,0.0,1.0499999523162842,-8.25,36.814537048339844,0,
 920797,-0.28271484375,-0.928466796875,-0.020263671875,-0.030487805604934692,0.396341472864151,0.3048780560493469,1.7999999523162842,1.0499999523162842,-8.550000190734863,36.57492446899414,0,
 920807,-0.27490234375,-0.94091796875,-0.013671875,-0.09146341681480408,0.18292683362960815,0.4268292784690857,0.44999998807907104,0.44999998807907104,-9.449999809265137,36.57492446899414,0,
 920817,-0.2802734375,-0.935791015625,-0.014404296875,-0.7317073345184326,0.27439025044441223,0.09146341681480408,2.25,0.75,-8.25,36.718692779541016,0,
 920827,-0.28466796875,-0.945068359375,-0.021240234375,-0.9146341681480408,0.3658536672592163,0.030487805604934692,0.30000001192092896,0.30000001192092896,-9.0,36.57492446899414,0,
 920837,-0.27734375,-0.9365234375,-0.020751953125,-0.9146341681480408,0.4268292784690857,0.15243902802467346,0.30000001192092896,0.30000001192092896,-9.0,36.814537048339844,0,
 920847,-0.28271484375,-0.93994140625,-0.0263671875,-0.6097561120986938,0.396341472864151,0.060975611209869385,1.0499999523162842,1.5,-8.550000190734863,36.86246109008789,0,
 920857,-0.27685546875,-0.93603515625,-0.025390625,-0.6402438879013062,0.5487805008888245,0.15243902802467346,1.5,2.25,-9.0,36.527000427246094,0,
 920867,-0.276123046875,-0.931640625,-0.021484375,-0.18292683362960815,0.5182926654815674,0.3658536672592163,1.2000000476837158,0.8999999761581421,-7.199999809265137,36.67076873779297,0,
 920877,-0.280029296875,-0.9326171875,-0.022216796875,-0.4268292784690857,0.030487805604934692,0.4573170840740204,0.8999999761581421,2.8499999046325684,-7.199999809265137,36.57492446899414,0,
 920887,-0.283935546875,-0.936767578125,-0.02490234375,-0.09146341681480408,0.27439025044441223,0.12195122241973877,0.8999999761581421,2.8499999046325684,-7.199999809265137,36.527000427246094,0,
 920897,-0.28076171875,-0.943115234375,-0.022705078125,-0.4573170840740204,0.09146341681480408,0.7621951103210449,0.15000000596046448,2.0999999046325684,-7.650000095367432,36.814537048339844,0,
 920907,-0.281005859375,-0.94384765625,-0.022216796875,-0.4878048896789551,0.3353658616542816,0.0,1.5,2.25,-9.0,36.527000427246094,0,
 920918,-0.28466796875,-0.931640625,-0.02001953125,-0.4268292784690857,0.3048780560493469,0.18292683362960815,0.30000001192092896,3.1500000953674316,-8.550000190734863,36.57492446899414,0,
 920928,-0.28125,-0.935546875,-0.01953125,-0.5792682766914368,0.24390244483947754,-0.030487805604934692,0.30000001192092896,3.1500000953674316,-8.550000190734863,36.718692779541016,0,
 920938,-0.276611328125,-0.934814453125,-0.016845703125,-0.5792682766914368,0.6402438879013062,-0.15243902802467346,1.5,1.9500000476837158,-7.800000190734863,36.67076873779297,0,
 920948,-0.282958984375,-0.93798828125,-0.027099609375,-0.5792682766914368,0.5487805008888245,-0.030487805604934692,1.7999999523162842,2.25,-8.550000190734863,36.527000427246094,0,
 920958,-0.281005859375,-0.939697265625,-0.0224609375,-0.3658536672592163,0.4268292784690857,0.15243902802467346,2.4000000953674316,0.8999999761581421,-9.449999809265137,36.33531188964844,0,
 920968,-0.278076171875,-0.9365234375,-0.0224609375,-0.9146341681480408,0.5792682766914368,0.4268292784690857,1.0499999523162842,0.0,-8.25,36.718692779541016,0,
 920978,-0.2841796875,-0.938720703125,-0.02099609375,-0.4268292784690857,0.5792682766914368,0.7012194991111755,1.0499999523162842,0.0,-8.25,36.718692779541016,0,
 920988,-0.28857421875,-0.939453125,-0.022216796875,-0.396341472864151,0.12195122241973877,0.6097561120986938,0.30000001192092896,2.25,-8.550000190734863,36.814537048339844,0,
 920998,-0.27587890625,-0.932373046875,-0.023193359375,-0.24390244483947754,0.0,0.4878048896789551,1.0499999523162842,1.9500000476837158,-9.75,36.57492446899414,0,
 921008,-0.28271484375,-0.9365234375,-0.018310546875,-0.24390244483947754,0.18292683362960815,0.5487805008888245,2.0999999046325684,1.649999976158142,-8.699999809265137,36.67076873779297,0,
 921018,-0.28271484375,-0.9365234375,-0.01904296875,-0.4878048896789551,0.5487805008888245,0.5792682766914368,2.0999999046325684,1.649999976158142,-8.699999809265137,36.57492446899414,0,
 921028,-0.287109375,-0.938232421875,-0.021484375,-0.6707317233085632,0.4573170840740204,0.3658536672592163,1.0499999523162842,0.75,-9.300000190734863,36.91038513183594,0,
 921038,-0.28466796875,-0.9375,-0.01953125,-0.6707317233085632,0.3658536672592163,-0.24390244483947754,0.8999999761581421,2.0999999046325684,-8.399999618530273,36.718692779541016,0,
 921048,-0.27734375,-0.941650390625,-0.0166015625,-1.0060975551605225,0.18292683362960815,0.060975611209869385,0.44999998807907104,0.44999998807907104,-9.449999809265137,36.57492446899414,0,
 921058,-0.283203125,-0.93798828125,-0.02490234375,-1.1280487775802612,0.3048780560493469,-0.15243902802467346,1.2000000476837158,0.8999999761581421,-8.399999618530273,36.57492446899414,0,
 921068,-0.2763671875,-0.9423828125,-0.02197265625,-0.9146341681480408,0.24390244483947754,-0.15243902802467346,1.2000000476837158,0.8999999761581421,-8.399999618530273,36.67076873779297,0,
 921078,-0.279052734375,-0.940185546875,-0.027587890625,-0.9451219439506531,0.5792682766914368,0.060975611209869385,3.1500000953674316,3.299999952316284,-10.199999809265137,36.814537048339844,0,
 921088,-0.28076171875,-0.93505859375,-0.022216796875,-1.1585365533828735,0.4573170840740204,0.27439025044441223,2.0999999046325684,0.44999998807907104,-9.899999618530273,36.47908020019531,0,
 921098,-0.2744140625,-0.93505859375,-0.02734375,-0.18292683362960815,0.3353658616542816,0.3658536672592163,1.0499999523162842,2.25,-7.050000190734863,36.718692779541016,0,
 921108,-0.28173828125,-0.933349609375,-0.03076171875,-0.4573170840740204,0.060975611209869385,0.6707317233085632,1.649999976158142,1.649999976158142,-8.699999809265137,36.814537048339844,0,
 921118,-0.28369140625,-0.93212890625,-0.024658203125,0.060975611209869385,0.0,0.7317073345184326,1.649999976158142,1.649999976158142,-8.699999809265137,36.67076873779297,0,
 921128,-0.28125,-0.93603515625,-0.01513671875,0.15243902802467346,0.396341472864151,0.6402438879013062,0.30000001192092896,3.1500000953674316,-7.800000190734863,36.38323211669922,0,
 921138,-0.28173828125,-0.940673828125,-0.019775390625,-0.12195122241973877,-0.030487805604934692,0.5487805008888245,0.30000001192092896,1.0499999523162842,-7.5,36.57492446899414,0,
 921148,-0.279541015625,-0.93798828125,-0.020751953125,-0.3048780560493469,0.18292683362960815,0.15243902802467346,1.0499999523162842,3.450000047683716,-9.0,36.67076873779297,0,
 921158,-0.283935546875,-0.936767578125,-0.020263671875,-0.3048780560493469,0.3658536672592163,0.0,1.0499999523162842,3.450000047683716,-9.0,36.527000427246094,0,
 921168,-0.28076171875,-0.93798828125,-0.013427734375,-0.6402438879013062,0.396341472864151,-0.3353658616542816,0.8999999761581421,2.0999999046325684,-8.399999618530273,36.67076873779297,0,
 921178,-0.28564453125,-0.94287109375,-0.02294921875,-0.9451219439506531,0.3658536672592163,-0.15243902802467346,0.44999998807907104,2.0999999046325684,-9.449999809265137,36.86246109008789,0,
 921188,-0.28515625,-0.934326171875,-0.01904296875,-0.9756097793579102,0.396341472864151,-0.4878048896789551,0.8999999761581421,1.350000023841858,-9.449999809265137,36.718692779541016,0,
 921198,-0.283203125,-0.93701171875,-0.016357421875,-1.0670732259750366,0.27439025044441223,-0.15243902802467346,1.5,1.0499999523162842,-7.050000190734863,36.47908020019531,0,
 921208,-0.281982421875,-0.94091796875,-0.0185546875,-0.7012194991111755,0.27439025044441223,0.5182926654815674,1.5,1.0499999523162842,-7.050000190734863,36.527000427246094,0,
 921218,-0.284912109375,-0.93798828125,-0.02685546875,-0.4878048896789551,0.27439025044441223,0.6402438879013062,1.2000000476837158,2.8499999046325684,-9.449999809265137,36.57492446899414,0,
 921228,-0.2822265625,-0.935546875,-0.029541015625,0.09146341681480408,0.5487805008888245,0.5487805008888245,1.5,1.9500000476837158,-7.800000190734863,36.718692779541016,0,
 921238,-0.27734375,-0.933837890625,-0.020751953125,0.3658536672592163,0.27439025044441223,0.8841463327407837,1.5,1.9500000476837158,-7.800000190734863,36.57492446899414,0,
 921248,-0.287353515625,-0.930908203125,-0.016845703125,0.15243902802467346,0.0,1.0365853309631348,1.5,1.9500000476837158,-7.800000190734863,36.47908020019531,0,
 921258,-0.280517578125,-0.9375,-0.021484375,0.09146341681480408,0.24390244483947754,0.6707317233085632,1.2000000476837158,1.649999976158142,-9.449999809265137,36.814537048339844,0,
 921268,-0.2802734375,-0.940185546875,-0.01904296875,-0.3658536672592163,0.3353658616542816,0.3658536672592163,-1.2000000476837158,2.549999952316284,-8.699999809265137,36.814537048339844,0,
 921278,-0.279052734375,-0.94287109375,-0.02685546875,-0.792682945728302,0.4878048896789551,0.15243902802467346,1.5,1.5,-8.550000190734863,36.86246109008789,0,
 921288,-0.278076171875,-0.939208984375,-0.0205078125,-0.8231707215309143,0.4878048896789551,-0.09146341681480408,1.2000000476837158,1.649999976158142,-7.949999809265137,36.718692779541016,0,
 921298,-0.271728515625,-0.9375,-0.02294921875,-1.097561001777649,0.7012194991111755,-0.15243902802467346,1.2000000476837158,1.649999976158142,-7.949999809265137,36.38323211669922,0,
 921308,-0.279541015625,-0.937255859375,-0.01513671875,-0.9451219439506531,0.5182926654815674,-0.3048780560493469,0.30000001192092896,1.9500000476837158,-8.25,36.91038513183594,0,
 921318,-0.281005859375,-0.939208984375,-0.019775390625,-0.7317073345184326,0.3353658616542816,-0.5487805008888245,1.2000000476837158,3.299999952316284,-7.199999809265137,36.57492446899414,0,
 921328,-0.275634765625,-0.93994140625,-0.0185546875,-0.7012194991111755,0.21341463923454285,-0.15243902802467346,2.0999999046325684,1.649999976158142,-7.949999809265137,36.86246109008789,0,
 921338,-0.27880859375,-0.934814453125,-0.024169921875,-0.6707317233085632,0.5182926654815674,0.4268292784690857,2.0999999046325684,1.649999976158142,-7.949999809265137,36.86246109008789,0,
 921348,-0.276611328125,-0.938232421875,-0.029296875,-0.8536585569381714,0.3353658616542816,0.7012194991111755,2.8499999046325684,1.649999976158142,-6.900000095367432,36.38323211669922,0,
 921358,-0.27978515625,-0.940673828125,-0.02392578125,-0.4268292784690857,0.15243902802467346,1.0060975551605225,1.7999999523162842,2.25,-8.25,36.57492446899414,0,
 921368,-0.279052734375,-0.9384765625,-0.018798828125,-0.12195122241973877,0.3353658616542816,0.9146341681480408,-0.30000001192092896,3.1500000953674316,-6.75,36.91038513183594,0,
 921378,-0.2822265625,-0.935546875,-0.0185546875,-0.3353658616542816,0.3658536672592163,0.5182926654815674,1.2000000476837158,2.8499999046325684,-8.699999809265137,36.814537048339844,0,
 921388,-0.281005859375,-0.940673828125,-0.01806640625,-0.09146341681480408,0.18292683362960815,0.396341472864151,1.2000000476837158,2.8499999046325684,-8.699999809265137,36.718692779541016,0,
 921398,-0.2783203125,-0.938232421875,-0.01513671875,-0.4268292784690857,0.030487805604934692,0.060975611209869385,1.2000000476837158,2.0999999046325684,-7.949999809265137,36.47908020019531,0,
 921408,-0.28515625,-0.9375,-0.0224609375,-0.5792682766914368,0.4268292784690857,0.09146341681480408,0.75,2.700000047683716,-8.25,36.718692779541016,0,
 921418,-0.28955078125,-0.9375,-0.021240234375,-0.7012194991111755,0.12195122241973877,-0.12195122241973877,-0.75,2.700000047683716,-6.75,36.527000427246094,0,
 921428,-0.2763671875,-0.935791015625,-0.02294921875,-0.9451219439506531,0.3658536672592163,0.030487805604934692,-0.15000000596046448,0.44999998807907104,-8.699999809265137,36.67076873779297,0,
 921438,-0.279541015625,-0.935302734375,-0.021484375,-0.9451219439506531,0.5792682766914368,-0.27439025044441223,-0.15000000596046448,0.44999998807907104,-8.699999809265137,36.67076873779297,0,
 921448,-0.2783203125,-0.938232421875,-0.021484375,-0.6707317233085632,0.4573170840740204,-0.24390244483947754,1.2000000476837158,0.44999998807907104,-9.149999618530273,36.57492446899414,0,
 921458,-0.27734375,-0.9365234375,-0.02099609375,-1.0365853309631348,0.3353658616542816,0.0,1.0499999523162842,1.9500000476837158,-7.050000190734863,36.814537048339844,0,
 921468,-0.277099609375,-0.93505859375,-0.025634765625,-0.4878048896789551,0.27439025044441223,0.6097561120986938,0.8999999761581421,2.0999999046325684,-6.900000095367432,36.814537048339844,0,
 921478,-0.27880859375,-0.937744140625,-0.01904296875,-0.3048780560493469,0.21341463923454285,1.0060975551605225,0.8999999761581421,2.0999999046325684,-6.900000095367432,36.814537048339844,0,
 921488,-0.282470703125,-0.93798828125,-0.02587890625,-0.060975611209869385,0.0,0.8231707215309143,3.9000000953674316,4.949999809265137,-10.949999809265137,36.718692779541016,0,
 921498,-0.277099609375,-0.934326171875,-0.017578125,0.4268292784690857,-0.030487805604934692,0.9756097793579102,0.75,1.5,-7.800000190734863,36.527000427246094,0,
 921508,-0.283935546875,-0.934814453125,-0.021240234375,0.030487805604934692,0.030487805604934692,0.7621951103210449,0.75,1.0499999523162842,-7.050000190734863,36.527000427246094,0,
 921518,-0.281982421875,-0.93603515625,-0.0185546875,-0.18292683362960815,0.18292683362960815,0.4878048896789551,0.75,2.25,-7.050000190734863,36.57492446899414,0,
 921528,-0.2861328125,-0.939208984375,-0.014404296875,-0.5792682766914368,0.09146341681480408,0.060975611209869385,0.75,2.25,-7.050000190734863,36.91038513183594,0,
 921538,-0.280029296875,-0.931640625,-0.01611328125,-0.5182926654815674,0.3353658616542816,-0.24390244483947754,0.8999999761581421,0.8999999761581421,-6.900000095367432,36.718692779541016,0,
 921548,-0.28369140625,-0.9365234375,-0.016357421875,-0.9451219439506531,0.3658536672592163,-0.5487805008888245,0.0,0.75,-8.25,36.57492446899414,0,
 921558,-0.278076171875,-0.94140625,-0.018310546875,-0.8536585569381714,0.6707317233085632,-0.792682945728302,0.15000000596046448,3.75,-8.399999618530273,36.67076873779297,0,
 921568,-0.276123046875,-0.94287109375,-0.02197265625,-1.2804877758026123,0.5792682766914368,-0.6402438879013062,0.15000000596046448,3.75,-8.399999618530273,36.718692779541016,0,
 921578,-0.276611328125,-0.939697265625,-0.025634765625,-1.1280487775802612,0.27439025044441223,0.27439025044441223,1.2000000476837158,2.549999952316284,-7.650000095367432,36.718692779541016,0,
 921588,-0.277587890625,-0.935546875,-0.027099609375,-0.396341472864151,0.3048780560493469,0.6707317233085632,-0.8999999761581421,4.050000190734863,-8.399999618530273,36.718692779541016,0,
 921598,-0.280029296875,-0.93896484375,-0.026611328125,0.15243902802467346,0.24390244483947754,1.0365853309631348,-0.15000000596046448,0.8999999761581421,-9.149999618530273,36.718692779541016,0,
 921608,-0.279052734375,-0.938720703125,-0.024658203125,0.09146341681480408,0.18292683362960815,1.1280487775802612,0.15000000596046448,2.0999999046325684,-7.199999809265137,36.86246109008789,0,
 921618,-0.2802734375,-0.935302734375,-0.021728515625,0.15243902802467346,0.21341463923454285,0.7621951103210449,0.15000000596046448,2.0999999046325684,-7.199999809265137,36.814537048339844,0,
 921628,-0.284423828125,-0.940673828125,-0.016845703125,-0.24390244483947754,0.3658536672592163,0.8841463327407837,-0.30000001192092896,3.1500000953674316,-8.25,36.718692779541016,0,
 921639,-0.2822265625,-0.942626953125,-0.0126953125,-0.5182926654815674,0.09146341681480408,0.3353658616542816,1.7999999523162842,1.9500000476837158,-8.25,36.718692779541016,0,
 921649,-0.284912109375,-0.93798828125,-0.018310546875,-0.8231707215309143,0.5792682766914368,-0.24390244483947754,0.15000000596046448,1.649999976158142,-8.699999809265137,36.86246109008789,0,
 921659,-0.281494140625,-0.9326171875,-0.017578125,-1.2804877758026123,0.6707317233085632,-0.21341463923454285,0.15000000596046448,1.350000023841858,-7.199999809265137,36.86246109008789,0,
 921669,-0.279296875,-0.9365234375,-0.0126953125,-1.3719512224197388,0.3658536672592163,-0.4268292784690857,0.15000000596046448,1.350000023841858,-7.199999809265137,36.718692779541016,0,
 921679,-0.2802734375,-0.935302734375,-0.02734375,-1.3109756708145142,0.4573170840740204,-0.3658536672592163,0.15000000596046448,1.649999976158142,-7.199999809265137,36.527000427246094,0,
 921689,-0.2734375,-0.939697265625,-0.024169921875,-1.0060975551605225,0.3048780560493469,-0.15243902802467346,-0.15000000596046448,1.649999976158142,-7.949999809265137,36.718692779541016,0,
 921699,-0.27685546875,-0.934326171875,-0.02880859375,-0.5792682766914368,0.4268292784690857,0.4878048896789551,0.44999998807907104,-0.8999999761581421,-10.199999809265137,36.57492446899414,0,
 921709,-0.276611328125,-0.94189453125,-0.023193359375,-0.3658536672592163,0.27439025044441223,0.8841463327407837,0.44999998807907104,-0.8999999761581421,-10.199999809265137,36.57492446899414,0,
 921719,-0.28369140625,-0.936767578125,-0.026123046875,-0.24390244483947754,0.27439025044441223,0.8841463327407837,1.2000000476837158,2.0999999046325684,-7.650000095367432,36.91038513183594,0,
 921729,-0.278564453125,-0.93896484375,-0.025146484375,0.15243902802467346,0.21341463923454285,1.0365853309631348,-0.15000000596046448,1.649999976158142,-7.199999809265137,36.718692779541016,0,
 921739,-0.283203125,-0.934814453125,-0.018798828125,0.12195122241973877,0.030487805604934692,1.0060975551605225,1.649999976158142,1.649999976158142,-6.900000095367432,36.527000427246094,0,
 921749,-0.281982421875,-0.941162109375,-0.019287109375,0.18292683362960815,-0.12195122241973877,0.3658536672592163,0.44999998807907104,2.8499999046325684,-7.650000095367432,36.718692779541016,0,
 921759,-0.2822265625,-0.935791015625,-0.013916015625,-0.396341472864151,0.27439025044441223,0.15243902802467346,0.44999998807907104,2.8499999046325684,-7.650000095367432,36.814537048339844,0,
 921769,-0.283203125,-0.93017578125,-0.02001953125,-0.5792682766914368,0.27439025044441223,-0.24390244483947754,0.75,1.9500000476837158,-8.550000190734863,36.57492446899414,0,
 921779,-0.28125,-0.935546875,-0.01904296875,-1.0365853309631348,0.4878048896789551,-0.030487805604934692,1.0499999523162842,0.75,-10.5,36.814537048339844,0,
 921789,-0.280029296875,-0.9345703125,-0.01708984375,-1.1280487775802612,0.3353658616542816,-0.21341463923454285,1.5,2.25,-9.75,36.47908020019531,0,
 921799,-0.27587890625,-0.93505859375,-0.020751953125,-1.0365853309631348,0.5487805008888245,-0.030487805604934692,1.5,2.25,-9.75,36.67076873779297,0,
 921809,-0.2783203125,-0.940185546875,-0.02734375,-0.6707317233085632,0.6402438879013062,0.060975611209869385,2.4000000953674316,1.649999976158142,-8.399999618530273,36.814537048339844,0,
 921819,-0.279541015625,-0.936767578125,-0.02685546875,-0.6402438879013062,0.5487805008888245,0.24390244483947754,0.15000000596046448,2.549999952316284,-7.650000095367432,36.718692779541016,0,
 921829,-0.275390625,-0.9345703125,-0.02587890625,-0.12195122241973877,0.21341463923454285,0.396341472864151,2.0999999046325684,2.8499999046325684,-8.399999618530273,36.718692779541016,0,
 921839,-0.28466796875,-0.9296875,-0.02294921875,-0.3048780560493469,0.09146341681480408,0.8536585569381714,1.5,2.25,-9.0,36.38323211669922,0,
 921849,-0.28515625,-0.93994140625,-0.02001953125,-0.030487805604934692,0.27439025044441223,0.4573170840740204,1.5,2.25,-9.0,36.67076873779297,0,
 921859,-0.281005859375,-0.93798828125,-0.015869140625,0.24390244483947754,0.21341463923454285,0.6097561120986938,0.8999999761581421,2.0999999046325684,-8.699999809265137,36.67076873779297,0,
 921869,-0.2841796875,-0.937255859375,-0.01611328125,-0.27439025044441223,0.4268292784690857,0.3353658616542816,0.75,1.5,-7.800000190734863,36.527000427246094,0,
 921879,-0.27978515625,-0.937255859375,-0.015380859375,-0.7012194991111755,0.5182926654815674,0.060975611209869385,0.0,1.5,-9.300000190734863,36.814537048339844,0,
 921889,-0.281005859375,-0.93701171875,-0.022216796875,-0.7317073345184326,0.4268292784690857,-0.24390244483947754,0.0,1.5,-9.300000190734863,36.527000427246094,0,
 921899,-0.276123046875,-0.9375,-0.017822265625,-0.6402438879013062,0.4573170840740204,-0.27439025044441223,2.4000000953674316,2.8499999046325684,-10.199999809265137,36.86246109008789,0,
 921909,-0.28076171875,-0.9375,-0.018798828125,-1.1585365533828735,0.6707317233085632,-0.3658536672592163,1.2000000476837158,0.44999998807907104,-7.949999809265137,36.67076873779297,0,
 921919,-0.274658203125,-0.93798828125,-0.02197265625,-1.2195122241973877,0.7012194991111755,-0.6402438879013062,0.75,1.9500000476837158,-6.300000190734863,36.67076873779297,0,
 921929,-0.281494140625,-0.943603515625,-0.025146484375,-0.6707317233085632,0.5182926654815674,0.15243902802467346,1.0499999523162842,1.9500000476837158,-7.5,36.814537048339844,0,
 921939,-0.27294921875,-0.9296875,-0.021484375,-0.6402438879013062,0.6707317233085632,0.3353658616542816,1.0499999523162842,1.9500000476837158,-7.5,36.57492446899414,0,
 921949,-0.27685546875,-0.93603515625,-0.026611328125,-0.4878048896789551,0.27439025044441223,0.9756097793579102,0.30000001192092896,2.25,-8.550000190734863,36.57492446899414,0,
 921959,-0.281982421875,-0.937255859375,-0.019287109375,-0.27439025044441223,0.030487805604934692,1.0060975551605225,1.649999976158142,1.350000023841858,-8.399999618530273,36.527000427246094,0,
 921969,-0.2802734375,-0.9326171875,-0.0224609375,-0.18292683362960815,0.396341472864151,1.0365853309631348,1.7999999523162842,3.1500000953674316,-8.550000190734863,36.718692779541016,0,
 921979,-0.282470703125,-0.93994140625,-0.0166015625,0.09146341681480408,0.09146341681480408,0.5182926654815674,0.0,0.75,-8.25,36.57492446899414,0,
 921989,-0.28662109375,-0.934814453125,-0.01171875,-0.060975611209869385,0.09146341681480408,0.9146341681480408,0.0,0.75,-8.25,36.67076873779297,0,
 921999,-0.281982421875,-0.931884765625,-0.01513671875,-0.4573170840740204,0.060975611209869385,0.3353658616542816,0.8999999761581421,2.0999999046325684,-8.699999809265137,36.86246109008789,0,
 922009,-0.28857421875,-0.937744140625,-0.02099609375,-0.3658536672592163,0.24390244483947754,0.030487805604934692,1.7999999523162842,1.9500000476837158,-8.25,36.814537048339844,0,
 922019,-0.2880859375,-0.936767578125,-0.020263671875,-0.6402438879013062,0.396341472864151,-0.15243902802467346,2.25,2.25,-9.0,36.527000427246094,0,
 922029,-0.280517578125,-0.940185546875,-0.021484375,-0.7621951103210449,0.7317073345184326,-0.12195122241973877,2.25,2.25,-9.0,36.527000427246094,0,
 922039,-0.281005859375,-0.93896484375,-0.022216796875,-1.097561001777649,0.396341472864151,-0.060975611209869385,2.0999999046325684,0.8999999761581421,-9.149999618530273,36.814537048339844,0,
 922049,-0.28076171875,-0.9384765625,-0.0263671875,-0.6097561120986938,0.5792682766914368,-0.3658536672592163,0.44999998807907104,1.649999976158142,-7.650000095367432,36.718692779541016,0,
 922059,-0.279541015625,-0.93701171875,-0.02294921875,-0.5792682766914368,0.18292683362960815,0.3353658616542816,0.0,3.450000047683716,-7.800000190734863,36.57492446899414,0,
 922069,-0.276611328125,-0.937255859375,-0.0234375,-0.4573170840740204,0.18292683362960815,0.8536585569381714,0.30000001192092896,2.700000047683716,-8.25,36.86246109008789,0,
 922079,-0.27978515625,-0.932861328125,-0.0205078125,-0.21341463923454285,0.4573170840740204,0.5792682766914368,0.30000001192092896,2.700000047683716,-8.25,36.1915397644043,0,
 922089,-0.279296875,-0.936767578125,-0.025390625,-0.12195122241973877,0.060975611209869385,0.7012194991111755,1.2000000476837158,1.350000023841858,-7.949999809265137,36.67076873779297,0,
 922099,-0.280029296875,-0.935546875,-0.02001953125,-0.09146341681480408,0.3048780560493469,0.4268292784690857,0.0,2.25,-11.25,36.57492446899414,0,
 922109,-0.2841796875,-0.940673828125,-0.01513671875,0.0,0.0,0.6097561120986938,0.0,0.75,-11.25,36.67076873779297,0,
 922119,-0.287109375,-0.938232421875,-0.014892578125,-0.396341472864151,0.4878048896789551,0.12195122241973877,0.0,0.75,-11.25,36.718692779541016,0,
 922129,-0.281005859375,-0.931640625,-0.01953125,-0.6707317233085632,0.4268292784690857,0.21341463923454285,0.15000000596046448,2.0999999046325684,-8.399999618530273,36.47908020019531,0,
 922139,-0.27978515625,-0.93310546875,-0.019775390625,-0.6097561120986938,0.4878048896789551,0.21341463923454285,1.0499999523162842,0.75,-8.25,36.718692779541016,0,
 922149,-0.27685546875,-0.940185546875,-0.020751953125,-0.7317073345184326,0.4268292784690857,-0.09146341681480408,-0.30000001192092896,1.9500000476837158,-7.800000190734863,36.718692779541016,0,
 922159,-0.28515625,-0.940185546875,-0.023193359375,-0.7012194991111755,0.3658536672592163,0.0,0.75,1.9500000476837158,-8.25,36.67076873779297,0,
 922169,-0.280517578125,-0.93505859375,-0.0244140625,-0.792682945728302,0.3658536672592163,-0.12195122241973877,0.75,1.9500000476837158,-8.25,36.86246109008789,0,
 922179,-0.28271484375,-0.938720703125,-0.025634765625,-0.792682945728302,0.4268292784690857,0.18292683362960815,1.0499999523162842,1.5,-7.5,36.47908020019531,0,
 922189,-0.27880859375,-0.93701171875,-0.02197265625,-0.6707317233085632,0.18292683362960815,0.5487805008888245,0.8999999761581421,2.0999999046325684,-7.199999809265137,36.57492446899414,0,
 922199,-0.277099609375,-0.94287109375,-0.02099609375,-0.4878048896789551,0.12195122241973877,0.9451219439506531,0.44999998807907104,2.549999952316284,-8.399999618530273,36.86246109008789,0,
 922209,-0.27734375,-0.9384765625,-0.01806640625,0.3353658616542816,0.18292683362960815,0.4573170840740204,1.5,1.5,-11.25,36.527000427246094,0,
