timestamp,accl_x,accl_y,accl_z,gyro_x,gyro_y,gyro_z,mag_x,mag_y,mag_z,temp,emg,
 23873,-0.311767578125,-0.918701171875,-0.0283203125,-0.6097561120986938,0.4878048896789551,0.4268292784690857,2.4000000953674316,0.8999999761581421,-10.949999809265137,37.38961410522461,0,
 23883,-0.31005859375,-0.9287109375,-0.0234375,-0.4268292784690857,0.27439025044441223,0.18292683362960815,1.2000000476837158,1.649999976158142,-7.949999809265137,37.34169006347656,0,
 23893,-0.31298828125,-0.93212890625,-0.025390625,-0.4268292784690857,0.3658536672592163,0.3353658616542816,3.299999952316284,1.5,-7.050000190734863,37.19792175292969,0,
 23903,-0.305908203125,-0.92626953125,-0.021728515625,-0.7317073345184326,0.3048780560493469,0.15243902802467346,0.75,1.0499999523162842,-7.5,37.19792175292969,0,
 23913,-0.314453125,-0.928466796875,-0.026123046875,-0.4878048896789551,0.4573170840740204,0.12195122241973877,0.75,1.0499999523162842,-7.5,37.19792175292969,0,
 23923,-0.310302734375,-0.9287109375,-0.0244140625,-0.5182926654815674,0.4878048896789551,0.3048780560493469,1.7999999523162842,3.450000047683716,-7.800000190734863,37.34169006347656,0,
 23933,-0.3154296875,-0.9326171875,-0.021728515625,-0.5792682766914368,0.3658536672592163,0.060975611209869385,2.4000000953674316,2.0999999046325684,-7.650000095367432,37.245845794677734,0,
 23943,-0.3134765625,-0.9345703125,-0.02392578125,-0.3658536672592163,0.27439025044441223,0.15243902802467346,1.2000000476837158,1.350000023841858,-7.949999809265137,36.86246109008789,0,
 23953,-0.316162109375,-0.931396484375,-0.018798828125,-0.6097561120986938,0.27439025044441223,0.27439025044441223,1.7999999523162842,0.75,-7.800000190734863,37.245845794677734,0,
 23963,-0.312255859375,-0.93017578125,-0.024169921875,-0.18292683362960815,0.5792682766914368,0.030487805604934692,1.7999999523162842,1.0499999523162842,-7.5,37.19792175292969,0,
 23973,-0.31494140625,-0.9287109375,-0.02099609375,-0.5792682766914368,0.4878048896789551,0.24390244483947754,2.4000000953674316,4.5,-10.649999618530273,37.05415344238281,0,
 23983,-0.3115234375,-0.9248046875,-0.0224609375,-0.4268292784690857,0.4573170840740204,-0.18292683362960815,1.0499999523162842,1.0499999523162842,-7.800000190734863,37.38961410522461,0,
 23993,-0.312744140625,-0.930419921875,-0.022705078125,-0.792682945728302,0.7621951103210449,-0.09146341681480408,2.8499999046325684,0.8999999761581421,-8.399999618530273,37.245845794677734,0,
 24003,-0.312255859375,-0.924072265625,-0.02001953125,-0.5487805008888245,0.6402438879013062,-0.3353658616542816,2.8499999046325684,0.8999999761581421,-8.399999618530273,37.34169006347656,0,
 24013,-0.312744140625,-0.929443359375,-0.020751953125,-0.7012194991111755,0.6707317233085632,-0.030487805604934692,1.2000000476837158,1.350000023841858,-6.900000095367432,37.245845794677734,0,
 24023,-0.3095703125,-0.927734375,-0.0234375,-0.5792682766914368,0.5792682766914368,-0.060975611209869385,1.649999976158142,2.0999999046325684,-7.650000095367432,37.245845794677734,0,
 24033,-0.30810546875,-0.930908203125,-0.021484375,-0.396341472864151,0.5792682766914368,0.030487805604934692,2.0999999046325684,1.350000023841858,-7.650000095367432,37.34169006347656,0,
 24043,-0.307861328125,-0.922119140625,-0.02294921875,-0.8231707215309143,0.4268292784690857,0.4268292784690857,1.0499999523162842,1.5,-8.25,37.245845794677734,0,
 24053,-0.30810546875,-0.9306640625,-0.025146484375,-0.6097561120986938,0.15243902802467346,0.3658536672592163,1.0499999523162842,1.5,-8.25,37.34169006347656,0,
 24063,-0.3193359375,-0.930908203125,-0.021240234375,-0.24390244483947754,0.15243902802467346,0.7012194991111755,1.5,2.25,-7.5,37.34169006347656,0,
 24073,-0.308349609375,-0.927490234375,-0.024169921875,-0.4268292784690857,0.21341463923454285,0.060975611209869385,0.75,2.25,-7.050000190734863,37.006229400634766,0,
 24083,-0.310302734375,-0.927001953125,-0.024658203125,-0.3658536672592163,0.21341463923454285,0.7012194991111755,0.44999998807907104,0.15000000596046448,-9.149999618530273,37.10207748413086,0,
 24093,-0.318603515625,-0.927978515625,-0.0205078125,-0.27439025044441223,0.0,0.4573170840740204,0.44999998807907104,0.15000000596046448,-9.149999618530273,37.19792175292969,0,
 24103,-0.3115234375,-0.9306640625,-0.025634765625,-0.24390244483947754,0.18292683362960815,0.3353658616542816,1.5,0.75,-8.550000190734863,37.38961410522461,0,
 24113,-0.317138671875,-0.932373046875,-0.021484375,-0.396341472864151,0.6707317233085632,0.12195122241973877,0.8999999761581421,1.350000023841858,-7.949999809265137,37.34169006347656,0,
 24123,-0.310546875,-0.92724609375,-0.020751953125,-0.9451219439506531,0.6402438879013062,0.12195122241973877,2.0999999046325684,1.350000023841858,-7.949999809265137,37.34169006347656,0,
 24133,-0.315185546875,-0.927001953125,-0.023193359375,-0.6097561120986938,0.3353658616542816,-0.15243902802467346,1.0499999523162842,0.30000001192092896,-9.0,37.245845794677734,0,
 24143,-0.31201171875,-0.93505859375,-0.014892578125,-0.792682945728302,0.5182926654815674,0.030487805604934692,1.0499999523162842,0.30000001192092896,-9.0,37.245845794677734,0,
 24153,-0.311767578125,-0.932861328125,-0.026611328125,-0.5792682766914368,0.396341472864151,0.18292683362960815,0.8999999761581421,1.350000023841858,-9.149999618530273,37.10207748413086,0,
 24163,-0.3095703125,-0.92724609375,-0.026123046875,-0.3658536672592163,0.396341472864151,0.3658536672592163,1.649999976158142,2.8499999046325684,-7.199999809265137,37.19792175292969,0,
 24173,-0.305419921875,-0.930419921875,-0.02783203125,-0.3048780560493469,0.396341472864151,0.5487805008888245,1.7999999523162842,1.5,-8.25,37.34169006347656,0,
 24183,-0.31787109375,-0.925537109375,-0.02490234375,0.15243902802467346,0.18292683362960815,0.8536585569381714,1.7999999523162842,1.5,-8.25,37.34169006347656,0,
 24193,-0.3115234375,-0.928955078125,-0.019287109375,-0.12195122241973877,-0.060975611209869385,0.7012194991111755,3.0,4.349999904632568,-8.25,37.05415344238281,0,
 24203,-0.309814453125,-0.92431640625,-0.018798828125,0.12195122241973877,-0.18292683362960815,0.5182926654815674,2.0999999046325684,2.549999952316284,-7.650000095367432,37.38961410522461,0,
 24213,-0.309326171875,-0.930419921875,-0.021728515625,-0.12195122241973877,-0.09146341681480408,0.7621951103210449,2.25,1.5,-7.5,37.38961410522461,0,
 24223,-0.30908203125,-0.934326171875,-0.017578125,-0.4878048896789551,0.5487805008888245,0.396341472864151,2.25,2.700000047683716,-7.5,37.245845794677734,0,
 24233,-0.314208984375,-0.923828125,-0.01953125,-0.4573170840740204,0.4268292784690857,0.18292683362960815,2.25,2.700000047683716,-7.5,37.38961410522461,0,
 24243,-0.310302734375,-0.923828125,-0.019775390625,-0.7621951103210449,0.396341472864151,0.24390244483947754,2.4000000953674316,2.0999999046325684,-7.949999809265137,37.05415344238281,0,
 24253,-0.31298828125,-0.925048828125,-0.024169921875,-0.792682945728302,0.3353658616542816,-0.18292683362960815,2.549999952316284,1.0499999523162842,-8.25,37.43753433227539,0,
 24263,-0.31005859375,-0.934326171875,-0.0224609375,-0.6707317233085632,0.27439025044441223,0.060975611209869385,1.2000000476837158,2.0999999046325684,-7.650000095367432,37.43753433227539,0,
 24273,-0.309326171875,-0.931640625,-0.02490234375,-0.6097561120986938,0.6402438879013062,-0.24390244483947754,1.2000000476837158,2.0999999046325684,-7.650000095367432,37.34169006347656,0,
 24283,-0.315185546875,-0.923583984375,-0.024169921875,-0.5792682766914368,0.3048780560493469,0.0,0.8999999761581421,1.649999976158142,-9.149999618530273,37.43753433227539,0,
 24293,-0.30908203125,-0.929443359375,-0.025146484375,-0.24390244483947754,0.0,0.3048780560493469,1.5,1.0499999523162842,-8.25,37.19792175292969,0,
 24303,-0.311279296875,-0.930908203125,-0.02197265625,-0.18292683362960815,0.27439025044441223,0.4573170840740204,0.15000000596046448,1.649999976158142,-7.650000095367432,37.34169006347656,0,
 24313,-0.309814453125,-0.930908203125,-0.02099609375,0.0,0.060975611209869385,0.24390244483947754,1.649999976158142,1.350000023841858,-7.949999809265137,37.34169006347656,0,
 24323,-0.3115234375,-0.924560546875,-0.021484375,-0.09146341681480408,-0.12195122241973877,0.27439025044441223,1.649999976158142,1.350000023841858,-7.949999809265137,37.581302642822266,0,
 24333,-0.309814453125,-0.929931640625,-0.02685546875,-0.21341463923454285,0.060975611209869385,0.030487805604934692,1.2000000476837158,2.549999952316284,-8.699999809265137,37.34169006347656,0,
 24343,-0.308837890625,-0.929931640625,-0.017333984375,-0.3658536672592163,0.7012194991111755,0.0,0.30000001192092896,3.450000047683716,-8.550000190734863,37.34169006347656,0,
 24353,-0.3125,-0.925537109375,-0.024169921875,-0.6707317233085632,0.5792682766914368,-0.030487805604934692,1.5,2.25,-8.550000190734863,37.34169006347656,0,
 24363,-0.310791015625,-0.92626953125,-0.02587890625,-0.396341472864151,0.3353658616542816,-0.030487805604934692,1.5,2.25,-8.550000190734863,37.34169006347656,0,
 24373,-0.307861328125,-0.92236328125,-0.022705078125,-0.18292683362960815,0.27439025044441223,0.4573170840740204,2.25,1.0499999523162842,-9.0,37.34169006347656,0,
 24383,-0.30810546875,-0.93017578125,-0.0263671875,-0.24390244483947754,0.27439025044441223,0.396341472864151,2.25,1.5,-10.5,36.91038513183594,0,
 24393,-0.30810546875,-0.931640625,-0.0205078125,-0.18292683362960815,0.09146341681480408,0.8231707215309143,1.0499999523162842,1.5,-8.550000190734863,37.38961410522461,0,
 24403,-0.309814453125,-0.930908203125,-0.02099609375,0.3353658616542816,0.24390244483947754,0.5487805008888245,0.8999999761581421,1.649999976158142,-8.699999809265137,37.34169006347656,0,
 24413,-0.311767578125,-0.93212890625,-0.024169921875,0.12195122241973877,0.3353658616542816,0.9756097793579102,0.8999999761581421,1.649999976158142,-8.699999809265137,37.19792175292969,0,
 24423,-0.316650390625,-0.927978515625,-0.022705078125,-0.12195122241973877,0.0,0.9451219439506531,1.0499999523162842,1.5,-8.550000190734863,37.05415344238281,0,
 24433,-0.31298828125,-0.927734375,-0.023193359375,-0.09146341681480408,0.12195122241973877,0.6097561120986938,1.2000000476837158,1.350000023841858,-8.699999809265137,37.006229400634766,0,
 24443,-0.313720703125,-0.93017578125,-0.018798828125,-0.09146341681480408,0.27439025044441223,0.7012194991111755,2.4000000953674316,1.350000023841858,-7.199999809265137,37.05415344238281,0,
 24453,-0.30908203125,-0.930419921875,-0.013916015625,-0.792682945728302,0.0,0.3658536672592163,2.4000000953674316,1.350000023841858,-7.199999809265137,37.38961410522461,0,
 24463,-0.3134765625,-0.92626953125,-0.025634765625,-0.4878048896789551,0.24390244483947754,0.09146341681480408,2.0999999046325684,2.0999999046325684,-7.650000095367432,37.34169006347656,0,
 24473,-0.31640625,-0.9267578125,-0.02099609375,-0.7012194991111755,0.4573170840740204,-0.030487805604934692,0.30000001192092896,2.25,-7.050000190734863,37.19792175292969,0,
 24483,-0.3115234375,-0.926513671875,-0.02099609375,-1.097561001777649,0.396341472864151,0.0,2.549999952316284,5.400000095367432,-9.300000190734863,37.006229400634766,0,
 24493,-0.308837890625,-0.92626953125,-0.01904296875,-0.9146341681480408,0.6402438879013062,-0.030487805604934692,0.30000001192092896,1.9500000476837158,-8.25,37.34169006347656,0,
 24503,-0.308837890625,-0.92431640625,-0.024658203125,-1.0365853309631348,0.5792682766914368,0.15243902802467346,0.30000001192092896,1.9500000476837158,-8.25,37.245845794677734,0,
 24513,-0.305908203125,-0.93017578125,-0.02001953125,-0.5487805008888245,0.4878048896789551,0.030487805604934692,2.549999952316284,3.1500000953674316,-9.0,37.43753433227539,0,
 24523,-0.314453125,-0.926025390625,-0.025390625,-0.7621951103210449,0.6097561120986938,0.060975611209869385,2.25,1.5,-7.800000190734863,37.43753433227539,0,
 24533,-0.3115234375,-0.92626953125,-0.022705078125,-0.6402438879013062,0.396341472864151,0.12195122241973877,1.649999976158142,1.350000023841858,-9.899999618530273,37.19792175292969,0,
 24543,-0.306396484375,-0.923828125,-0.019287109375,-0.5792682766914368,0.12195122241973877,0.24390244483947754,1.649999976158142,1.350000023841858,-9.899999618530273,37.34169006347656,0,
 24553,-0.309814453125,-0.929931640625,-0.02197265625,-0.5792682766914368,0.3353658616542816,0.09146341681480408,0.44999998807907104,1.350000023841858,-7.199999809265137,37.245845794677734,0,
 24564,-0.310791015625,-0.928955078125,-0.019775390625,-0.4878048896789551,0.396341472864151,0.15243902802467346,1.2000000476837158,2.0999999046325684,-7.949999809265137,37.34169006347656,0,
 24574,-0.316650390625,-0.92724609375,-0.018798828125,-0.7317073345184326,0.6402438879013062,0.3658536672592163,2.4000000953674316,1.350000023841858,-9.149999618530273,37.38961410522461,0,
 24584,-0.311279296875,-0.9296875,-0.021240234375,-0.7317073345184326,0.7317073345184326,0.060975611209869385,3.1500000953674316,2.8499999046325684,-7.949999809265137,37.19792175292969,0,
 24594,-0.311279296875,-0.927734375,-0.022705078125,-0.4268292784690857,0.7621951103210449,0.3048780560493469,3.1500000953674316,2.8499999046325684,-7.949999809265137,37.245845794677734,0,
 24604,-0.307373046875,-0.93212890625,-0.022216796875,-0.9146341681480408,0.6402438879013062,0.12195122241973877,2.4000000953674316,1.350000023841858,-8.399999618530273,37.34169006347656,0,
 24614,-0.314453125,-0.92724609375,-0.017333984375,-0.4573170840740204,0.396341472864151,0.4268292784690857,0.8999999761581421,0.8999999761581421,-5.699999809265137,37.43753433227539,0,
 24624,-0.3115234375,-0.923095703125,-0.025390625,-0.3353658616542816,0.4573170840740204,0.27439025044441223,1.2000000476837158,0.15000000596046448,-7.650000095367432,37.43753433227539,0,
 24634,-0.312255859375,-0.92822265625,-0.024658203125,-0.4878048896789551,0.396341472864151,0.27439025044441223,1.2000000476837158,0.15000000596046448,-7.650000095367432,37.34169006347656,0,
 24644,-0.30908203125,-0.93115234375,-0.014892578125,-0.5487805008888245,0.21341463923454285,0.09146341681480408,2.549999952316284,1.5,-8.25,37.19792175292969,0,
 24654,-0.307373046875,-0.927001953125,-0.015380859375,-0.5487805008888245,0.5792682766914368,-0.09146341681480408,1.0499999523162842,0.30000001192092896,-8.550000190734863,37.34169006347656,0,
 24664,-0.307373046875,-0.930908203125,-0.0244140625,-0.4878048896789551,0.3353658616542816,-0.21341463923454285,1.649999976158142,0.8999999761581421,-7.650000095367432,37.245845794677734,0,
 24674,-0.31201171875,-0.9287109375,-0.022216796875,-0.7012194991111755,0.5487805008888245,0.0,2.8499999046325684,1.649999976158142,-9.149999618530273,37.533382415771484,0,
 24684,-0.30908203125,-0.924560546875,-0.02001953125,-0.9756097793579102,0.6097561120986938,0.030487805604934692,2.8499999046325684,1.649999976158142,-9.149999618530273,37.006229400634766,0,
 24694,-0.3076171875,-0.922607421875,-0.02099609375,-0.8536585569381714,0.4573170840740204,0.030487805604934692,2.0999999046325684,0.44999998807907104,-11.399999618530273,37.34169006347656,0,
 24704,-0.301025390625,-0.931640625,-0.024169921875,-0.8536585569381714,0.4573170840740204,-0.12195122241973877,2.549999952316284,0.75,-7.800000190734863,37.34169006347656,0,
 24714,-0.3125,-0.93017578125,-0.023681640625,-0.9146341681480408,0.4573170840740204,-0.18292683362960815,1.5,1.0499999523162842,-7.050000190734863,37.38961410522461,0,
 24724,-0.306640625,-0.926025390625,-0.02587890625,-0.6402438879013062,0.4878048896789551,0.4268292784690857,1.5,1.0499999523162842,-7.050000190734863,37.34169006347656,0,
 24734,-0.308349609375,-0.9287109375,-0.0234375,-0.7621951103210449,0.396341472864151,0.5792682766914368,1.0499999523162842,1.0499999523162842,-7.800000190734863,37.05415344238281,0,
 24744,-0.314697265625,-0.927001953125,-0.02978515625,-0.4878048896789551,0.27439025044441223,0.7621951103210449,1.7999999523162842,2.700000047683716,-7.050000190734863,37.43753433227539,0,
 24754,-0.313232421875,-0.928466796875,-0.0205078125,-0.4878048896789551,0.4878048896789551,0.5792682766914368,2.0999999046325684,0.8999999761581421,-7.949999809265137,37.34169006347656,0,
 24764,-0.311767578125,-0.92626953125,-0.020263671875,-0.7621951103210449,0.24390244483947754,0.4878048896789551,2.4000000953674316,0.44999998807907104,-8.399999618530273,37.34169006347656,0,
 24774,-0.314453125,-0.92724609375,-0.020751953125,-0.7621951103210449,0.15243902802467346,0.060975611209869385,2.4000000953674316,0.44999998807907104,-8.399999618530273,37.05415344238281,0,
 24784,-0.3046875,-0.935791015625,-0.0234375,-0.8231707215309143,0.5792682766914368,0.15243902802467346,2.549999952316284,1.9500000476837158,-8.25,37.245845794677734,0,
 24794,-0.3095703125,-0.926025390625,-0.02294921875,-0.5792682766914368,0.3658536672592163,0.030487805604934692,2.8499999046325684,3.299999952316284,-11.699999809265137,37.34169006347656,0,
 24804,-0.31396484375,-0.93212890625,-0.02587890625,-0.7317073345184326,0.4573170840740204,-0.15243902802467346,1.7999999523162842,2.25,-9.300000190734863,37.34169006347656,0,
 24814,-0.314208984375,-0.93359375,-0.02197265625,-0.5792682766914368,0.4878048896789551,0.0,1.7999999523162842,2.25,-9.300000190734863,37.38961410522461,0,
 24824,-0.30859375,-0.93310546875,-0.021484375,-0.5182926654815674,0.4878048896789551,-0.18292683362960815,0.44999998807907104,-0.8999999761581421,-7.650000095367432,37.245845794677734,0,
 24834,-0.3125,-0.922119140625,-0.029541015625,-0.3353658616542816,0.3353658616542816,-0.396341472864151,1.5,2.25,-8.25,37.43753433227539,0,
 24844,-0.30517578125,-0.9296875,-0.015625,-0.396341472864151,0.12195122241973877,0.6097561120986938,-0.44999998807907104,1.350000023841858,-7.949999809265137,37.245845794677734,0,
 24854,-0.3134765625,-0.93310546875,-0.029052734375,-0.12195122241973877,0.6097561120986938,0.5182926654815674,2.8499999046325684,1.350000023841858,-6.900000095367432,37.006229400634766,0,
 24864,-0.30908203125,-0.92626953125,-0.028564453125,0.15243902802467346,0.030487805604934692,0.6402438879013062,2.8499999046325684,1.350000023841858,-6.900000095367432,37.245845794677734,0,
 24874,-0.31103515625,-0.928955078125,-0.02783203125,-0.09146341681480408,-0.12195122241973877,0.27439025044441223,1.7999999523162842,2.25,-7.800000190734863,37.10207748413086,0,
 24884,-0.310791015625,-0.929443359375,-0.0234375,-0.12195122241973877,0.060975611209869385,0.3658536672592163,2.0999999046325684,1.350000023841858,-7.650000095367432,37.05415344238281,0,
 24904,-0.310302734375,-0.929931640625,-0.020751953125,-0.060975611209869385,0.3048780560493469,0.09146341681480408,0.44999998807907104,1.649999976158142,-8.699999809265137,37.34169006347656,0,
 24914,-0.312255859375,-0.930908203125,-0.018798828125,-0.5182926654815674,0.3658536672592163,0.09146341681480408,0.44999998807907104,1.649999976158142,-8.699999809265137,37.38961410522461,0,
 24924,-0.3154296875,-0.9287109375,-0.02490234375,-0.4573170840740204,0.4268292784690857,0.030487805604934692,2.549999952316284,1.9500000476837158,-6.75,37.245845794677734,0,
 24934,-0.30615234375,-0.932373046875,-0.026123046875,-0.6707317233085632,0.18292683362960815,0.09146341681480408,2.549999952316284,1.0499999523162842,-7.800000190734863,37.245845794677734,0,
 24944,-0.30712890625,-0.923583984375,-0.025634765625,-0.5182926654815674,0.4878048896789551,0.18292683362960815,2.8499999046325684,1.350000023841858,-7.650000095367432,37.10207748413086,0,
 24954,-0.3095703125,-0.92822265625,-0.024658203125,-0.5487805008888245,0.6402438879013062,-0.030487805604934692,2.8499999046325684,1.350000023841858,-7.650000095367432,37.34169006347656,0,
 24964,-0.308837890625,-0.92529296875,-0.021484375,-0.5487805008888245,0.396341472864151,0.0,2.0999999046325684,1.350000023841858,-9.149999618530273,37.05415344238281,0,
 24974,-0.31494140625,-0.9326171875,-0.022705078125,-0.6402438879013062,0.27439025044441223,0.15243902802467346,0.8999999761581421,0.44999998807907104,-7.199999809265137,37.006229400634766,0,
 24984,-0.309326171875,-0.927001953125,-0.022216796875,-0.4878048896789551,0.18292683362960815,-0.09146341681480408,0.8999999761581421,1.649999976158142,-7.199999809265137,37.34169006347656,0,
 24994,-0.310791015625,-0.927001953125,-0.02099609375,-0.6402438879013062,0.4573170840740204,0.18292683362960815,1.7999999523162842,0.75,-9.0,37.245845794677734,0,
 25004,-0.3095703125,-0.930419921875,-0.02294921875,-1.0365853309631348,0.396341472864151,0.3658536672592163,1.7999999523162842,0.75,-9.0,37.10207748413086,0,
 25014,-0.310302734375,-0.927734375,-0.0224609375,-0.7317073345184326,0.4573170840740204,0.21341463923454285,2.549999952316284,1.0499999523162842,-7.5,37.38961410522461,0,
 25024,-0.305419921875,-0.928955078125,-0.027099609375,-0.9756097793579102,0.5182926654815674,-0.24390244483947754,1.5,1.0499999523162842,-7.800000190734863,37.006229400634766,0,
 25034,-0.310791015625,-0.927490234375,-0.0166015625,-0.8231707215309143,0.3658536672592163,0.09146341681480408,0.44999998807907104,0.44999998807907104,-6.900000095367432,37.19792175292969,0,
 25044,-0.313720703125,-0.930419921875,-0.020751953125,-0.792682945728302,0.5487805008888245,0.18292683362960815,0.44999998807907104,0.44999998807907104,-6.900000095367432,37.245845794677734,0,
 25054,-0.3056640625,-0.929931640625,-0.02392578125,-1.1280487775802612,0.6402438879013062,-0.060975611209869385,1.7999999523162842,2.25,-8.25,37.34169006347656,0,
 25064,-0.310302734375,-0.92724609375,-0.02392578125,-1.3109756708145142,0.5182926654815674,0.18292683362960815,2.25,1.0499999523162842,-8.25,37.34169006347656,0,
 25074,-0.308349609375,-0.928466796875,-0.018310546875,-1.1890244483947754,0.396341472864151,0.27439025044441223,0.44999998807907104,3.75,-6.900000095367432,37.245845794677734,0,
 25084,-0.307373046875,-0.933349609375,-0.02392578125,-1.0060975551605225,0.4573170840740204,0.396341472864151,2.25,1.5,-9.0,37.38961410522461,0,
 25094,-0.312744140625,-0.93115234375,-0.020751953125,-0.6707317233085632,0.396341472864151,0.18292683362960815,2.25,1.5,-9.0,37.245845794677734,0,
 25104,-0.30322265625,-0.93115234375,-0.030517578125,-0.8841463327407837,0.3048780560493469,0.4878048896789551,0.15000000596046448,2.0999999046325684,-10.199999809265137,37.245845794677734,0,
 25114,-0.310791015625,-0.935791015625,-0.022216796875,-0.12195122241973877,0.24390244483947754,0.5792682766914368,1.0499999523162842,0.75,-7.050000190734863,37.34169006347656,0,
 25124,-0.308349609375,-0.927978515625,-0.018798828125,-0.3658536672592163,0.09146341681480408,0.6097561120986938,1.0499999523162842,1.9500000476837158,-7.800000190734863,37.006229400634766,0,
 25134,-0.31103515625,-0.92529296875,-0.02685546875,-0.3353658616542816,0.3658536672592163,0.21341463923454285,1.0499999523162842,1.9500000476837158,-7.800000190734863,37.19792175292969,0,
 25144,-0.314208984375,-0.92626953125,-0.02294921875,-0.21341463923454285,0.3353658616542816,0.4573170840740204,1.5,1.9500000476837158,-5.25,37.19792175292969,0,
 25154,-0.310546875,-0.9296875,-0.022705078125,-0.24390244483947754,0.24390244483947754,0.3658536672592163,1.5,1.0499999523162842,-7.800000190734863,37.34169006347656,0,
 25164,-0.307861328125,-0.92822265625,-0.016845703125,-0.09146341681480408,0.060975611209869385,0.3658536672592163,1.7999999523162842,2.25,-8.25,37.34169006347656,0,
 25174,-0.311279296875,-0.9267578125,-0.021728515625,-0.060975611209869385,0.4268292784690857,0.09146341681480408,2.8499999046325684,0.44999998807907104,-6.150000095367432,37.05415344238281,0,
 25184,-0.31005859375,-0.933837890625,-0.019287109375,-0.09146341681480408,0.030487805604934692,-0.21341463923454285,2.8499999046325684,0.44999998807907104,-6.150000095367432,37.34169006347656,0,
 25194,-0.3154296875,-0.929443359375,-0.02587890625,-0.27439025044441223,0.27439025044441223,-0.030487805604934692,1.649999976158142,2.0999999046325684,-7.949999809265137,37.34169006347656,0,
 25204,-0.307373046875,-0.92822265625,-0.0185546875,-0.396341472864151,0.3353658616542816,-0.09146341681480408,3.5999999046325684,1.649999976158142,-10.199999809265137,37.245845794677734,0,
 25214,-0.314453125,-0.929931640625,-0.01904296875,-0.4573170840740204,0.3048780560493469,0.18292683362960815,1.7999999523162842,1.5,-8.25,37.245845794677734,0,
 25224,-0.3134765625,-0.926513671875,-0.019775390625,-0.4573170840740204,0.3658536672592163,0.3658536672592163,1.7999999523162842,1.5,-8.25,37.006229400634766,0,
 25234,-0.310546875,-0.93212890625,-0.024169921875,-0.15243902802467346,0.18292683362960815,0.3048780560493469,1.649999976158142,2.0999999046325684,-6.900000095367432,37.19792175292969,0,
 25244,-0.31103515625,-0.927001953125,-0.022216796875,-0.09146341681480408,0.060975611209869385,0.396341472864151,0.75,0.75,-8.550000190734863,37.05415344238281,0,
 25254,-0.3125,-0.9296875,-0.021240234375,-0.4268292784690857,0.396341472864151,0.4573170840740204,3.299999952316284,2.25,-8.25,37.38961410522461,0,
 25264,-0.31201171875,-0.928955078125,-0.021728515625,-0.5487805008888245,0.3048780560493469,0.4268292784690857,2.25,1.9500000476837158,-7.800000190734863,37.006229400634766,0,
 25274,-0.310302734375,-0.92724609375,-0.023681640625,-0.7621951103210449,0.396341472864151,0.3353658616542816,2.25,1.9500000476837158,-7.800000190734863,37.34169006347656,0,
 25284,-0.313720703125,-0.931884765625,-0.02197265625,-0.6707317233085632,0.4878048896789551,-0.060975611209869385,0.75,3.1500000953674316,-7.050000190734863,37.38961410522461,0,
 25294,-0.310546875,-0.931884765625,-0.024169921875,-0.4573170840740204,0.6097561120986938,0.24390244483947754,2.549999952316284,1.0499999523162842,-7.050000190734863,37.34169006347656,0,
 25304,-0.303955078125,-0.92919921875,-0.019775390625,-0.7621951103210449,0.7317073345184326,-0.12195122241973877,0.8999999761581421,1.649999976158142,-10.199999809265137,37.34169006347656,0,
 25314,-0.31005859375,-0.927978515625,-0.017578125,-0.8231707215309143,0.7317073345184326,-0.21341463923454285,0.8999999761581421,1.649999976158142,-10.199999809265137,37.19792175292969,0,
 25324,-0.31787109375,-0.927490234375,-0.02880859375,-0.9756097793579102,0.5182926654815674,-0.3658536672592163,1.649999976158142,1.350000023841858,-6.900000095367432,37.245845794677734,0,
 25334,-0.31103515625,-0.929931640625,-0.020751953125,-0.9756097793579102,0.8231707215309143,-0.15243902802467346,1.649999976158142,1.350000023841858,-7.650000095367432,37.581302642822266,0,
 25345,-0.30517578125,-0.9296875,-0.024169921875,-0.5182926654815674,0.5792682766914368,0.3048780560493469,1.0499999523162842,0.75,-7.800000190734863,37.34169006347656,0,
 25355,-0.30712890625,-0.931640625,-0.0244140625,-1.0060975551605225,0.4573170840740204,0.4878048896789551,1.2000000476837158,0.8999999761581421,-9.149999618530273,37.19792175292969,0,
 25365,-0.30908203125,-0.931640625,-0.02783203125,-0.6707317233085632,0.3353658616542816,0.3658536672592163,1.2000000476837158,0.8999999761581421,-9.149999618530273,37.38961410522461,0,
 25375,-0.308837890625,-0.927001953125,-0.025146484375,-0.6097561120986938,0.396341472864151,0.6707317233085632,2.4000000953674316,1.350000023841858,-8.399999618530273,37.245845794677734,0,
 25385,-0.3076171875,-0.934326171875,-0.0234375,-0.3658536672592163,0.18292683362960815,0.4573170840740204,0.8999999761581421,2.8499999046325684,-7.949999809265137,37.19792175292969,0,
 25395,-0.309326171875,-0.9326171875,-0.02392578125,-0.3353658616542816,0.18292683362960815,0.7621951103210449,2.0999999046325684,2.0999999046325684,-7.650000095367432,37.245845794677734,0,
 25405,-0.307861328125,-0.92724609375,-0.025390625,0.0,0.21341463923454285,0.3658536672592163,2.0999999046325684,2.0999999046325684,-7.650000095367432,37.34169006347656,0,
 25415,-0.310546875,-0.927490234375,-0.020751953125,-0.15243902802467346,0.24390244483947754,0.24390244483947754,1.649999976158142,2.549999952316284,-7.199999809265137,37.245845794677734,0,
 25425,-0.307861328125,-0.927001953125,-0.02734375,-0.5182926654815674,0.12195122241973877,0.15243902802467346,1.649999976158142,1.649999976158142,-6.900000095367432,37.34169006347656,0,
 25435,-0.310546875,-0.9287109375,-0.020751953125,-0.4573170840740204,0.09146341681480408,-0.030487805604934692,3.299999952316284,0.75,-6.75,37.38961410522461,0,
 25445,-0.309326171875,-0.92578125,-0.02294921875,-0.4268292784690857,0.8231707215309143,-0.3353658616542816,1.2000000476837158,2.0999999046325684,-6.150000095367432,37.245845794677734,0,
 25455,-0.308349609375,-0.927001953125,-0.0224609375,-0.9451219439506531,0.396341472864151,0.09146341681480408,1.2000000476837158,2.0999999046325684,-6.150000095367432,37.34169006347656,0,
 25465,-0.310546875,-0.93017578125,-0.021728515625,-0.4268292784690857,0.7621951103210449,0.3353658616542816,2.25,-0.30000001192092896,-7.050000190734863,37.006229400634766,0,
 25475,-0.30810546875,-0.93505859375,-0.02685546875,-0.6402438879013062,0.3048780560493469,0.4268292784690857,1.649999976158142,-0.44999998807907104,-7.650000095367432,37.38961410522461,0,
 25485,-0.30322265625,-0.9228515625,-0.02294921875,-0.030487805604934692,-0.030487805604934692,0.8536585569381714,3.0,1.5,-7.800000190734863,37.533382415771484,0,
 25495,-0.30810546875,-0.923828125,-0.022705078125,-0.24390244483947754,-0.09146341681480408,0.8231707215309143,3.0,1.5,-7.800000190734863,37.245845794677734,0,
 25505,-0.312255859375,-0.92822265625,-0.0146484375,0.24390244483947754,-0.060975611209869385,0.8841463327407837,1.0499999523162842,3.1500000953674316,-8.550000190734863,37.245845794677734,0,
 25515,-0.316162109375,-0.9296875,-0.018798828125,0.21341463923454285,0.060975611209869385,0.4573170840740204,3.0,0.30000001192092896,-9.75,37.245845794677734,0,
 25525,-0.310302734375,-0.930908203125,-0.0166015625,-0.09146341681480408,0.15243902802467346,0.3658536672592163,1.2000000476837158,2.8499999046325684,-7.199999809265137,37.43753433227539,0,
 25535,-0.310546875,-0.926025390625,-0.018310546875,-0.396341472864151,0.24390244483947754,0.060975611209869385,2.549999952316284,1.9500000476837158,-8.25,37.34169006347656,0,
 25545,-0.313720703125,-0.927734375,-0.01806640625,-0.4573170840740204,0.396341472864151,-0.12195122241973877,2.549999952316284,1.9500000476837158,-8.25,37.38961410522461,0,
 25555,-0.31884765625,-0.928955078125,-0.01318359375,-0.7621951103210449,0.4878048896789551,-0.3353658616542816,1.5,1.9500000476837158,-7.050000190734863,37.34169006347656,0,
 25565,-0.314697265625,-0.924072265625,-0.01806640625,-0.9146341681480408,0.5487805008888245,-0.6402438879013062,1.2000000476837158,1.350000023841858,-6.900000095367432,36.86246109008789,0,
 25575,-0.3056640625,-0.92626953125,-0.021240234375,-1.097561001777649,0.6707317233085632,-0.5487805008888245,2.25,0.75,-7.800000190734863,37.43753433227539,0,
 25585,-0.310546875,-0.931884765625,-0.01611328125,-0.9756097793579102,0.7317073345184326,-0.5487805008888245,2.25,0.75,-7.800000190734863,37.245845794677734,0,
 25595,-0.308837890625,-0.934326171875,-0.02392578125,-1.1890244483947754,0.7012194991111755,0.18292683362960815,1.649999976158142,2.0999999046325684,-7.199999809265137,37.245845794677734,0,
 25605,-0.306884765625,-0.924072265625,-0.019287109375,-1.0060975551605225,0.6097561120986938,0.24390244483947754,2.25,1.9500000476837158,-9.0,37.34169006347656,0,
 25615,-0.31103515625,-0.93408203125,-0.024658203125,-0.8231707215309143,0.5182926654815674,0.6707317233085632,0.30000001192092896,1.9500000476837158,-9.0,36.91038513183594,0,
 25625,-0.307373046875,-0.931884765625,-0.031982421875,-0.4573170840740204,0.21341463923454285,0.4878048896789551,0.30000001192092896,1.9500000476837158,-9.0,37.34169006347656,0,
 25635,-0.3076171875,-0.926513671875,-0.02490234375,0.0,0.12195122241973877,0.7012194991111755,0.30000001192092896,1.9500000476837158,-9.0,37.34169006347656,0,
 25645,-0.3115234375,-0.92529296875,-0.019287109375,-0.7012194991111755,0.21341463923454285,0.7621951103210449,0.8999999761581421,1.649999976158142,-7.949999809265137,37.19792175292969,0,
 25655,-0.309814453125,-0.930419921875,-0.022216796875,-0.396341472864151,0.18292683362960815,0.4268292784690857,1.2000000476837158,2.549999952316284,-6.900000095367432,37.34169006347656,0,
 25665,-0.313232421875,-0.927978515625,-0.01904296875,-0.7012194991111755,0.4268292784690857,0.060975611209869385,1.2000000476837158,2.549999952316284,-9.149999618530273,37.34169006347656,0,
 25675,-0.302734375,-0.922119140625,-0.021240234375,-0.7621951103210449,0.5792682766914368,0.15243902802467346,1.2000000476837158,2.549999952316284,-9.149999618530273,37.006229400634766,0,
 25685,-0.307373046875,-0.928955078125,-0.0234375,-0.8231707215309143,0.24390244483947754,0.24390244483947754,1.5,1.0499999523162842,-8.25,37.34169006347656,0,
 25695,-0.309326171875,-0.92626953125,-0.01953125,-0.6707317233085632,0.4268292784690857,0.09146341681480408,2.25,1.9500000476837158,-7.650000095367432,37.34169006347656,0,
 25705,-0.305908203125,-0.927734375,-0.02294921875,-0.9146341681480408,0.5487805008888245,0.12195122241973877,-0.15000000596046448,4.050000190734863,-8.699999809265137,37.006229400634766,0,
 25715,-0.309326171875,-0.927978515625,-0.017578125,-0.6402438879013062,0.4268292784690857,-0.060975611209869385,-0.15000000596046448,4.050000190734863,-8.699999809265137,37.19792175292969,0,
 25725,-0.311767578125,-0.93408203125,-0.02587890625,-0.7317073345184326,0.3048780560493469,0.060975611209869385,-0.15000000596046448,4.050000190734863,-8.699999809265137,37.34169006347656,0,
 25735,-0.310302734375,-0.92919921875,-0.025146484375,-0.15243902802467346,0.4573170840740204,0.6402438879013062,2.549999952316284,1.350000023841858,-6.900000095367432,37.581302642822266,0,
 25745,-0.305419921875,-0.931396484375,-0.023681640625,-0.21341463923454285,0.3353658616542816,0.5487805008888245,1.649999976158142,1.649999976158142,-8.399999618530273,37.43753433227539,0,
 25755,-0.30712890625,-0.92529296875,-0.021728515625,-0.15243902802467346,0.060975611209869385,0.5487805008888245,0.30000001192092896,1.0499999523162842,-7.800000190734863,37.19792175292969,0,
 25765,-0.30859375,-0.925048828125,-0.025146484375,0.396341472864151,0.27439025044441223,0.4573170840740204,0.30000001192092896,1.0499999523162842,-7.800000190734863,37.34169006347656,0,
 25775,-0.31494140625,-0.93017578125,-0.02490234375,-0.6402438879013062,0.4268292784690857,0.12195122241973877,1.649999976158142,1.0499999523162842,-7.800000190734863,37.43753433227539,0,
 25785,-0.30810546875,-0.927978515625,-0.02490234375,-0.4268292784690857,0.3048780560493469,0.060975611209869385,2.8499999046325684,0.44999998807907104,-8.399999618530273,37.43753433227539,0,
 25795,-0.312744140625,-0.930419921875,-0.01904296875,-0.6707317233085632,0.3658536672592163,0.3048780560493469,1.2000000476837158,-0.15000000596046448,-6.900000095367432,37.38961410522461,0,
 25805,-0.308837890625,-0.9267578125,-0.021484375,-0.5487805008888245,0.27439025044441223,-0.27439025044441223,1.2000000476837158,-0.15000000596046448,-6.900000095367432,37.34169006347656,0,
 25815,-0.3125,-0.927490234375,-0.019775390625,-0.5487805008888245,0.3658536672592163,0.18292683362960815,2.25,-0.15000000596046448,-6.900000095367432,37.10207748413086,0,
 25825,-0.308349609375,-0.9287109375,-0.017333984375,-0.4573170840740204,0.396341472864151,0.3658536672592163,2.8499999046325684,2.549999952316284,-6.900000095367432,37.34169006347656,0,
 25835,-0.306884765625,-0.930419921875,-0.020263671875,-0.3353658616542816,0.27439025044441223,0.7621951103210449,0.75,1.5,-7.5,37.245845794677734,0,
 25845,-0.314208984375,-0.927978515625,-0.02197265625,-0.5182926654815674,0.4878048896789551,0.4878048896789551,0.8999999761581421,2.0999999046325684,-7.650000095367432,37.245845794677734,0,
 25855,-0.306640625,-0.927490234375,-0.023681640625,-0.5487805008888245,0.5792682766914368,0.5792682766914368,0.8999999761581421,2.0999999046325684,-7.650000095367432,37.006229400634766,0,
 25865,-0.315185546875,-0.927734375,-0.021728515625,-0.21341463923454285,0.18292683362960815,0.5182926654815674,2.0999999046325684,0.8999999761581421,-7.949999809265137,37.533382415771484,0,
 25875,-0.308837890625,-0.92626953125,-0.023681640625,-0.7621951103210449,0.3048780560493469,0.21341463923454285,1.0499999523162842,1.0499999523162842,-6.300000190734863,37.34169006347656,0,
 25885,-0.31396484375,-0.928955078125,-0.021240234375,-0.6402438879013062,0.4573170840740204,-0.060975611209869385,0.8999999761581421,1.649999976158142,-7.949999809265137,37.245845794677734,0,
 25895,-0.31201171875,-0.93359375,-0.02294921875,-0.6402438879013062,0.396341472864151,-0.060975611209869385,0.8999999761581421,1.649999976158142,-7.949999809265137,37.34169006347656,0,
 25905,-0.30859375,-0.9287109375,-0.0185546875,-1.0060975551605225,0.7621951103210449,0.0,2.25,1.9500000476837158,-10.5,37.10207748413086,0,
 25915,-0.31591796875,-0.9267578125,-0.019775390625,-0.5182926654815674,0.396341472864151,-0.15243902802467346,3.299999952316284,-0.75,-9.0,37.245845794677734,0,
 25925,-0.306640625,-0.927001953125,-0.02490234375,-1.0670732259750366,0.27439025044441223,-0.15243902802467346,2.4000000953674316,0.15000000596046448,-7.199999809265137,37.38961410522461,0,
 25935,-0.305419921875,-0.930419921875,-0.019287109375,-0.7317073345184326,0.6402438879013062,-0.030487805604934692,2.25,1.5,-7.050000190734863,37.34169006347656,0,
 25945,-0.310302734375,-0.9296875,-0.02392578125,-0.7621951103210449,0.5182926654815674,0.060975611209869385,2.25,1.5,-7.050000190734863,37.533382415771484,0,
 25955,-0.312255859375,-0.927490234375,-0.0224609375,-0.3048780560493469,0.4268292784690857,0.4573170840740204,1.0499999523162842,1.5,-7.5,37.19792175292969,0,
 25965,-0.306884765625,-0.9287109375,-0.026611328125,-0.4268292784690857,0.4878048896789551,0.4268292784690857,1.2000000476837158,2.549999952316284,-6.900000095367432,37.34169006347656,0,
 25975,-0.309326171875,-0.933837890625,-0.022705078125,-0.27439025044441223,0.4268292784690857,0.396341472864151,2.549999952316284,0.75,-6.300000190734863,37.34169006347656,0,
 25985,-0.309814453125,-0.928955078125,-0.02294921875,-0.4878048896789551,0.18292683362960815,0.6097561120986938,2.549999952316284,0.75,-6.300000190734863,37.43753433227539,0,
 25995,-0.3115234375,-0.9267578125,-0.0234375,-0.4878048896789551,0.18292683362960815,0.3353658616542816,0.8999999761581421,1.649999976158142,-7.650000095367432,37.34169006347656,0,
 26005,-0.309326171875,-0.923095703125,-0.018798828125,-0.3658536672592163,0.3353658616542816,0.27439025044441223,0.15000000596046448,1.350000023841858,-8.399999618530273,37.19792175292969,0,
 26015,-0.310546875,-0.9267578125,-0.02197265625,-0.24390244483947754,0.4268292784690857,0.3048780560493469,3.299999952316284,3.450000047683716,-11.550000190734863,37.34169006347656,0,
 26025,-0.3115234375,-0.931396484375,-0.02587890625,-0.8536585569381714,0.6402438879013062,-0.18292683362960815,2.8499999046325684,0.8999999761581421,-8.699999809265137,37.34169006347656,0,
 26035,-0.307861328125,-0.933349609375,-0.016845703125,-0.6707317233085632,0.4573170840740204,-0.3048780560493469,2.8499999046325684,0.8999999761581421,-8.699999809265137,37.245845794677734,0,
 26045,-0.30810546875,-0.93115234375,-0.021240234375,-0.9451219439506531,0.27439025044441223,-0.15243902802467346,1.649999976158142,2.549999952316284,-8.399999618530273,37.34169006347656,0,
 26055,-0.309326171875,-0.933837890625,-0.022216796875,-1.1280487775802612,0.5792682766914368,0.15243902802467346,2.0999999046325684,2.0999999046325684,-7.650000095367432,37.006229400634766,0,
 26066,-0.305419921875,-0.92919921875,-0.022705078125,-0.7317073345184326,0.4268292784690857,0.15243902802467346,1.2000000476837158,0.8999999761581421,-7.949999809265137,37.34169006347656,0,
 26076,-0.307373046875,-0.926513671875,-0.022705078125,-0.3353658616542816,0.6402438879013062,0.7317073345184326,1.2000000476837158,0.8999999761581421,-7.949999809265137,37.43753433227539,0,
 26086,-0.306884765625,-0.928955078125,-0.027099609375,-0.27439025044441223,0.12195122241973877,0.7621951103210449,2.8499999046325684,2.549999952316284,-9.149999618530273,37.19792175292969,0,
 26096,-0.3154296875,-0.9306640625,-0.022705078125,-0.030487805604934692,0.15243902802467346,0.5487805008888245,1.649999976158142,2.8499999046325684,-7.199999809265137,37.581302642822266,0,
 26106,-0.31201171875,-0.924560546875,-0.02001953125,-0.09146341681480408,-0.030487805604934692,0.9451219439506531,1.649999976158142,1.350000023841858,-9.149999618530273,37.38961410522461,0,
 26116,-0.30859375,-0.926025390625,-0.017333984375,-0.060975611209869385,0.3658536672592163,0.4268292784690857,2.25,3.1500000953674316,-9.0,37.34169006347656,0,
 26126,-0.310791015625,-0.925048828125,-0.0205078125,-0.3048780560493469,0.030487805604934692,0.21341463923454285,2.25,3.1500000953674316,-9.0,37.34169006347656,0,
 26136,-0.31005859375,-0.926025390625,-0.02001953125,-0.4573170840740204,0.3658536672592163,0.15243902802467346,2.0999999046325684,1.350000023841858,-8.399999618530273,37.34169006347656,0,
 26146,-0.308837890625,-0.927734375,-0.017822265625,-0.6707317233085632,0.6402438879013062,-0.6097561120986938,2.549999952316284,3.1500000953674316,-6.75,37.19792175292969,0,
 26156,-0.30908203125,-0.9326171875,-0.020751953125,-0.8536585569381714,0.5487805008888245,-0.24390244483947754,0.44999998807907104,1.649999976158142,-7.650000095367432,37.245845794677734,0,
 26166,-0.307373046875,-0.928466796875,-0.020263671875,-0.7621951103210449,0.6097561120986938,-0.060975611209869385,0.44999998807907104,1.649999976158142,-7.650000095367432,37.34169006347656,0,
 26176,-0.3046875,-0.932373046875,-0.02294921875,-0.9146341681480408,0.396341472864151,0.3353658616542816,1.0499999523162842,2.700000047683716,-8.550000190734863,37.10207748413086,0,
 26186,-0.30859375,-0.9267578125,-0.031982421875,-0.4268292784690857,0.3048780560493469,0.6402438879013062,0.8999999761581421,2.549999952316284,-8.399999618530273,37.34169006347656,0,
 26196,-0.302490234375,-0.927734375,-0.02490234375,-0.030487805604934692,0.21341463923454285,0.6097561120986938,1.0499999523162842,1.0499999523162842,-8.550000190734863,37.10207748413086,0,
 26206,-0.304443359375,-0.92822265625,-0.02783203125,0.09146341681480408,0.27439025044441223,0.7317073345184326,2.4000000953674316,1.350000023841858,-7.650000095367432,37.245845794677734,0,
 26216,-0.308837890625,-0.9296875,-0.021484375,0.12195122241973877,0.21341463923454285,0.9756097793579102,2.4000000953674316,1.350000023841858,-7.650000095367432,37.34169006347656,0,
 26226,-0.31689453125,-0.929931640625,-0.01806640625,-0.396341472864151,0.0,0.5487805008888245,1.5,0.30000001192092896,-10.800000190734863,37.34169006347656,0,
 26236,-0.3056640625,-0.926513671875,-0.020751953125,-0.4878048896789551,0.18292683362960815,0.21341463923454285,0.30000001192092896,1.0499999523162842,-7.050000190734863,37.34169006347656,0,
 26246,-0.30712890625,-0.92822265625,-0.017822265625,-0.8231707215309143,0.12195122241973877,-0.060975611209869385,3.5999999046325684,2.8499999046325684,-7.199999809265137,37.34169006347656,0,
 26256,-0.3115234375,-0.927490234375,-0.016845703125,-0.8841463327407837,0.5792682766914368,0.3048780560493469,3.5999999046325684,2.8499999046325684,-7.199999809265137,37.43753433227539,0,
 26266,-0.313720703125,-0.921875,-0.025634765625,-0.792682945728302,0.5792682766914368,0.030487805604934692,1.7999999523162842,1.0499999523162842,-7.800000190734863,37.006229400634766,0,
 26276,-0.31298828125,-0.931396484375,-0.01904296875,-0.792682945728302,0.396341472864151,-0.09146341681480408,0.8999999761581421,0.8999999761581421,-7.650000095367432,37.43753433227539,0,
 26286,-0.31201171875,-0.923583984375,-0.024169921875,-0.7317073345184326,0.5182926654815674,0.18292683362960815,2.0999999046325684,2.549999952316284,-7.650000095367432,37.34169006347656,0,
 26296,-0.3134765625,-0.931884765625,-0.02685546875,-0.8231707215309143,0.5182926654815674,0.27439025044441223,2.0999999046325684,0.44999998807907104,-7.650000095367432,37.05415344238281,0,
 26306,-0.3056640625,-0.927001953125,-0.022705078125,-0.5487805008888245,0.4878048896789551,0.4878048896789551,2.0999999046325684,0.44999998807907104,-7.650000095367432,37.38961410522461,0,
 26316,-0.30712890625,-0.93212890625,-0.017578125,-0.3353658616542816,0.24390244483947754,0.5487805008888245,0.30000001192092896,0.75,-8.25,37.19792175292969,0,
 26326,-0.310546875,-0.92919921875,-0.023681640625,-0.5792682766914368,0.27439025044441223,0.4268292784690857,1.2000000476837158,0.15000000596046448,-9.449999809265137,37.10207748413086,0,
 26336,-0.31005859375,-0.934326171875,-0.023681640625,-0.27439025044441223,0.12195122241973877,0.3353658616542816,0.75,0.30000001192092896,-8.25,37.34169006347656,0,
 26346,-0.30615234375,-0.92822265625,-0.024169921875,-0.030487805604934692,0.21341463923454285,0.3658536672592163,0.75,0.30000001192092896,-8.25,37.05415344238281,0,
 26356,-0.3154296875,-0.927734375,-0.021484375,-0.4268292784690857,0.3353658616542816,0.792682945728302,1.2000000476837158,1.649999976158142,-9.149999618530273,37.19792175292969,0,
 26366,-0.310791015625,-0.928466796875,-0.01806640625,-0.27439025044441223,0.12195122241973877,0.4268292784690857,1.2000000476837158,1.649999976158142,-9.449999809265137,37.38961410522461,0,
 26376,-0.303466796875,-0.923828125,-0.021240234375,-0.12195122241973877,0.4573170840740204,0.5487805008888245,3.5999999046325684,0.44999998807907104,-7.199999809265137,37.34169006347656,0,
 26386,-0.3076171875,-0.92578125,-0.021484375,-0.3658536672592163,0.21341463923454285,0.4268292784690857,1.7999999523162842,1.0499999523162842,-8.550000190734863,37.245845794677734,0,
 26396,-0.30908203125,-0.9248046875,-0.01953125,-0.6707317233085632,0.4573170840740204,0.0,1.7999999523162842,1.0499999523162842,-8.550000190734863,37.006229400634766,0,
 26406,-0.306396484375,-0.930908203125,-0.02294921875,-0.7621951103210449,0.6097561120986938,0.09146341681480408,2.549999952316284,1.5,-7.050000190734863,37.34169006347656,0,
 26416,-0.30908203125,-0.936279296875,-0.0244140625,-0.9756097793579102,0.4268292784690857,0.09146341681480408,1.5,1.9500000476837158,-9.0,37.245845794677734,0,
 26426,-0.313232421875,-0.933349609375,-0.0283203125,-1.2195122241973877,0.4268292784690857,0.4878048896789551,2.8499999046325684,1.649999976158142,-9.149999618530273,37.34169006347656,0,
 26436,-0.307861328125,-0.931884765625,-0.026123046875,-0.7012194991111755,0.15243902802467346,0.7317073345184326,1.7999999523162842,1.5,-8.25,37.245845794677734,0,
 26446,-0.3115234375,-0.92626953125,-0.027587890625,-0.5487805008888245,0.09146341681480408,0.8536585569381714,1.7999999523162842,1.5,-7.5,37.006229400634766,0,
 26456,-0.316650390625,-0.933837890625,-0.0244140625,-0.24390244483947754,-0.12195122241973877,0.6097561120986938,2.0999999046325684,0.8999999761581421,-9.449999809265137,37.19792175292969,0,
 26466,-0.3125,-0.927490234375,-0.01318359375,-0.24390244483947754,-0.15243902802467346,0.8841463327407837,0.75,1.0499999523162842,-7.050000190734863,37.34169006347656,0,
 26476,-0.307861328125,-0.93212890625,-0.018798828125,-0.060975611209869385,0.0,0.5792682766914368,1.0499999523162842,1.5,-7.800000190734863,37.34169006347656,0,
 26486,-0.311767578125,-0.921875,-0.01953125,-0.4878048896789551,0.396341472864151,-0.030487805604934692,1.0499999523162842,1.5,-7.800000190734863,37.38961410522461,0,
 26496,-0.312255859375,-0.9208984375,-0.0166015625,-0.9756097793579102,0.5792682766914368,0.0,2.25,1.9500000476837158,-7.050000190734863,37.10207748413086,0,
 26506,-0.31201171875,-0.92724609375,-0.019775390625,-1.1585365533828735,0.6097561120986938,-0.12195122241973877,0.44999998807907104,2.8499999046325684,-6.449999809265137,37.10207748413086,0,
 26516,-0.3115234375,-0.930419921875,-0.021728515625,-1.2195122241973877,0.5182926654815674,-0.3658536672592163,1.649999976158142,0.8999999761581421,-6.449999809265137,37.34169006347656,0,
 26526,-0.3046875,-0.931396484375,-0.026123046875,-1.1585365533828735,0.6097561120986938,-0.4573170840740204,1.5,3.1500000953674316,-9.300000190734863,37.43753433227539,0,
 26536,-0.309326171875,-0.9267578125,-0.02099609375,-1.3109756708145142,0.7621951103210449,-0.060975611209869385,1.5,3.1500000953674316,-9.300000190734863,37.34169006347656,0,
 26546,-0.305908203125,-0.927001953125,-0.021240234375,-1.25,0.792682945728302,-0.24390244483947754,2.8499999046325684,0.44999998807907104,-8.699999809265137,37.19792175292969,0,
 26556,-0.31005859375,-0.929443359375,-0.021484375,-0.8536585569381714,0.7621951103210449,0.12195122241973877,2.549999952316284,1.5,-8.25,37.10207748413086,0,
 26566,-0.30322265625,-0.928955078125,-0.030517578125,-0.9146341681480408,0.4268292784690857,0.5792682766914368,2.25,1.9500000476837158,-6.300000190734863,37.245845794677734,0,
 26576,-0.30810546875,-0.92724609375,-0.023681640625,-0.396341472864151,0.27439025044441223,0.9451219439506531,2.25,1.9500000476837158,-6.300000190734863,37.10207748413086,0,
 26586,-0.310791015625,-0.927978515625,-0.02001953125,-0.12195122241973877,0.3658536672592163,0.7012194991111755,2.25,1.5,-8.25,37.34169006347656,0,
 26596,-0.30908203125,-0.9287109375,-0.017578125,0.18292683362960815,0.09146341681480408,0.5487805008888245,1.649999976158142,0.8999999761581421,-7.949999809265137,37.006229400634766,0,
 26606,-0.31103515625,-0.932861328125,-0.020751953125,-0.3048780560493469,0.27439025044441223,0.6402438879013062,2.25,1.9500000476837158,-7.5,37.34169006347656,0,
 26616,-0.306640625,-0.9228515625,-0.020751953125,-0.12195122241973877,0.3658536672592163,0.09146341681480408,1.0499999523162842,1.5,-8.25,37.38961410522461,0,
 26626,-0.308837890625,-0.928466796875,-0.025146484375,-0.6097561120986938,0.4573170840740204,0.09146341681480408,1.0499999523162842,1.5,-8.25,37.245845794677734,0,
 26636,-0.311767578125,-0.927978515625,-0.022216796875,-0.8536585569381714,0.6402438879013062,0.21341463923454285,2.4000000953674316,-0.8999999761581421,-7.199999809265137,37.245845794677734,0,
 26646,-0.31201171875,-0.928466796875,-0.022216796875,-0.9756097793579102,0.5182926654815674,0.060975611209869385,0.8999999761581421,1.649999976158142,-8.699999809265137,37.34169006347656,0,
 26656,-0.3095703125,-0.9306640625,-0.02392578125,-0.4268292784690857,0.3658536672592163,-0.030487805604934692,2.25,1.0499999523162842,-7.800000190734863,37.34169006347656,0,
 26666,-0.312255859375,-0.93212890625,-0.025390625,-0.4573170840740204,0.5487805008888245,-0.3353658616542816,2.25,1.0499999523162842,-7.800000190734863,37.38961410522461,0,
 26676,-0.306884765625,-0.9228515625,-0.01904296875,-0.8231707215309143,0.7317073345184326,0.15243902802467346,1.0499999523162842,1.9500000476837158,-7.5,37.34169006347656,0,
 26686,-0.31201171875,-0.934326171875,-0.025146484375,-0.9146341681480408,0.5792682766914368,-0.15243902802467346,1.7999999523162842,1.0499999523162842,-5.25,37.245845794677734,0,
 26696,-0.3095703125,-0.93212890625,-0.02587890625,-0.3353658616542816,0.6097561120986938,0.396341472864151,2.4000000953674316,0.8999999761581421,-7.199999809265137,37.10207748413086,0,
 26706,-0.309326171875,-0.924072265625,-0.025390625,-0.8231707215309143,0.5487805008888245,0.12195122241973877,2.0999999046325684,1.350000023841858,-7.199999809265137,37.19792175292969,0,
 26716,-0.310546875,-0.925048828125,-0.0244140625,-0.7317073345184326,0.27439025044441223,0.060975611209869385,2.0999999046325684,1.350000023841858,-7.199999809265137,37.34169006347656,0,
 26726,-0.305419921875,-0.927734375,-0.02685546875,-0.6707317233085632,0.4878048896789551,0.4878048896789551,1.649999976158142,2.549999952316284,-6.900000095367432,37.34169006347656,0,
 26736,-0.307373046875,-0.93017578125,-0.021728515625,-0.4268292784690857,0.5182926654815674,0.3353658616542816,1.2000000476837158,1.350000023841858,-10.949999809265137,37.245845794677734,0,
 26746,-0.3046875,-0.927490234375,-0.02392578125,-0.7317073345184326,0.4268292784690857,0.0,0.75,1.0499999523162842,-7.800000190734863,37.34169006347656,0,
 26756,-0.3095703125,-0.92333984375,-0.021240234375,-0.7621951103210449,0.24390244483947754,0.3353658616542816,0.75,1.0499999523162842,-7.800000190734863,37.34169006347656,0,
 26766,-0.309814453125,-0.931640625,-0.022216796875,-0.5182926654815674,0.396341472864151,0.3353658616542816,0.75,2.700000047683716,-7.5,37.34169006347656,0,
 26776,-0.311767578125,-0.923583984375,-0.027099609375,-0.7012194991111755,0.3658536672592163,0.18292683362960815,1.5,0.30000001192092896,-7.5,37.34169006347656,0,
 26786,-0.3095703125,-0.93017578125,-0.02783203125,-0.7012194991111755,0.6707317233085632,0.12195122241973877,0.75,1.0499999523162842,-7.5,37.10207748413086,0,
 26796,-0.30810546875,-0.93115234375,-0.024169921875,-0.9146341681480408,0.3658536672592163,0.3353658616542816,2.549999952316284,0.0,-7.5,37.34169006347656,0,
 26806,-0.30712890625,-0.926025390625,-0.0302734375,-0.9756097793579102,0.4878048896789551,-0.15243902802467346,2.549999952316284,0.0,-7.5,37.34169006347656,0,
 26816,-0.306640625,-0.9267578125,-0.027099609375,-1.0365853309631348,0.5182926654815674,0.396341472864151,2.4000000953674316,1.350000023841858,-7.650000095367432,37.38961410522461,0,
 26826,-0.315185546875,-0.92431640625,-0.02734375,-0.5182926654815674,0.27439025044441223,0.27439025044441223,1.5,0.75,-9.0,37.10207748413086,0,
 26836,-0.30908203125,-0.926025390625,-0.025390625,-0.4268292784690857,0.15243902802467346,0.5792682766914368,3.1500000953674316,2.0999999046325684,-10.199999809265137,37.05415344238281,0,
 26846,-0.30810546875,-0.931640625,-0.02587890625,-0.15243902802467346,0.21341463923454285,0.8536585569381714,3.1500000953674316,2.0999999046325684,-10.199999809265137,37.38961410522461,0,
 26856,-0.311279296875,-0.9306640625,-0.029052734375,0.24390244483947754,0.3353658616542816,0.6707317233085632,1.7999999523162842,2.700000047683716,-7.800000190734863,37.43753433227539,0,
 26867,-0.310302734375,-0.93115234375,-0.027587890625,0.0,-0.21341463923454285,0.6707317233085632,1.0499999523162842,1.5,-7.050000190734863,37.245845794677734,0,
 26877,-0.30908203125,-0.927978515625,-0.025390625,-0.09146341681480408,-0.15243902802467346,0.7012194991111755,2.549999952316284,1.0499999523162842,-7.800000190734863,37.34169006347656,0,
 26887,-0.308837890625,-0.92724609375,-0.02587890625,0.030487805604934692,0.12195122241973877,0.4878048896789551,1.0499999523162842,1.5,-8.550000190734863,37.006229400634766,0,
 26897,-0.309326171875,-0.9287109375,-0.0244140625,-0.09146341681480408,0.18292683362960815,0.060975611209869385,1.0499999523162842,1.5,-8.550000190734863,37.34169006347656,0,
 26907,-0.3154296875,-0.928955078125,-0.0234375,-0.21341463923454285,0.060975611209869385,0.12195122241973877,1.7999999523162842,1.0499999523162842,-9.0,37.38961410522461,0,
 26917,-0.313232421875,-0.931396484375,-0.02294921875,-0.09146341681480408,0.3353658616542816,-0.24390244483947754,1.649999976158142,0.15000000596046448,-7.650000095367432,37.006229400634766,0,
 26927,-0.306396484375,-0.934814453125,-0.021484375,-0.24390244483947754,0.396341472864151,-0.4268292784690857,2.4000000953674316,1.350000023841858,-9.149999618530273,37.38961410522461,0,
 26937,-0.312255859375,-0.93359375,-0.01904296875,-0.6402438879013062,0.27439025044441223,0.060975611209869385,2.4000000953674316,1.350000023841858,-9.149999618530273,37.05415344238281,0,
 26947,-0.30224609375,-0.934814453125,-0.02197265625,-0.3658536672592163,0.24390244483947754,0.3048780560493469,0.75,1.0499999523162842,-7.800000190734863,37.34169006347656,0,
 26957,-0.309814453125,-0.9248046875,-0.0185546875,-0.09146341681480408,0.3048780560493469,0.5792682766914368,0.44999998807907104,0.15000000596046448,-7.199999809265137,37.34169006347656,0,
 26967,-0.310546875,-0.924072265625,-0.028076171875,0.0,0.27439025044441223,0.4573170840740204,3.299999952316284,0.30000001192092896,-8.550000190734863,37.43753433227539,0,
 26977,-0.308349609375,-0.928955078125,-0.0224609375,0.4268292784690857,0.0,0.5487805008888245,1.7999999523162842,0.75,-9.0,37.05415344238281,0,
 26987,-0.313232421875,-0.9365234375,-0.02001953125,0.0,-0.030487805604934692,0.7012194991111755,1.7999999523162842,0.75,-9.0,37.10207748413086,0,
 26997,-0.316162109375,-0.931396484375,-0.0224609375,0.12195122241973877,-0.15243902802467346,0.792682945728302,2.0999999046325684,1.350000023841858,-7.650000095367432,37.34169006347656,0,
 27007,-0.314453125,-0.93603515625,-0.0166015625,-0.060975611209869385,0.3353658616542816,0.5182926654815674,1.649999976158142,2.549999952316284,-8.699999809265137,37.581302642822266,0,
 27017,-0.3125,-0.924560546875,-0.017333984375,-0.3048780560493469,0.6097561120986938,0.0,1.649999976158142,-0.15000000596046448,-8.699999809265137,37.19792175292969,0,
 27027,-0.30859375,-0.931640625,-0.01611328125,-0.5182926654815674,0.6707317233085632,-0.060975611209869385,1.649999976158142,-0.15000000596046448,-8.699999809265137,37.10207748413086,0,
 27037,-0.313232421875,-0.926025390625,-0.025634765625,-0.9451219439506531,0.5182926654815674,0.060975611209869385,0.8999999761581421,2.0999999046325684,-7.949999809265137,37.34169006347656,0,
 27047,-0.306884765625,-0.928466796875,-0.0185546875,-1.0670732259750366,0.5487805008888245,-0.27439025044441223,1.649999976158142,-0.44999998807907104,-7.199999809265137,37.10207748413086,0,
 27057,-0.305908203125,-0.927001953125,-0.030517578125,-1.2195122241973877,0.5792682766914368,-0.12195122241973877,2.549999952316284,0.75,-7.050000190734863,37.10207748413086,0,
 27067,-0.3134765625,-0.932373046875,-0.018310546875,-1.0060975551605225,0.6707317233085632,-0.15243902802467346,2.4000000953674316,1.350000023841858,-8.399999618530273,37.245845794677734,0,
 27077,-0.305419921875,-0.92919921875,-0.024169921875,-0.9451219439506531,0.5182926654815674,0.3048780560493469,2.4000000953674316,1.350000023841858,-8.399999618530273,37.10207748413086,0,
 27087,-0.30859375,-0.929443359375,-0.0234375,-0.7621951103210449,0.3048780560493469,0.5487805008888245,2.25,0.75,-7.800000190734863,37.19792175292969,0,
 27097,-0.310302734375,-0.9306640625,-0.021728515625,-0.4573170840740204,0.396341472864151,0.7317073345184326,3.0,1.0499999523162842,-8.550000190734863,37.38961410522461,0,
 27107,-0.310791015625,-0.928466796875,-0.022705078125,-0.18292683362960815,0.396341472864151,0.5792682766914368,2.25,1.5,-7.050000190734863,37.34169006347656,0,
 27117,-0.305419921875,-0.9306640625,-0.019287109375,-0.3353658616542816,0.09146341681480408,0.060975611209869385,2.25,1.5,-7.050000190734863,37.38961410522461,0,
 27127,-0.303466796875,-0.928955078125,-0.02294921875,-0.7012194991111755,0.6402438879013062,0.4268292784690857,0.15000000596046448,0.44999998807907104,-8.399999618530273,37.245845794677734,0,
 27137,-0.304443359375,-0.931396484375,-0.01806640625,-0.4573170840740204,0.4878048896789551,0.12195122241973877,1.5,0.30000001192092896,-7.5,37.245845794677734,0,
 27147,-0.312255859375,-0.933349609375,-0.0234375,-0.6097561120986938,0.4268292784690857,0.27439025044441223,2.25,0.75,-11.550000190734863,37.38961410522461,0,
 27157,-0.310791015625,-0.928466796875,-0.0234375,-0.6097561120986938,0.5182926654815674,0.18292683362960815,0.30000001192092896,1.0499999523162842,-7.5,37.34169006347656,0,
 27167,-0.311279296875,-0.929443359375,-0.03369140625,-0.7012194991111755,0.4268292784690857,0.3048780560493469,0.30000001192092896,1.0499999523162842,-7.5,37.245845794677734,0,
 27177,-0.309326171875,-0.925537109375,-0.021240234375,-0.4573170840740204,0.6707317233085632,0.060975611209869385,2.0999999046325684,2.549999952316284,-7.949999809265137,37.05415344238281,0,
 27187,-0.311767578125,-0.927490234375,-0.025634765625,-0.3353658616542816,0.3353658616542816,0.15243902802467346,3.1500000953674316,0.44999998807907104,-7.199999809265137,37.34169006347656,0,
 27197,-0.30517578125,-0.928955078125,-0.021728515625,-0.396341472864151,0.3048780560493469,0.3658536672592163,2.0999999046325684,1.350000023841858,-7.199999809265137,37.34169006347656,0,
 27207,-0.31103515625,-0.93115234375,-0.023193359375,-0.7621951103210449,0.3658536672592163,0.396341472864151,2.0999999046325684,1.350000023841858,-7.199999809265137,37.245845794677734,0,
 27217,-0.31201171875,-0.929443359375,-0.026123046875,-0.5182926654815674,0.24390244483947754,0.18292683362960815,1.7999999523162842,1.5,-6.300000190734863,37.19792175292969,0,
 27227,-0.30908203125,-0.929931640625,-0.02587890625,-0.18292683362960815,0.4573170840740204,0.15243902802467346,0.30000001192092896,0.75,-7.5,37.05415344238281,0,
 27237,-0.310546875,-0.930908203125,-0.02587890625,-0.4878048896789551,0.396341472864151,0.12195122241973877,1.7999999523162842,1.0499999523162842,-6.75,37.34169006347656,0,
 27247,-0.308349609375,-0.93212890625,-0.0244140625,-0.792682945728302,0.4878048896789551,-0.030487805604934692,4.199999809265137,3.1500000953674316,-10.800000190734863,37.05415344238281,0,
 27257,-0.310791015625,-0.932373046875,-0.019775390625,-0.4573170840740204,0.3048780560493469,0.15243902802467346,4.199999809265137,3.1500000953674316,-10.800000190734863,37.245845794677734,0,
 27267,-0.30859375,-0.927734375,-0.017333984375,-0.7317073345184326,0.4573170840740204,0.15243902802467346,1.7999999523162842,1.5,-8.25,37.34169006347656,0,
 27277,-0.305908203125,-0.92529296875,-0.0263671875,-0.3048780560493469,0.5182926654815674,0.09146341681480408,2.4000000953674316,1.350000023841858,-7.949999809265137,37.05415344238281,0,
 27287,-0.312255859375,-0.926025390625,-0.02294921875,-0.6707317233085632,0.3353658616542816,0.3048780560493469,0.8999999761581421,0.15000000596046448,-8.399999618530273,37.245845794677734,0,
 27297,-0.30712890625,-0.928955078125,-0.02099609375,-0.4573170840740204,0.3048780560493469,0.6097561120986938,1.7999999523162842,1.9500000476837158,-8.550000190734863,37.34169006347656,0,
 27307,-0.305908203125,-0.924560546875,-0.0224609375,-0.5792682766914368,0.3658536672592163,0.396341472864151,1.649999976158142,2.549999952316284,-7.949999809265137,37.43753433227539,0,
 27317,-0.30712890625,-0.92529296875,-0.019287109375,-0.27439025044441223,0.21341463923454285,0.18292683362960815,0.8999999761581421,1.649999976158142,-6.900000095367432,37.34169006347656,0,
 27327,-0.311279296875,-0.93017578125,-0.026123046875,-0.6402438879013062,0.3048780560493469,0.3658536672592163,0.8999999761581421,1.350000023841858,-7.199999809265137,37.05415344238281,0,
 27337,-0.307861328125,-0.930419921875,-0.017822265625,-0.21341463923454285,0.3658536672592163,0.3353658616542816,2.25,2.25,-8.25,37.34169006347656,0,
 27347,-0.31640625,-0.92822265625,-0.0234375,-0.6402438879013062,0.4573170840740204,0.060975611209869385,2.25,2.25,-8.25,37.245845794677734,0,
 27357,-0.3125,-0.92578125,-0.0224609375,-0.6402438879013062,0.6707317233085632,0.09146341681480408,2.4000000953674316,1.350000023841858,-8.399999618530273,37.19792175292969,0,
 27367,-0.31103515625,-0.92578125,-0.025390625,-0.4268292784690857,0.4268292784690857,0.15243902802467346,3.1500000953674316,0.8999999761581421,-6.449999809265137,37.581302642822266,0,
 27377,-0.308837890625,-0.92626953125,-0.021728515625,-0.7012194991111755,0.5792682766914368,-0.396341472864151,2.0999999046325684,3.299999952316284,-8.699999809265137,37.19792175292969,0,
 27387,-0.309326171875,-0.93310546875,-0.023681640625,-0.7317073345184326,0.5792682766914368,0.15243902802467346,2.0999999046325684,2.0999999046325684,-8.399999618530273,37.245845794677734,0,
 27397,-0.313232421875,-0.93603515625,-0.01953125,-0.7621951103210449,0.5792682766914368,-0.12195122241973877,2.0999999046325684,2.0999999046325684,-8.399999618530273,37.245845794677734,0,
 27407,-0.31005859375,-0.930908203125,-0.02392578125,-1.0060975551605225,0.8536585569381714,-0.12195122241973877,2.25,2.700000047683716,-7.5,37.245845794677734,0,
 27417,-0.305908203125,-0.93212890625,-0.023681640625,-0.4573170840740204,0.5487805008888245,0.12195122241973877,2.549999952316284,1.5,-8.550000190734863,37.38961410522461,0,
 27427,-0.307861328125,-0.933837890625,-0.0224609375,-0.3353658616542816,0.24390244483947754,0.09146341681480408,2.549999952316284,1.5,-7.800000190734863,37.245845794677734,0,
 27437,-0.3125,-0.926513671875,-0.023193359375,-0.792682945728302,0.5182926654815674,0.24390244483947754,2.549999952316284,1.5,-7.800000190734863,37.245845794677734,0,
 27447,-0.309326171875,-0.92529296875,-0.0224609375,-0.6402438879013062,0.4268292784690857,0.27439025044441223,1.7999999523162842,0.75,-7.5,37.245845794677734,0,
 27457,-0.311767578125,-0.926513671875,-0.019775390625,-0.3658536672592163,0.24390244483947754,0.8841463327407837,3.299999952316284,-0.30000001192092896,-9.0,37.533382415771484,0,
 27467,-0.30859375,-0.92333984375,-0.026611328125,-0.7621951103210449,0.24390244483947754,0.4268292784690857,0.75,1.0499999523162842,-7.800000190734863,37.245845794677734,0,
 27477,-0.314697265625,-0.925048828125,-0.0224609375,-0.18292683362960815,0.21341463923454285,0.09146341681480408,2.0999999046325684,1.350000023841858,-7.650000095367432,37.19792175292969,0,
 27487,-0.310302734375,-0.93408203125,-0.02294921875,-0.6097561120986938,0.3353658616542816,0.12195122241973877,2.0999999046325684,1.350000023841858,-7.650000095367432,37.19792175292969,0,
 27497,-0.31396484375,-0.927734375,-0.0234375,-0.6402438879013062,0.24390244483947754,0.5487805008888245,2.0999999046325684,2.8499999046325684,-6.900000095367432,37.34169006347656,0,
 27507,-0.3154296875,-0.931640625,-0.021484375,-0.5487805008888245,0.3353658616542816,0.060975611209869385,1.5,1.9500000476837158,-7.050000190734863,37.245845794677734,0,
 27517,-0.3125,-0.9267578125,-0.02294921875,-0.4573170840740204,0.4573170840740204,-0.12195122241973877,2.0999999046325684,1.350000023841858,-7.650000095367432,37.245845794677734,0,
 27527,-0.31005859375,-0.927978515625,-0.02490234375,-0.9451219439506531,0.4268292784690857,-0.09146341681480408,2.0999999046325684,1.350000023841858,-7.650000095367432,37.34169006347656,0,
 27537,-0.308349609375,-0.92529296875,-0.0263671875,-0.792682945728302,0.6097561120986938,-0.5182926654815674,1.2000000476837158,1.350000023841858,-6.900000095367432,37.581302642822266,0,
 27547,-0.3046875,-0.927734375,-0.024169921875,-0.6097561120986938,0.8231707215309143,0.030487805604934692,1.2000000476837158,0.44999998807907104,-8.699999809265137,37.34169006347656,0,
 27567,-0.307373046875,-0.930908203125,-0.02734375,-0.4878048896789551,0.396341472864151,0.21341463923454285,2.0999999046325684,0.44999998807907104,-7.199999809265137,37.34169006347656,0,
 27577,-0.306396484375,-0.92822265625,-0.025634765625,-0.4268292784690857,0.12195122241973877,0.8536585569381714,2.0999999046325684,0.44999998807907104,-7.199999809265137,37.43753433227539,0,
 27587,-0.305419921875,-0.9296875,-0.02978515625,0.24390244483947754,0.09146341681480408,0.7012194991111755,0.75,1.0499999523162842,-8.25,37.34169006347656,0,
 27597,-0.309326171875,-0.930419921875,-0.018310546875,-0.15243902802467346,-0.030487805604934692,0.6402438879013062,1.2000000476837158,2.0999999046325684,-5.699999809265137,37.43753433227539,0,
 27607,-0.310302734375,-0.92724609375,-0.022216796875,-0.030487805604934692,0.18292683362960815,0.6097561120986938,0.8999999761581421,1.350000023841858,-7.650000095367432,37.38961410522461,0,
 27617,-0.308837890625,-0.928466796875,-0.02734375,-0.4878048896789551,0.21341463923454285,0.030487805604934692,0.8999999761581421,1.350000023841858,-7.650000095367432,37.19792175292969,0,
 27627,-0.310546875,-0.927734375,-0.01708984375,-0.15243902802467346,0.5792682766914368,0.18292683362960815,2.8499999046325684,3.75,-8.399999618530273,37.38961410522461,0,
 27637,-0.312255859375,-0.9248046875,-0.0205078125,-0.6402438879013062,0.5182926654815674,-0.12195122241973877,2.0999999046325684,2.0999999046325684,-7.650000095367432,37.245845794677734,0,
 27647,-0.3125,-0.924560546875,-0.020263671875,-1.097561001777649,0.5487805008888245,0.060975611209869385,1.7999999523162842,1.9500000476837158,-8.25,37.34169006347656,0,
 27657,-0.302978515625,-0.928466796875,-0.02197265625,-1.3109756708145142,0.4573170840740204,-0.6097561120986938,3.9000000953674316,1.350000023841858,-9.449999809265137,37.43753433227539,0,
 27667,-0.312255859375,-0.929931640625,-0.02734375,-1.0060975551605225,0.6097561120986938,0.060975611209869385,3.9000000953674316,1.350000023841858,-9.449999809265137,37.006229400634766,0,
 27677,-0.3017578125,-0.92822265625,-0.026611328125,-1.1280487775802612,0.3048780560493469,0.0,1.7999999523162842,3.9000000953674316,-7.800000190734863,37.34169006347656,0,
 27688,-0.307861328125,-0.93310546875,-0.021484375,-0.7317073345184326,0.6097561120986938,0.060975611209869385,1.0499999523162842,1.5,-7.5,37.245845794677734,0,
 27698,-0.309814453125,-0.92431640625,-0.024658203125,-0.396341472864151,0.4878048896789551,0.27439025044441223,1.2000000476837158,1.350000023841858,-7.949999809265137,37.245845794677734,0,
 27708,-0.30859375,-0.927001953125,-0.020751953125,-0.6097561120986938,0.3353658616542816,0.27439025044441223,1.2000000476837158,1.350000023841858,-7.949999809265137,37.34169006347656,0,
 27718,-0.312744140625,-0.92822265625,-0.0224609375,-0.12195122241973877,0.3048780560493469,0.4878048896789551,2.0999999046325684,2.0999999046325684,-8.699999809265137,37.19792175292969,0,
 27728,-0.305908203125,-0.929931640625,-0.020751953125,-0.5487805008888245,0.24390244483947754,0.9451219439506531,3.9000000953674316,1.649999976158142,-10.199999809265137,37.38961410522461,0,
 27738,-0.30712890625,-0.93505859375,-0.0224609375,0.15243902802467346,0.12195122241973877,0.3048780560493469,2.25,1.5,-8.25,37.34169006347656,0,
 27748,-0.30908203125,-0.927978515625,-0.0234375,-0.7012194991111755,0.15243902802467346,0.4878048896789551,2.25,4.650000095367432,-8.550000190734863,37.38961410522461,0,
 27758,-0.308349609375,-0.923583984375,-0.0244140625,-0.5182926654815674,0.18292683362960815,0.09146341681480408,2.25,4.650000095367432,-8.550000190734863,37.05415344238281,0,
 27768,-0.3125,-0.927734375,-0.021728515625,-0.5487805008888245,0.5792682766914368,-0.060975611209869385,2.0999999046325684,1.350000023841858,-8.699999809265137,37.05415344238281,0,
 27778,-0.308837890625,-0.927490234375,-0.025390625,-0.5792682766914368,0.4573170840740204,0.0,1.649999976158142,1.649999976158142,-8.399999618530273,37.38961410522461,0,
 27788,-0.3095703125,-0.927490234375,-0.02734375,-0.6707317233085632,0.09146341681480408,0.3048780560493469,1.7999999523162842,1.0499999523162842,-7.800000190734863,37.581302642822266,0,
 27798,-0.310302734375,-0.931640625,-0.025634765625,-0.396341472864151,0.5792682766914368,-0.21341463923454285,1.7999999523162842,1.0499999523162842,-7.800000190734863,37.245845794677734,0,
 27808,-0.308837890625,-0.93017578125,-0.018310546875,-0.5487805008888245,0.5182926654815674,-0.060975611209869385,1.649999976158142,0.8999999761581421,-7.199999809265137,37.34169006347656,0,
 27818,-0.307861328125,-0.929931640625,-0.022705078125,-0.8231707215309143,0.8231707215309143,0.030487805604934692,1.0499999523162842,2.700000047683716,-7.050000190734863,37.006229400634766,0,
 27828,-0.30419921875,-0.93017578125,-0.02197265625,-0.5487805008888245,0.4268292784690857,-0.030487805604934692,2.549999952316284,1.5,-6.0,37.34169006347656,0,
 27838,-0.306396484375,-0.93017578125,-0.025390625,-0.5487805008888245,0.4878048896789551,0.6707317233085632,3.0,1.5,-9.300000190734863,37.38961410522461,0,
 27848,-0.309814453125,-0.930908203125,-0.0234375,-0.4268292784690857,0.4573170840740204,0.24390244483947754,3.0,1.5,-9.300000190734863,37.43753433227539,0,
 27858,-0.302490234375,-0.933349609375,-0.021728515625,-0.15243902802467346,0.4573170840740204,0.5182926654815674,3.0,2.25,-7.800000190734863,37.34169006347656,0,
 27868,-0.31103515625,-0.927978515625,-0.02978515625,-0.6402438879013062,0.4573170840740204,0.3658536672592163,2.549999952316284,1.9500000476837158,-7.5,37.245845794677734,0,
 27878,-0.313232421875,-0.927734375,-0.016357421875,-0.12195122241973877,0.4878048896789551,0.15243902802467346,1.5,1.0499999523162842,-7.5,37.581302642822266,0,
 27888,-0.30712890625,-0.9306640625,-0.025146484375,-0.4268292784690857,0.3658536672592163,0.0,1.5,1.0499999523162842,-7.5,37.245845794677734,0,
 27898,-0.3134765625,-0.925048828125,-0.020263671875,-0.24390244483947754,0.18292683362960815,0.3658536672592163,1.5,1.5,-7.5,37.245845794677734,0,
 27908,-0.3046875,-0.924072265625,-0.0244140625,-0.3353658616542816,0.3658536672592163,0.3048780560493469,1.5,2.700000047683716,-7.050000190734863,37.34169006347656,0,
 27918,-0.304443359375,-0.931396484375,-0.02099609375,-0.6402438879013062,0.4573170840740204,-0.12195122241973877,1.649999976158142,1.350000023841858,-7.949999809265137,37.38961410522461,0,
 27928,-0.30859375,-0.927490234375,-0.02880859375,-0.5792682766914368,0.27439025044441223,0.15243902802467346,2.25,1.9500000476837158,-7.5,37.245845794677734,0,
 27938,-0.311767578125,-0.92919921875,-0.021484375,-0.9146341681480408,0.6402438879013062,-0.24390244483947754,2.25,1.9500000476837158,-7.5,37.006229400634766,0,
 27948,-0.30419921875,-0.928955078125,-0.021728515625,-0.5487805008888245,0.3048780560493469,0.060975611209869385,1.5,1.9500000476837158,-8.25,37.245845794677734,0,
 27958,-0.3095703125,-0.932373046875,-0.026123046875,-0.6402438879013062,0.5182926654815674,0.060975611209869385,2.4000000953674316,-0.44999998807907104,-8.399999618530273,37.34169006347656,0,
 27968,-0.31005859375,-0.928955078125,-0.025146484375,-0.3048780560493469,0.27439025044441223,0.27439025044441223,1.5,0.30000001192092896,-12.75,37.34169006347656,0,
 27978,-0.311279296875,-0.931396484375,-0.022216796875,-0.3658536672592163,0.15243902802467346,0.6402438879013062,1.5,0.30000001192092896,-12.75,37.34169006347656,0,
 27988,-0.3134765625,-0.93359375,-0.02001953125,-0.21341463923454285,0.15243902802467346,0.6097561120986938,0.44999998807907104,1.649999976158142,-7.199999809265137,37.245845794677734,0,
 27998,-0.302734375,-0.92626953125,-0.022705078125,-0.4573170840740204,0.3658536672592163,0.6097561120986938,1.5,1.5,-7.800000190734863,37.34169006347656,0,
 28008,-0.30419921875,-0.9296875,-0.0234375,-0.4573170840740204,0.24390244483947754,0.4878048896789551,1.7999999523162842,2.25,-7.800000190734863,37.10207748413086,0,
 28018,-0.3134765625,-0.931884765625,-0.022705078125,-0.7317073345184326,0.24390244483947754,0.27439025044441223,1.649999976158142,1.649999976158142,-7.949999809265137,37.34169006347656,0,
 28028,-0.310791015625,-0.92578125,-0.02099609375,-0.7012194991111755,0.396341472864151,0.24390244483947754,1.649999976158142,1.649999976158142,-7.949999809265137,37.34169006347656,0,
 28038,-0.309814453125,-0.927978515625,-0.026123046875,-0.3048780560493469,0.27439025044441223,0.3353658616542816,1.649999976158142,0.8999999761581421,-7.650000095367432,37.38961410522461,0,
 28048,-0.3134765625,-0.929931640625,-0.025390625,-0.4268292784690857,0.6097561120986938,0.24390244483947754,3.1500000953674316,2.0999999046325684,-7.199999809265137,37.533382415771484,0,
 28058,-0.30517578125,-0.924560546875,-0.02197265625,-0.7621951103210449,0.6097561120986938,-0.12195122241973877,0.8999999761581421,2.8499999046325684,-7.650000095367432,37.34169006347656,0,
 28068,-0.302490234375,-0.9296875,-0.020751953125,-0.8536585569381714,0.5182926654815674,0.15243902802467346,0.8999999761581421,2.8499999046325684,-7.650000095367432,37.34169006347656,0,
 28078,-0.313232421875,-0.929931640625,-0.025390625,-0.8231707215309143,0.4268292784690857,0.4268292784690857,2.8499999046325684,2.549999952316284,-8.399999618530273,37.245845794677734,0,
 28088,-0.31201171875,-0.93017578125,-0.02197265625,-0.8841463327407837,0.6707317233085632,0.5792682766914368,1.649999976158142,2.549999952316284,-7.199999809265137,37.245845794677734,0,
 28098,-0.304931640625,-0.9326171875,-0.0234375,-0.396341472864151,0.060975611209869385,0.4878048896789551,2.8499999046325684,3.299999952316284,-7.650000095367432,37.245845794677734,0,
 28108,-0.307373046875,-0.92724609375,-0.020263671875,-0.6097561120986938,0.21341463923454285,0.7621951103210449,3.1500000953674316,1.649999976158142,-7.949999809265137,37.05415344238281,0,
 28118,-0.316162109375,-0.927490234375,-0.021240234375,-0.12195122241973877,0.15243902802467346,0.5182926654815674,3.1500000953674316,1.649999976158142,-7.949999809265137,37.19792175292969,0,
 28128,-0.308349609375,-0.9306640625,-0.02392578125,-0.12195122241973877,0.09146341681480408,0.7012194991111755,1.2000000476837158,1.649999976158142,-7.650000095367432,37.245845794677734,0,
 28138,-0.31298828125,-0.929443359375,-0.020751953125,-0.27439025044441223,0.3353658616542816,0.3048780560493469,2.4000000953674316,1.350000023841858,-7.650000095367432,37.245845794677734,0,
 28148,-0.312744140625,-0.926025390625,-0.016845703125,-0.396341472864151,0.3353658616542816,0.0,1.649999976158142,2.0999999046325684,-7.949999809265137,37.38961410522461,0,
 28168,-0.310546875,-0.926025390625,-0.02197265625,-0.6097561120986938,0.4268292784690857,-0.030487805604934692,2.0999999046325684,4.050000190734863,-9.899999618530273,37.43753433227539,0,
 28178,-0.309326171875,-0.91796875,-0.02294921875,-0.5487805008888245,0.396341472864151,-0.4878048896789551,1.5,3.1500000953674316,-9.75,37.19792175292969,0,
 28188,-0.305419921875,-0.9345703125,-0.025390625,-0.6707317233085632,0.4878048896789551,-0.396341472864151,1.649999976158142,1.649999976158142,-7.650000095367432,37.34169006347656,0,
 28198,-0.302734375,-0.92919921875,-0.03076171875,-0.8536585569381714,0.4268292784690857,-0.030487805604934692,2.0999999046325684,0.8999999761581421,-7.199999809265137,37.34169006347656,0,
 28208,-0.305908203125,-0.9296875,-0.025634765625,-0.6707317233085632,0.396341472864151,0.4878048896789551,2.0999999046325684,0.8999999761581421,-7.199999809265137,37.245845794677734,0,
 28218,-0.307373046875,-0.933349609375,-0.0263671875,-0.24390244483947754,0.21341463923454285,0.24390244483947754,0.30000001192092896,1.5,-7.050000190734863,37.38961410522461,0,
 28228,-0.30517578125,-0.93017578125,-0.02294921875,-0.27439025044441223,0.030487805604934692,0.8536585569381714,0.0,1.5,-6.75,37.34169006347656,0,
 28238,-0.3095703125,-0.927978515625,-0.021240234375,-0.6097561120986938,0.030487805604934692,0.6402438879013062,1.2000000476837158,-0.15000000596046448,-9.899999618530273,37.34169006347656,0,
 28248,-0.30810546875,-0.93505859375,-0.018310546875,-0.21341463923454285,-0.3048780560493469,0.7012194991111755,2.0999999046325684,2.0999999046325684,-8.399999618530273,37.34169006347656,0,
 28258,-0.31103515625,-0.9365234375,-0.021484375,-0.3658536672592163,0.3658536672592163,0.27439025044441223,2.0999999046325684,2.0999999046325684,-8.399999618530273,37.245845794677734,0,
 28268,-0.31640625,-0.927001953125,-0.017333984375,-0.8536585569381714,0.5182926654815674,-0.060975611209869385,3.0,3.450000047683716,-7.050000190734863,37.34169006347656,0,
 28278,-0.303466796875,-0.92529296875,-0.024658203125,-0.7621951103210449,0.4878048896789551,-0.21341463923454285,2.8499999046325684,2.0999999046325684,-8.399999618530273,37.34169006347656,0,
 28288,-0.3095703125,-0.927978515625,-0.024658203125,-0.7317073345184326,0.4268292784690857,-0.27439025044441223,3.0,0.75,-7.5,37.245845794677734,0,
 28298,-0.313232421875,-0.931884765625,-0.025634765625,-1.2195122241973877,0.5792682766914368,0.09146341681480408,3.0,0.75,-7.5,37.34169006347656,0,
 28308,-0.3056640625,-0.9267578125,-0.024658203125,-0.8536585569381714,0.24390244483947754,0.4878048896789551,3.1500000953674316,2.8499999046325684,-8.699999809265137,37.245845794677734,0,
 28318,-0.30712890625,-0.932861328125,-0.02685546875,-0.6707317233085632,0.21341463923454285,0.3658536672592163,2.25,2.25,-7.5,37.34169006347656,0,
 28328,-0.30859375,-0.932373046875,-0.02685546875,-0.4573170840740204,0.24390244483947754,0.8231707215309143,3.0,1.9500000476837158,-8.25,37.245845794677734,0,
 28338,-0.30859375,-0.926513671875,-0.02392578125,-0.3658536672592163,0.0,0.6097561120986938,2.8499999046325684,1.350000023841858,-7.199999809265137,37.34169006347656,0,
 28348,-0.30810546875,-0.924072265625,-0.01904296875,-0.060975611209869385,0.0,0.7317073345184326,2.8499999046325684,1.350000023841858,-7.199999809265137,37.34169006347656,0,
 28358,-0.31298828125,-0.932373046875,-0.025634765625,-0.4573170840740204,-0.12195122241973877,0.396341472864151,1.2000000476837158,3.299999952316284,-7.949999809265137,37.19792175292969,0,
 28368,-0.3134765625,-0.92333984375,-0.02294921875,-0.396341472864151,0.3353658616542816,0.21341463923454285,2.0999999046325684,1.350000023841858,-7.949999809265137,37.34169006347656,0,
 28378,-0.306884765625,-0.930419921875,-0.027099609375,-0.6707317233085632,0.5487805008888245,0.09146341681480408,2.25,1.9500000476837158,-9.300000190734863,37.245845794677734,0,
 28388,-0.306884765625,-0.928955078125,-0.023193359375,-0.7012194991111755,0.6097561120986938,0.030487805604934692,2.25,1.9500000476837158,-9.300000190734863,37.006229400634766,0,
 28398,-0.302978515625,-0.927734375,-0.021484375,-0.6707317233085632,0.24390244483947754,-0.27439025044441223,1.7999999523162842,0.75,-7.800000190734863,37.38961410522461,0,
 28408,-0.30810546875,-0.929443359375,-0.025146484375,-0.7621951103210449,0.5792682766914368,0.27439025044441223,2.25,1.5,-7.800000190734863,37.19792175292969,0,
 28419,-0.307861328125,-0.931884765625,-0.027099609375,-0.27439025044441223,0.3048780560493469,0.5792682766914368,2.549999952316284,2.25,-7.5,37.34169006347656,0,
 28429,-0.303955078125,-0.924560546875,-0.0263671875,0.0,0.4878048896789551,0.8841463327407837,1.5,0.30000001192092896,-8.25,37.006229400634766,0,
 28439,-0.31494140625,-0.932861328125,-0.01953125,-0.27439025044441223,0.0,0.9146341681480408,1.5,0.30000001192092896,-8.25,37.34169006347656,0,
 28449,-0.314208984375,-0.9345703125,-0.0205078125,-0.3658536672592163,0.09146341681480408,0.6707317233085632,2.25,0.75,-7.5,37.10207748413086,0,
 28459,-0.31201171875,-0.927978515625,-0.022705078125,-0.4268292784690857,0.15243902802467346,0.5182926654815674,1.0499999523162842,3.1500000953674316,-9.0,37.245845794677734,0,
 28469,-0.31201171875,-0.926513671875,-0.0263671875,-0.4573170840740204,0.12195122241973877,0.060975611209869385,1.2000000476837158,2.8499999046325684,-8.399999618530273,37.43753433227539,0,
 28479,-0.306640625,-0.924560546875,-0.019775390625,-0.8231707215309143,0.27439025044441223,0.030487805604934692,1.2000000476837158,2.8499999046325684,-8.399999618530273,37.38961410522461,0,
 28489,-0.31591796875,-0.93212890625,-0.02392578125,-0.6707317233085632,0.4268292784690857,-0.15243902802467346,2.0999999046325684,0.8999999761581421,-7.949999809265137,37.34169006347656,0,
 28499,-0.3076171875,-0.9306640625,-0.018310546875,-0.6707317233085632,0.3658536672592163,-0.5487805008888245,1.649999976158142,2.0999999046325684,-9.149999618530273,37.10207748413086,0,
 28509,-0.3076171875,-0.922607421875,-0.022705078125,-1.0670732259750366,0.3658536672592163,-0.15243902802467346,2.549999952316284,2.25,-7.050000190734863,37.245845794677734,0,
 28529,-0.31298828125,-0.931884765625,-0.023193359375,-1.1890244483947754,0.4878048896789551,0.4878048896789551,1.5,1.5,-7.5,37.19792175292969,0,
 28539,-0.309326171875,-0.93115234375,-0.029052734375,-0.4268292784690857,0.4573170840740204,0.4573170840740204,2.549999952316284,2.25,-8.25,37.43753433227539,0,
 28549,-0.302734375,-0.9296875,-0.0224609375,-0.4573170840740204,0.15243902802467346,0.5182926654815674,1.2000000476837158,2.8499999046325684,-8.699999809265137,36.86246109008789,0,
 28559,-0.31103515625,-0.931640625,-0.02392578125,-0.8231707215309143,0.27439025044441223,0.5792682766914368,1.0499999523162842,1.0499999523162842,-7.050000190734863,37.34169006347656,0,
 28569,-0.311767578125,-0.931396484375,-0.0244140625,-0.3658536672592163,0.24390244483947754,0.6707317233085632,1.0499999523162842,1.0499999523162842,-7.050000190734863,37.19792175292969,0,
 28579,-0.310546875,-0.92236328125,-0.022705078125,-0.7621951103210449,0.3048780560493469,0.4878048896789551,2.25,2.25,-9.0,37.34169006347656,0,
 28589,-0.30859375,-0.929443359375,-0.021240234375,-0.6707317233085632,0.4573170840740204,0.8536585569381714,0.8999999761581421,1.350000023841858,-7.199999809265137,37.34169006347656,0,
 28599,-0.3056640625,-0.93359375,-0.023681640625,-0.7621951103210449,0.4878048896789551,0.27439025044441223,1.2000000476837158,3.299999952316284,-7.650000095367432,37.245845794677734,0,
 28609,-0.309814453125,-0.933349609375,-0.02197265625,-0.6707317233085632,0.396341472864151,0.21341463923454285,1.7999999523162842,1.9500000476837158,-10.050000190734863,37.19792175292969,0,
 28619,-0.312255859375,-0.933349609375,-0.023681640625,-0.8841463327407837,0.5182926654815674,0.030487805604934692,1.7999999523162842,1.9500000476837158,-10.050000190734863,37.245845794677734,0,
 28629,-0.300048828125,-0.9306640625,-0.02294921875,-0.6707317233085632,0.7012194991111755,0.27439025044441223,1.0499999523162842,1.9500000476837158,-9.0,37.38961410522461,0,
 28679,-0.30712890625,-0.93212890625,-0.0185546875,-0.3048780560493469,0.030487805604934692,0.8841463327407837,1.0499999523162842,1.9500000476837158,-7.5,37.34169006347656,0,
 28689,-0.310791015625,-0.92236328125,-0.026611328125,-0.09146341681480408,0.24390244483947754,0.4878048896789551,2.0999999046325684,2.0999999046325684,-6.900000095367432,37.533382415771484,0,
 28699,-0.305908203125,-0.930908203125,-0.01611328125,0.030487805604934692,0.3658536672592163,0.3353658616542816,2.8499999046325684,2.8499999046325684,-9.449999809265137,37.006229400634766,0,
 28709,-0.3115234375,-0.92822265625,-0.0205078125,-0.3353658616542816,0.15243902802467346,-0.18292683362960815,2.8499999046325684,2.8499999046325684,-9.449999809265137,37.245845794677734,0,
 28719,-0.305419921875,-0.92333984375,-0.021728515625,-0.12195122241973877,0.3048780560493469,0.030487805604934692,1.2000000476837158,1.350000023841858,-7.199999809265137,37.43753433227539,0,
 28729,-0.3095703125,-0.926025390625,-0.01904296875,-0.3658536672592163,0.3048780560493469,-0.12195122241973877,1.649999976158142,1.350000023841858,-7.199999809265137,37.43753433227539,0,
 28739,-0.304931640625,-0.927490234375,-0.0224609375,-0.7621951103210449,0.4268292784690857,-0.060975611209869385,1.649999976158142,2.0999999046325684,-8.399999618530273,37.10207748413086,0,
 28749,-0.311279296875,-0.92724609375,-0.023681640625,-0.7317073345184326,0.24390244483947754,-0.21341463923454285,1.649999976158142,2.0999999046325684,-8.399999618530273,37.34169006347656,0,
 28759,-0.308837890625,-0.925048828125,-0.0205078125,-0.5182926654815674,0.5182926654815674,0.3048780560493469,1.2000000476837158,1.350000023841858,-8.399999618530273,37.34169006347656,0,
 28769,-0.306396484375,-0.92626953125,-0.0244140625,-0.5182926654815674,0.3353658616542816,-0.15243902802467346,1.2000000476837158,0.15000000596046448,-6.150000095367432,37.19792175292969,0,
 28779,-0.306396484375,-0.928955078125,-0.02392578125,-0.6097561120986938,0.18292683362960815,0.4878048896789551,3.75,1.9500000476837158,-8.25,37.38961410522461,0,
 28789,-0.307861328125,-0.92919921875,-0.019775390625,0.09146341681480408,0.24390244483947754,0.5792682766914368,1.2000000476837158,2.8499999046325684,-10.649999618530273,37.34169006347656,0,
 28799,-0.3095703125,-0.92578125,-0.0224609375,-0.3048780560493469,0.15243902802467346,0.4268292784690857,1.2000000476837158,2.8499999046325684,-10.649999618530273,37.10207748413086,0,
 28809,-0.307373046875,-0.92626953125,-0.021484375,-0.12195122241973877,0.27439025044441223,0.4573170840740204,2.25,2.25,-8.25,37.38961410522461,0,
 28819,-0.306884765625,-0.931396484375,-0.02294921875,-0.21341463923454285,0.3353658616542816,0.3353658616542816,3.5999999046325684,1.350000023841858,-6.900000095367432,37.38961410522461,0,
 28829,-0.3134765625,-0.929443359375,-0.0244140625,-0.6707317233085632,0.5182926654815674,-0.030487805604934692,2.549999952316284,1.9500000476837158,-8.550000190734863,37.006229400634766,0,
 28839,-0.314208984375,-0.924072265625,-0.0205078125,-0.5487805008888245,0.4573170840740204,0.09146341681480408,2.549999952316284,1.9500000476837158,-8.550000190734863,37.34169006347656,0,
 28849,-0.305419921875,-0.93359375,-0.030029296875,-0.792682945728302,0.4878048896789551,-0.030487805604934692,0.30000001192092896,1.0499999523162842,-8.25,36.91038513183594,0,
 28859,-0.309326171875,-0.929443359375,-0.025634765625,-0.5182926654815674,0.5487805008888245,0.030487805604934692,1.649999976158142,0.44999998807907104,-7.199999809265137,37.34169006347656,0,
 28869,-0.306396484375,-0.93212890625,-0.0234375,-0.6097561120986938,0.4268292784690857,0.060975611209869385,0.8999999761581421,1.649999976158142,-8.399999618530273,37.43753433227539,0,
 28879,-0.3115234375,-0.9287109375,-0.0244140625,-0.396341472864151,0.4878048896789551,0.030487805604934692,2.0999999046325684,0.8999999761581421,-7.949999809265137,37.10207748413086,0,
 28889,-0.312744140625,-0.929931640625,-0.02001953125,-0.4573170840740204,0.4573170840740204,0.12195122241973877,2.0999999046325684,0.8999999761581421,-7.949999809265137,37.245845794677734,0,
 28899,-0.312744140625,-0.928955078125,-0.020751953125,-0.7317073345184326,0.27439025044441223,0.18292683362960815,2.25,2.25,-8.550000190734863,37.34169006347656,0,
 28909,-0.305908203125,-0.92822265625,-0.0244140625,-0.7012194991111755,0.4268292784690857,0.4573170840740204,1.649999976158142,3.75,-7.199999809265137,37.245845794677734,0,
 28919,-0.304931640625,-0.927734375,-0.022705078125,-0.7317073345184326,0.3353658616542816,0.5182926654815674,1.5,1.5,-7.050000190734863,37.533382415771484,0,
 28929,-0.30517578125,-0.929443359375,-0.02197265625,-0.7012194991111755,-0.12195122241973877,0.7012194991111755,1.5,1.5,-7.050000190734863,37.245845794677734,0,
 28939,-0.30859375,-0.92822265625,-0.019775390625,-0.12195122241973877,0.5182926654815674,0.5487805008888245,2.8499999046325684,3.75,-6.449999809265137,37.05415344238281,0,
 28949,-0.307373046875,-0.924072265625,-0.022216796875,-0.5487805008888245,0.27439025044441223,0.21341463923454285,1.5,1.5,-8.25,37.38961410522461,0,
 28959,-0.31103515625,-0.927978515625,-0.028076171875,-0.4878048896789551,0.24390244483947754,0.7317073345184326,1.649999976158142,1.649999976158142,-7.949999809265137,37.006229400634766,0,
 28969,-0.31201171875,-0.933837890625,-0.022216796875,-0.5182926654815674,0.030487805604934692,0.396341472864151,0.8999999761581421,2.549999952316284,-8.399999618530273,37.34169006347656,0,
 28979,-0.3046875,-0.928955078125,-0.017578125,-0.6402438879013062,0.21341463923454285,0.3048780560493469,0.8999999761581421,2.549999952316284,-8.399999618530273,37.19792175292969,0,
 28989,-0.314208984375,-0.92724609375,-0.020751953125,-0.396341472864151,0.060975611209869385,0.4268292784690857,1.649999976158142,1.350000023841858,-11.699999809265137,37.34169006347656,0,
 28999,-0.30615234375,-0.929443359375,-0.021728515625,-0.18292683362960815,0.27439025044441223,0.21341463923454285,0.8999999761581421,1.649999976158142,-11.399999618530273,37.05415344238281,0,
 29009,-0.307861328125,-0.931640625,-0.021728515625,-0.4878048896789551,0.3353658616542816,0.7317073345184326,1.2000000476837158,0.8999999761581421,-8.699999809265137,37.10207748413086,0,
 29019,-0.31103515625,-0.9306640625,-0.0234375,-0.4268292784690857,0.18292683362960815,0.396341472864151,1.2000000476837158,0.8999999761581421,-8.699999809265137,37.245845794677734,0,
 29029,-0.3115234375,-0.9248046875,-0.021728515625,-0.24390244483947754,0.27439025044441223,0.27439025044441223,2.0999999046325684,2.549999952316284,-6.449999809265137,37.34169006347656,0,
 29039,-0.310546875,-0.92724609375,-0.020751953125,-0.5792682766914368,0.18292683362960815,0.3048780560493469,1.0499999523162842,1.5,-6.300000190734863,37.006229400634766,0,
 29049,-0.311279296875,-0.9296875,-0.02783203125,-0.3048780560493469,0.15243902802467346,0.060975611209869385,1.0499999523162842,2.700000047683716,-7.050000190734863,37.43753433227539,0,
 29059,-0.314697265625,-0.923095703125,-0.019287109375,-0.030487805604934692,0.4878048896789551,-0.09146341681480408,1.649999976158142,2.549999952316284,-7.199999809265137,37.10207748413086,0,
 29069,-0.311279296875,-0.9306640625,-0.020263671875,-0.396341472864151,0.27439025044441223,0.12195122241973877,1.649999976158142,2.549999952316284,-7.199999809265137,37.38961410522461,0,
 29079,-0.312255859375,-0.928955078125,-0.026123046875,-0.4878048896789551,0.3048780560493469,-0.060975611209869385,1.0499999523162842,1.5,-7.5,37.245845794677734,0,
 29090,-0.301513671875,-0.9306640625,-0.023193359375,-0.5487805008888245,0.3048780560493469,-0.030487805604934692,0.75,2.25,-8.550000190734863,37.245845794677734,0,
 29100,-0.305419921875,-0.93505859375,-0.024658203125,-0.792682945728302,0.4878048896789551,0.3353658616542816,1.2000000476837158,2.0999999046325684,-9.899999618530273,37.34169006347656,0,
 29110,-0.30517578125,-0.925048828125,-0.025634765625,-0.8231707215309143,0.3353658616542816,-0.030487805604934692,1.2000000476837158,2.0999999046325684,-9.899999618530273,37.245845794677734,0,
 29120,-0.307373046875,-0.9326171875,-0.017333984375,-0.7317073345184326,0.4573170840740204,0.27439025044441223,1.0499999523162842,0.30000001192092896,-7.050000190734863,37.05415344238281,0,
 29130,-0.309326171875,-0.93115234375,-0.025634765625,-0.4573170840740204,0.3658536672592163,0.060975611209869385,1.649999976158142,1.350000023841858,-8.399999618530273,37.38961410522461,0,
 29140,-0.30712890625,-0.927734375,-0.02294921875,-0.24390244483947754,0.15243902802467346,0.396341472864151,1.5,2.25,-8.25,37.10207748413086,0,
 29150,-0.307861328125,-0.92822265625,-0.018798828125,-0.4268292784690857,0.27439025044441223,0.3048780560493469,0.15000000596046448,0.8999999761581421,-8.399999618530273,37.245845794677734,0,
 29160,-0.306396484375,-0.9248046875,-0.01806640625,-0.3048780560493469,0.3658536672592163,0.3658536672592163,0.15000000596046448,0.8999999761581421,-8.399999618530273,37.43753433227539,0,
 29170,-0.308349609375,-0.92529296875,-0.026123046875,-0.030487805604934692,0.5487805008888245,0.12195122241973877,2.549999952316284,3.1500000953674316,-7.050000190734863,37.38961410522461,0,
 29180,-0.3115234375,-0.92919921875,-0.0224609375,-0.6707317233085632,0.3658536672592163,-0.12195122241973877,1.5,3.1500000953674316,-7.5,37.43753433227539,0,
 29190,-0.31787109375,-0.930419921875,-0.02197265625,-0.9146341681480408,0.5792682766914368,0.0,2.4000000953674316,3.299999952316284,-9.149999618530273,37.05415344238281,0,
 29200,-0.309814453125,-0.934814453125,-0.02392578125,-0.8231707215309143,0.792682945728302,-0.12195122241973877,2.4000000953674316,3.299999952316284,-9.149999618530273,37.34169006347656,0,
 29210,-0.307861328125,-0.92724609375,-0.022216796875,-1.0365853309631348,0.5487805008888245,-0.060975611209869385,1.7999999523162842,2.25,-7.800000190734863,37.34169006347656,0,
 29220,-0.30712890625,-0.929443359375,-0.022705078125,-1.1280487775802612,0.4878048896789551,0.09146341681480408,1.7999999523162842,2.25,-10.050000190734863,37.533382415771484,0,
 29230,-0.305908203125,-0.931396484375,-0.026123046875,-0.9756097793579102,0.3658536672592163,-0.09146341681480408,1.649999976158142,1.350000023841858,-10.649999618530273,37.19792175292969,0,
 29240,-0.31005859375,-0.929931640625,-0.020263671875,-1.0365853309631348,0.5792682766914368,0.3353658616542816,2.0999999046325684,2.0999999046325684,-12.149999618530273,37.006229400634766,0,
 29250,-0.304443359375,-0.925048828125,-0.024169921875,-0.6097561120986938,0.5487805008888245,0.6402438879013062,2.0999999046325684,2.0999999046325684,-12.149999618530273,37.34169006347656,0,
 29260,-0.305908203125,-0.931640625,-0.021240234375,-0.7317073345184326,0.3658536672592163,0.3658536672592163,2.0999999046325684,2.0999999046325684,-8.699999809265137,37.245845794677734,0,
 29270,-0.308349609375,-0.92578125,-0.018798828125,-0.792682945728302,0.4573170840740204,0.4573170840740204,1.649999976158142,0.8999999761581421,-8.399999618530273,37.19792175292969,0,
 29280,-0.30712890625,-0.92578125,-0.032958984375,-0.9451219439506531,0.5182926654815674,0.4878048896789551,2.0999999046325684,1.350000023841858,-9.149999618530273,37.38961410522461,0,
 29290,-0.309814453125,-0.92333984375,-0.022705078125,-0.5487805008888245,0.3353658616542816,0.4573170840740204,2.0999999046325684,1.350000023841858,-9.149999618530273,37.38961410522461,0,
 29300,-0.30859375,-0.9345703125,-0.0244140625,-0.4268292784690857,0.396341472864151,0.4268292784690857,3.9000000953674316,-0.15000000596046448,-8.699999809265137,37.245845794677734,0,
 29310,-0.30908203125,-0.92578125,-0.0244140625,-0.5182926654815674,0.4268292784690857,0.3353658616542816,0.30000001192092896,2.25,-8.25,37.533382415771484,0,
 29320,-0.3056640625,-0.9326171875,-0.026123046875,-0.6097561120986938,0.21341463923454285,0.3658536672592163,1.0499999523162842,3.9000000953674316,-7.800000190734863,37.19792175292969,0,
 29330,-0.30908203125,-0.927734375,-0.021728515625,-0.4268292784690857,0.27439025044441223,0.396341472864151,1.2000000476837158,1.350000023841858,-7.199999809265137,37.43753433227539,0,
 29340,-0.30615234375,-0.93701171875,-0.0205078125,-0.4573170840740204,0.15243902802467346,0.18292683362960815,1.2000000476837158,1.350000023841858,-7.199999809265137,37.245845794677734,0,
 29350,-0.317138671875,-0.9326171875,-0.023681640625,-0.030487805604934692,0.24390244483947754,0.21341463923454285,3.5999999046325684,2.0999999046325684,-8.399999618530273,37.34169006347656,0,
 29360,-0.307373046875,-0.929443359375,-0.02880859375,-0.12195122241973877,0.3658536672592163,0.5792682766914368,-0.15000000596046448,2.549999952316284,-6.449999809265137,37.43753433227539,0,
 29370,-0.30908203125,-0.926025390625,-0.023681640625,-0.3658536672592163,0.27439025044441223,0.3353658616542816,2.0999999046325684,1.649999976158142,-7.199999809265137,37.34169006347656,0,
 29380,-0.309326171875,-0.927490234375,-0.022705078125,-0.15243902802467346,0.0,0.3353658616542816,2.0999999046325684,1.649999976158142,-7.199999809265137,36.91038513183594,0,
 29390,-0.312744140625,-0.926513671875,-0.01806640625,0.21341463923454285,0.12195122241973877,0.396341472864151,0.75,3.450000047683716,-7.5,37.245845794677734,0,
 29400,-0.30810546875,-0.927490234375,-0.0244140625,0.21341463923454285,0.12195122241973877,0.15243902802467346,2.4000000953674316,2.8499999046325684,-10.199999809265137,37.43753433227539,0,
 29410,-0.3076171875,-0.92626953125,-0.01806640625,-0.18292683362960815,0.15243902802467346,0.4573170840740204,2.25,1.5,-7.800000190734863,37.34169006347656,0,
 29420,-0.315673828125,-0.93115234375,-0.0185546875,-0.3048780560493469,0.15243902802467346,0.4268292784690857,3.1500000953674316,1.649999976158142,-11.699999809265137,37.245845794677734,0,
 29430,-0.306640625,-0.9287109375,-0.019775390625,-0.18292683362960815,0.18292683362960815,0.18292683362960815,3.1500000953674316,1.649999976158142,-11.699999809265137,37.006229400634766,0,
 29440,-0.3095703125,-0.931884765625,-0.027099609375,-0.6402438879013062,0.6707317233085632,-0.09146341681480408,2.0999999046325684,0.8999999761581421,-7.199999809265137,37.34169006347656,0,
 29450,-0.308837890625,-0.93359375,-0.025390625,-0.5792682766914368,0.4573170840740204,0.21341463923454285,1.0499999523162842,0.0,-7.800000190734863,37.533382415771484,0,
 29460,-0.309814453125,-0.9326171875,-0.024169921875,-0.7317073345184326,0.3353658616542816,0.3658536672592163,2.8499999046325684,0.8999999761581421,-7.650000095367432,37.38961410522461,0,
 29470,-0.310302734375,-0.93115234375,-0.02197265625,-0.4573170840740204,0.18292683362960815,0.12195122241973877,1.0499999523162842,3.1500000953674316,-8.550000190734863,37.34169006347656,0,
 29480,-0.30615234375,-0.927978515625,-0.0205078125,-0.5792682766914368,0.3353658616542816,0.24390244483947754,0.30000001192092896,3.9000000953674316,-7.050000190734863,37.006229400634766,0,
 29490,-0.307861328125,-0.929443359375,-0.019287109375,-0.6402438879013062,0.5487805008888245,0.3658536672592163,2.4000000953674316,2.549999952316284,-8.399999618530273,37.34169006347656,0,
 29500,-0.314208984375,-0.926025390625,-0.025634765625,-0.8231707215309143,0.4573170840740204,0.4268292784690857,0.44999998807907104,3.75,-7.949999809265137,37.245845794677734,0,
 29510,-0.301513671875,-0.93115234375,-0.02197265625,-0.6402438879013062,0.5792682766914368,0.09146341681480408,2.0999999046325684,4.050000190734863,-5.400000095367432,37.43753433227539,0,
 29520,-0.306396484375,-0.931884765625,-0.018310546875,-1.0060975551605225,0.792682945728302,-0.030487805604934692,2.0999999046325684,4.050000190734863,-5.400000095367432,37.38961410522461,0,
 29530,-0.31005859375,-0.932861328125,-0.022216796875,-1.097561001777649,0.4573170840740204,0.060975611209869385,1.5,1.0499999523162842,-7.050000190734863,37.19792175292969,0,
 29540,-0.31103515625,-0.932861328125,-0.02294921875,-1.1890244483947754,0.4573170840740204,0.060975611209869385,1.2000000476837158,-0.44999998807907104,-7.949999809265137,37.34169006347656,0,
 29550,-0.3125,-0.928466796875,-0.02294921875,-1.0365853309631348,0.5487805008888245,-0.21341463923454285,1.5,1.0499999523162842,-9.0,37.34169006347656,0,
 29560,-0.312744140625,-0.9287109375,-0.02197265625,-0.8536585569381714,0.6402438879013062,0.09146341681480408,1.2000000476837158,2.549999952316284,-7.650000095367432,37.34169006347656,0,
 29570,-0.303466796875,-0.92822265625,-0.020751953125,-0.6402438879013062,0.7012194991111755,-0.09146341681480408,1.2000000476837158,2.549999952316284,-7.650000095367432,37.43753433227539,0,
 29580,-0.3056640625,-0.931640625,-0.021240234375,-1.2195122241973877,0.5792682766914368,0.21341463923454285,2.549999952316284,1.0499999523162842,-8.25,37.245845794677734,0,
 29590,-0.31005859375,-0.925537109375,-0.0244140625,-0.6707317233085632,0.4878048896789551,0.24390244483947754,2.8499999046325684,1.350000023841858,-7.650000095367432,37.34169006347656,0,
 29600,-0.31005859375,-0.93115234375,-0.025390625,-0.6097561120986938,0.3658536672592163,0.3353658616542816,1.0499999523162842,2.25,-8.550000190734863,37.34169006347656,0,
 29610,-0.30859375,-0.9228515625,-0.0244140625,-0.4268292784690857,0.3353658616542816,0.09146341681480408,1.0499999523162842,2.25,-8.550000190734863,37.10207748413086,0,
 29620,-0.30615234375,-0.92919921875,-0.028076171875,-0.4878048896789551,0.4268292784690857,0.5792682766914368,2.8499999046325684,1.350000023841858,-7.949999809265137,37.38961410522461,0,
 29630,-0.308837890625,-0.92626953125,-0.01953125,-0.6097561120986938,0.0,0.5487805008888245,1.7999999523162842,2.25,-7.050000190734863,37.10207748413086,0,
 29640,-0.3076171875,-0.931396484375,-0.018798828125,-0.12195122241973877,0.18292683362960815,0.4573170840740204,2.0999999046325684,2.0999999046325684,-8.699999809265137,37.34169006347656,0,
 29650,-0.3134765625,-0.93310546875,-0.0263671875,-0.030487805604934692,0.030487805604934692,0.5487805008888245,0.0,2.25,-7.050000190734863,37.34169006347656,0,
 29660,-0.30615234375,-0.928466796875,-0.024658203125,-0.4268292784690857,0.3658536672592163,0.5182926654815674,0.0,2.25,-7.050000190734863,37.19792175292969,0,
 29670,-0.3115234375,-0.92529296875,-0.02392578125,-0.5182926654815674,0.396341472864151,0.5792682766914368,1.0499999523162842,1.9500000476837158,-7.5,37.38961410522461,0,
 29680,-0.311767578125,-0.935302734375,-0.0244140625,-0.396341472864151,0.396341472864151,0.3353658616542816,0.15000000596046448,2.0999999046325684,-7.650000095367432,37.006229400634766,0,
 29690,-0.30810546875,-0.92626953125,-0.0185546875,-0.6097561120986938,0.0,0.12195122241973877,1.649999976158142,0.8999999761581421,-7.199999809265137,37.581302642822266,0,
 29700,-0.3115234375,-0.928466796875,-0.0224609375,-0.4268292784690857,0.15243902802467346,-0.060975611209869385,1.649999976158142,0.8999999761581421,-7.199999809265137,37.34169006347656,0,
 29710,-0.310546875,-0.928466796875,-0.023193359375,-0.6097561120986938,0.6402438879013062,0.15243902802467346,2.4000000953674316,0.44999998807907104,-9.899999618530273,37.34169006347656,0,
 29720,-0.305419921875,-0.935302734375,-0.023681640625,-0.8536585569381714,0.792682945728302,0.09146341681480408,1.7999999523162842,1.9500000476837158,-8.550000190734863,37.38961410522461,0,
 29731,-0.308837890625,-0.931640625,-0.0185546875,-0.6707317233085632,0.5487805008888245,0.3048780560493469,1.5,2.25,-8.25,37.245845794677734,0,
 29741,-0.31396484375,-0.935302734375,-0.023681640625,-0.8231707215309143,0.4268292784690857,0.27439025044441223,2.0999999046325684,2.0999999046325684,-8.399999618530273,37.34169006347656,0,
 29751,-0.31005859375,-0.935302734375,-0.02978515625,-0.9451219439506531,0.6097561120986938,0.4268292784690857,2.0999999046325684,2.0999999046325684,-8.399999618530273,37.43753433227539,0,
 29761,-0.308349609375,-0.9267578125,-0.0263671875,-0.3658536672592163,0.15243902802467346,0.5792682766914368,2.4000000953674316,2.8499999046325684,-7.650000095367432,37.34169006347656,0,
 29771,-0.31103515625,-0.93603515625,-0.02197265625,-0.3658536672592163,0.3048780560493469,0.6707317233085632,3.299999952316284,0.75,-7.050000190734863,37.581302642822266,0,
 29781,-0.30810546875,-0.931396484375,-0.019287109375,-0.3353658616542816,0.27439025044441223,0.4878048896789551,1.5,2.700000047683716,-8.25,37.34169006347656,0,
 29791,-0.311767578125,-0.929443359375,-0.024658203125,-0.7012194991111755,0.5487805008888245,0.24390244483947754,1.5,2.700000047683716,-8.25,37.34169006347656,0,
 29801,-0.31103515625,-0.92919921875,-0.0244140625,-0.6097561120986938,0.3658536672592163,0.18292683362960815,2.0999999046325684,1.350000023841858,-6.449999809265137,37.38961410522461,0,
 29811,-0.309814453125,-0.928466796875,-0.02587890625,-0.6707317233085632,0.4573170840740204,0.21341463923454285,2.549999952316284,4.349999904632568,-8.25,37.245845794677734,0,
 29821,-0.30517578125,-0.932373046875,-0.02197265625,-0.7012194991111755,0.5487805008888245,0.24390244483947754,1.7999999523162842,1.5,-7.050000190734863,37.05415344238281,0,
 29831,-0.308349609375,-0.9296875,-0.025390625,-0.8231707215309143,0.5792682766914368,-0.030487805604934692,2.0999999046325684,2.0999999046325684,-7.650000095367432,37.19792175292969,0,
 29841,-0.306640625,-0.933349609375,-0.026611328125,-0.5487805008888245,0.21341463923454285,0.4573170840740204,2.0999999046325684,2.0999999046325684,-7.650000095367432,37.245845794677734,0,
 29851,-0.30517578125,-0.932373046875,-0.022705078125,-0.4878048896789551,0.4878048896789551,0.21341463923454285,1.649999976158142,2.549999952316284,-6.449999809265137,37.245845794677734,0,
 29861,-0.312744140625,-0.92626953125,-0.018798828125,-0.6402438879013062,0.4268292784690857,0.12195122241973877,2.25,1.5,-7.5,37.34169006347656,0,
 29871,-0.30615234375,-0.933837890625,-0.02294921875,-0.3048780560493469,0.21341463923454285,0.3353658616542816,1.0499999523162842,2.25,-7.050000190734863,37.05415344238281,0,
 29881,-0.31103515625,-0.923828125,-0.025146484375,-0.3048780560493469,0.15243902802467346,0.09146341681480408,1.0499999523162842,2.25,-7.050000190734863,37.38961410522461,0,
 29891,-0.310546875,-0.93212890625,-0.022705078125,-0.12195122241973877,0.24390244483947754,0.3048780560493469,2.0999999046325684,0.8999999761581421,-5.699999809265137,37.533382415771484,0,
 29901,-0.30810546875,-0.933837890625,-0.024658203125,-0.12195122241973877,0.27439025044441223,0.3353658616542816,1.7999999523162842,0.30000001192092896,-8.25,37.34169006347656,0,
 29911,-0.312744140625,-0.925537109375,-0.026123046875,-0.5487805008888245,0.3658536672592163,0.12195122241973877,0.75,2.700000047683716,-9.0,37.19792175292969,0,
 29921,-0.310791015625,-0.9306640625,-0.0224609375,-0.12195122241973877,0.15243902802467346,0.4268292784690857,1.2000000476837158,2.549999952316284,-8.699999809265137,37.05415344238281,0,
 29931,-0.30859375,-0.927978515625,-0.024169921875,-0.6707317233085632,0.12195122241973877,0.060975611209869385,1.2000000476837158,2.549999952316284,-8.699999809265137,37.43753433227539,0,
 29941,-0.312744140625,-0.92919921875,-0.019287109375,-0.3048780560493469,0.3353658616542816,-0.09146341681480408,2.0999999046325684,0.44999998807907104,-8.699999809265137,37.34169006347656,0,
 29951,-0.30908203125,-0.929443359375,-0.02490234375,-0.5487805008888245,0.3353658616542816,0.12195122241973877,1.649999976158142,1.649999976158142,-8.399999618530273,37.34169006347656,0,
 29961,-0.304931640625,-0.93359375,-0.023681640625,-0.6707317233085632,0.24390244483947754,-0.060975611209869385,2.4000000953674316,0.44999998807907104,-7.949999809265137,37.38961410522461,0,
 29971,-0.311279296875,-0.93115234375,-0.019287109375,-0.4878048896789551,0.5487805008888245,0.15243902802467346,2.4000000953674316,0.44999998807907104,-7.949999809265137,37.05415344238281,0,
 29981,-0.30322265625,-0.927978515625,-0.025390625,-0.4573170840740204,0.5792682766914368,0.030487805604934692,0.30000001192092896,0.0,-7.5,37.38961410522461,0,
 29991,-0.3115234375,-0.92822265625,-0.02197265625,-0.15243902802467346,0.24390244483947754,-0.030487805604934692,1.0499999523162842,2.700000047683716,-7.800000190734863,37.19792175292969,0,
 30001,-0.3095703125,-0.93212890625,-0.021484375,-0.18292683362960815,0.4878048896789551,0.5792682766914368,1.649999976158142,2.549999952316284,-7.650000095367432,37.34169006347656,0,
 30011,-0.30419921875,-0.93310546875,-0.018798828125,-0.18292683362960815,0.15243902802467346,0.4878048896789551,1.649999976158142,2.8499999046325684,-6.150000095367432,37.43753433227539,0,
 30021,-0.314453125,-0.929931640625,-0.022216796875,-0.3048780560493469,0.09146341681480408,0.6707317233085632,1.649999976158142,2.8499999046325684,-6.150000095367432,37.05415344238281,0,
 30031,-0.31201171875,-0.931396484375,-0.025390625,-0.3658536672592163,0.15243902802467346,0.5182926654815674,1.0499999523162842,2.25,-8.550000190734863,37.245845794677734,0,
 30041,-0.306884765625,-0.93017578125,-0.018798828125,-0.12195122241973877,0.3658536672592163,0.6707317233085632,2.8499999046325684,2.549999952316284,-7.650000095367432,37.245845794677734,0,
 30051,-0.314697265625,-0.92578125,-0.01953125,-0.6402438879013062,0.5182926654815674,0.4878048896789551,2.0999999046325684,2.549999952316284,-7.650000095367432,37.43753433227539,0,
 30061,-0.307373046875,-0.928466796875,-0.021728515625,-0.24390244483947754,0.3048780560493469,0.15243902802467346,2.0999999046325684,2.549999952316284,-7.650000095367432,37.38961410522461,0,
 30071,-0.308349609375,-0.9326171875,-0.023681640625,-0.7012194991111755,0.3658536672592163,0.21341463923454285,0.8999999761581421,2.0999999046325684,-6.900000095367432,37.34169006347656,0,
 30081,-0.302978515625,-0.926025390625,-0.02490234375,-0.5792682766914368,0.7012194991111755,-0.18292683362960815,2.4000000953674316,1.649999976158142,-6.900000095367432,37.533382415771484,0,
 30091,-0.30908203125,-0.9326171875,-0.01953125,-0.6402438879013062,0.15243902802467346,0.09146341681480408,1.2000000476837158,3.299999952316284,-7.650000095367432,37.245845794677734,0,
 30101,-0.310302734375,-0.9287109375,-0.0224609375,-0.7317073345184326,0.6707317233085632,0.060975611209869385,0.0,2.700000047683716,-7.5,37.38961410522461,0,
 30111,-0.304931640625,-0.924560546875,-0.022705078125,-1.0365853309631348,0.4573170840740204,0.21341463923454285,0.0,2.700000047683716,-7.5,37.34169006347656,0,
 30121,-0.309814453125,-0.929443359375,-0.023681640625,-0.4573170840740204,0.3658536672592163,0.18292683362960815,2.25,0.75,-10.050000190734863,37.10207748413086,0,
 30131,-0.30615234375,-0.929443359375,-0.018310546875,-0.12195122241973877,0.3353658616542816,0.3353658616542816,2.25,1.0499999523162842,-8.25,37.245845794677734,0,
 30141,-0.311279296875,-0.927978515625,-0.021728515625,-0.21341463923454285,0.09146341681480408,0.27439025044441223,2.549999952316284,3.1500000953674316,-8.25,37.006229400634766,0,
 30151,-0.313232421875,-0.927978515625,-0.018798828125,-0.21341463923454285,0.060975611209869385,0.792682945728302,2.549999952316284,3.1500000953674316,-8.25,37.34169006347656,0,
 30161,-0.310546875,-0.93212890625,-0.02197265625,-0.12195122241973877,0.27439025044441223,0.5487805008888245,2.25,1.5,-6.75,37.34169006347656,0,
 30171,-0.312255859375,-0.9287109375,-0.021484375,-0.5182926654815674,0.4573170840740204,0.4573170840740204,1.0499999523162842,-0.75,-7.5,37.245845794677734,0,
 30181,-0.309326171875,-0.926025390625,-0.024169921875,-0.27439025044441223,0.24390244483947754,0.396341472864151,1.5,1.9500000476837158,-8.550000190734863,37.34169006347656,0,
 30191,-0.304443359375,-0.927978515625,-0.01953125,-0.3353658616542816,0.15243902802467346,0.18292683362960815,2.25,3.1500000953674316,-6.300000190734863,37.245845794677734,0,
 30201,-0.311279296875,-0.92919921875,-0.0234375,-0.24390244483947754,0.3048780560493469,0.4573170840740204,2.25,3.1500000953674316,-6.300000190734863,37.006229400634766,0,
 30211,-0.3134765625,-0.92724609375,-0.0205078125,-0.6402438879013062,0.396341472864151,0.15243902802467346,2.4000000953674316,4.050000190734863,-6.449999809265137,37.38961410522461,0,
 30221,-0.3125,-0.927001953125,-0.019287109375,-0.6402438879013062,0.15243902802467346,0.15243902802467346,2.8499999046325684,2.549999952316284,-9.449999809265137,37.38961410522461,0,
 30231,-0.311279296875,-0.932861328125,-0.025146484375,-0.3353658616542816,0.24390244483947754,0.4268292784690857,2.0999999046325684,1.350000023841858,-7.949999809265137,37.34169006347656,0,
 30241,-0.31103515625,-0.936279296875,-0.022705078125,-0.18292683362960815,0.5792682766914368,0.4268292784690857,2.0999999046325684,1.350000023841858,-7.949999809265137,37.38961410522461,0,
 30251,-0.30615234375,-0.927490234375,-0.021484375,-0.24390244483947754,0.4268292784690857,0.24390244483947754,0.75,0.75,-6.300000190734863,37.581302642822266,0,
 30261,-0.30908203125,-0.9296875,-0.021240234375,-0.18292683362960815,0.060975611209869385,-0.060975611209869385,2.4000000953674316,2.549999952316284,-9.449999809265137,36.86246109008789,0,
 30271,-0.307373046875,-0.92724609375,-0.025390625,-0.4268292784690857,0.3353658616542816,0.27439025044441223,2.8499999046325684,2.0999999046325684,-7.199999809265137,37.34169006347656,0,
 30281,-0.310302734375,-0.9296875,-0.02294921875,-0.3048780560493469,0.5182926654815674,0.4268292784690857,1.5,1.9500000476837158,-7.5,37.38961410522461,0,
 30291,-0.306640625,-0.929931640625,-0.0244140625,-0.4268292784690857,0.5792682766914368,0.24390244483947754,1.5,1.9500000476837158,-7.5,37.581302642822266,0,
 30301,-0.31005859375,-0.9228515625,-0.02734375,-0.396341472864151,0.3353658616542816,-0.3048780560493469,1.649999976158142,1.649999976158142,-7.949999809265137,37.533382415771484,0,
 30311,-0.3076171875,-0.9267578125,-0.0263671875,-0.3658536672592163,0.18292683362960815,0.24390244483947754,-0.15000000596046448,2.0999999046325684,-7.650000095367432,37.34169006347656,0,
 30321,-0.308837890625,-0.931884765625,-0.021484375,-0.5792682766914368,0.396341472864151,0.5792682766914368,1.5,2.25,-8.550000190734863,37.19792175292969,0,
 30331,-0.314453125,-0.929931640625,-0.020263671875,-0.030487805604934692,0.27439025044441223,0.6707317233085632,1.5,2.25,-8.550000190734863,37.34169006347656,0,
 30341,-0.304931640625,-0.92919921875,-0.0185546875,-0.3658536672592163,0.27439025044441223,0.7012194991111755,1.5,0.75,-7.800000190734863,37.34169006347656,0,
 30351,-0.305908203125,-0.926025390625,-0.027587890625,-0.3048780560493469,0.3353658616542816,0.5487805008888245,1.649999976158142,0.8999999761581421,-7.650000095367432,37.38961410522461,0,
 30361,-0.30712890625,-0.928466796875,-0.01904296875,-0.09146341681480408,0.396341472864151,0.3353658616542816,0.8999999761581421,2.549999952316284,-7.949999809265137,37.245845794677734,0,
 30371,-0.3125,-0.92724609375,-0.015869140625,-0.060975611209869385,0.4268292784690857,0.15243902802467346,2.25,1.0499999523162842,-7.5,37.34169006347656,0,
 30381,-0.31103515625,-0.9267578125,-0.022216796875,-0.8231707215309143,0.4878048896789551,0.18292683362960815,2.25,1.0499999523162842,-7.5,37.19792175292969,0,
 30391,-0.310546875,-0.927978515625,-0.0234375,-0.27439025044441223,0.396341472864151,0.060975611209869385,0.8999999761581421,2.8499999046325684,-8.399999618530273,37.34169006347656,0,
 30401,-0.316650390625,-0.924072265625,-0.015380859375,-0.27439025044441223,0.24390244483947754,0.09146341681480408,2.0999999046325684,1.649999976158142,-6.150000095367432,37.34169006347656,0,
 30411,-0.316162109375,-0.923828125,-0.016845703125,0.0,0.4878048896789551,0.060975611209869385,0.15000000596046448,2.0999999046325684,-7.949999809265137,36.814537048339844,0,
 30421,-0.312744140625,-0.927734375,-0.02099609375,0.060975611209869385,0.3353658616542816,-0.09146341681480408,0.15000000596046448,2.0999999046325684,-7.949999809265137,37.34169006347656,0,
 30431,-0.3125,-0.932373046875,-0.02197265625,-0.7317073345184326,-0.030487805604934692,-0.060975611209869385,0.44999998807907104,0.44999998807907104,-7.949999809265137,37.245845794677734,0,
 30441,-0.305908203125,-0.928466796875,-0.023193359375,-0.5182926654815674,0.030487805604934692,-0.3353658616542816,0.8999999761581421,2.0999999046325684,-6.900000095367432,37.34169006347656,0,
 30451,-0.3046875,-0.921142578125,-0.0224609375,-0.7012194991111755,0.5487805008888245,0.3353658616542816,1.649999976158142,0.44999998807907104,-6.900000095367432,37.43753433227539,0,
 30461,-0.310546875,-0.932861328125,-0.016357421875,-0.8231707215309143,0.4268292784690857,0.27439025044441223,3.1500000953674316,2.549999952316284,-7.949999809265137,37.19792175292969,0,
 30472,-0.3095703125,-0.934814453125,-0.01708984375,-0.792682945728302,0.030487805604934692,0.6402438879013062,3.1500000953674316,2.549999952316284,-7.949999809265137,37.34169006347656,0,
 30482,-0.306396484375,-0.92138671875,-0.021240234375,-0.4268292784690857,0.3658536672592163,0.3353658616542816,1.7999999523162842,1.5,-9.300000190734863,37.34169006347656,0,
 30492,-0.3056640625,-0.92529296875,-0.021240234375,-0.3658536672592163,0.09146341681480408,0.4878048896789551,2.8499999046325684,1.350000023841858,-6.900000095367432,37.38961410522461,0,
 30502,-0.316162109375,-0.923828125,-0.022216796875,-0.3658536672592163,0.060975611209869385,0.5792682766914368,1.0499999523162842,0.75,-7.800000190734863,37.34169006347656,0,
 30512,-0.312744140625,-0.9287109375,-0.0224609375,-0.6402438879013062,0.18292683362960815,0.3048780560493469,1.0499999523162842,0.75,-7.800000190734863,37.245845794677734,0,
 30522,-0.3095703125,-0.931396484375,-0.01513671875,-0.5487805008888245,0.4268292784690857,0.27439025044441223,0.75,1.9500000476837158,-7.050000190734863,37.38961410522461,0,
 30532,-0.311767578125,-0.932373046875,-0.023193359375,-0.5182926654815674,0.4878048896789551,0.21341463923454285,2.25,0.75,-9.300000190734863,37.38961410522461,0,
 30542,-0.313232421875,-0.92529296875,-0.021728515625,-0.7621951103210449,0.6402438879013062,0.3353658616542816,0.8999999761581421,-0.44999998807907104,-7.199999809265137,37.34169006347656,0,
 30552,-0.314453125,-0.92529296875,-0.027587890625,-0.7012194991111755,0.5487805008888245,0.09146341681480408,1.7999999523162842,0.75,-7.800000190734863,37.34169006347656,0,
 30562,-0.3115234375,-0.926513671875,-0.018310546875,-0.4878048896789551,0.5487805008888245,-0.060975611209869385,1.7999999523162842,0.75,-7.800000190734863,37.245845794677734,0,
 30572,-0.30712890625,-0.92724609375,-0.02490234375,-0.18292683362960815,0.24390244483947754,0.24390244483947754,1.7999999523162842,2.25,-9.75,37.43753433227539,0,
 30582,-0.302734375,-0.929443359375,-0.024169921875,-0.3658536672592163,0.4268292784690857,0.4573170840740204,1.0499999523162842,3.1500000953674316,-7.800000190734863,37.19792175292969,0,
 30592,-0.307861328125,-0.928466796875,-0.023193359375,-0.3048780560493469,0.18292683362960815,0.5792682766914368,1.5,1.5,-7.800000190734863,37.245845794677734,0,
 30602,-0.31787109375,-0.930419921875,-0.01611328125,-0.18292683362960815,0.27439025044441223,0.6402438879013062,1.5,1.5,-7.800000190734863,37.43753433227539,0,
 30612,-0.310791015625,-0.931884765625,-0.023193359375,-0.12195122241973877,0.12195122241973877,0.396341472864151,0.8999999761581421,3.299999952316284,-8.399999618530273,37.10207748413086,0,
 30622,-0.310546875,-0.9267578125,-0.020751953125,-0.4268292784690857,0.060975611209869385,0.5487805008888245,2.25,3.1500000953674316,-8.25,37.34169006347656,0,
 30632,-0.30908203125,-0.927001953125,-0.020751953125,-0.24390244483947754,0.4573170840740204,0.060975611209869385,3.0,3.450000047683716,-11.25,37.43753433227539,0,
 30642,-0.306396484375,-0.9287109375,-0.017333984375,-0.3658536672592163,0.18292683362960815,0.18292683362960815,1.7999999523162842,-0.30000001192092896,-8.25,36.91038513183594,0,
 30652,-0.308349609375,-0.92529296875,-0.01708984375,-0.792682945728302,0.3048780560493469,-0.09146341681480408,1.7999999523162842,-0.30000001192092896,-8.25,37.34169006347656,0,
