timestamp,accl_x,accl_y,accl_z,gyro_x,gyro_y,gyro_z,mag_x,mag_y,mag_z,temp,emg,
 600906,-0.304443359375,-0.929931640625,0.04345703125,-1.0365853309631348,0.4268292784690857,0.3658536672592163,1.0499999523162842,3.450000047683716,-11.550000190734863,35.80815887451172,0,
 600916,-0.304443359375,-0.92333984375,0.0380859375,-0.7621951103210449,0.4878048896789551,0.4878048896789551,1.5,1.0499999523162842,-10.050000190734863,35.99985122680664,0,
 600926,-0.301025390625,-0.930419921875,0.039794921875,-0.7621951103210449,0.5487805008888245,0.5182926654815674,1.5,1.0499999523162842,-10.050000190734863,35.664390563964844,0,
 600936,-0.306640625,-0.925537109375,0.04248046875,-0.6097561120986938,0.060975611209869385,0.4573170840740204,2.549999952316284,1.5,-10.800000190734863,35.664390563964844,0,
 600946,-0.3037109375,-0.921875,0.04150390625,-0.7317073345184326,0.3658536672592163,0.4878048896789551,0.8999999761581421,2.0999999046325684,-9.449999809265137,35.856082916259766,0,
 600956,-0.30712890625,-0.9326171875,0.039794921875,-0.4573170840740204,0.4878048896789551,0.030487805604934692,2.0999999046325684,0.44999998807907104,-9.899999618530273,35.951927185058594,0,
 600966,-0.304931640625,-0.92919921875,0.039306640625,-0.9451219439506531,0.4268292784690857,0.030487805604934692,2.25,1.9500000476837158,-9.300000190734863,35.856082916259766,0,
 600976,-0.306884765625,-0.92822265625,0.038330078125,-0.3658536672592163,0.792682945728302,-0.09146341681480408,2.25,1.9500000476837158,-9.300000190734863,35.856082916259766,0,
 600986,-0.304443359375,-0.9267578125,0.04150390625,-0.3658536672592163,0.4573170840740204,0.27439025044441223,2.0999999046325684,3.75,-9.899999618530273,35.76023483276367,0,
 600996,-0.302734375,-0.931640625,0.040771484375,-0.396341472864151,0.18292683362960815,0.12195122241973877,1.5,2.25,-10.5,35.76023483276367,0,
 601006,-0.2998046875,-0.924072265625,0.0439453125,-0.4573170840740204,0.21341463923454285,0.24390244483947754,3.0,2.25,-9.300000190734863,35.80815887451172,0,
 601016,-0.306640625,-0.927490234375,0.040283203125,-0.18292683362960815,0.030487805604934692,0.18292683362960815,3.0,2.25,-9.300000190734863,35.6164665222168,0,
 601026,-0.2998046875,-0.923583984375,0.046142578125,-0.09146341681480408,0.4573170840740204,0.5487805008888245,0.75,1.9500000476837158,-8.550000190734863,35.76023483276367,0,
 601036,-0.296630859375,-0.930419921875,0.03857421875,-0.030487805604934692,0.12195122241973877,0.5487805008888245,2.4000000953674316,0.44999998807907104,-9.149999618530273,35.6164665222168,0,
 601046,-0.305419921875,-0.92626953125,0.042236328125,-0.030487805604934692,-0.09146341681480408,0.4878048896789551,2.25,3.1500000953674316,-10.050000190734863,35.664390563964844,0,
 601056,-0.30859375,-0.9306640625,0.042724609375,-0.3353658616542816,0.15243902802467346,0.3048780560493469,3.75,1.0499999523162842,-10.050000190734863,35.76023483276367,0,
 601066,-0.30078125,-0.92236328125,0.046630859375,-0.5792682766914368,0.21341463923454285,0.396341472864151,3.75,1.0499999523162842,-10.050000190734863,36.04777145385742,0,
 601076,-0.30859375,-0.92626953125,0.0458984375,-0.3353658616542816,0.4268292784690857,0.4573170840740204,1.649999976158142,1.649999976158142,-7.949999809265137,35.80815887451172,0,
 601086,-0.30322265625,-0.929443359375,0.0439453125,-0.21341463923454285,0.5182926654815674,0.4268292784690857,3.75,0.75,-12.300000190734863,35.23308563232422,0,
 601096,-0.30615234375,-0.925537109375,0.04443359375,-0.6402438879013062,0.27439025044441223,0.15243902802467346,2.8499999046325684,1.649999976158142,-9.899999618530273,35.76023483276367,0,
 601106,-0.307373046875,-0.927734375,0.034423828125,-0.6707317233085632,0.6097561120986938,0.21341463923454285,2.0999999046325684,1.350000023841858,-9.449999809265137,35.951927185058594,0,
 601116,-0.31103515625,-0.9326171875,0.041748046875,-0.18292683362960815,0.3048780560493469,0.24390244483947754,2.0999999046325684,1.350000023841858,-9.449999809265137,35.80815887451172,0,
 601126,-0.302734375,-0.9345703125,0.04052734375,-0.5182926654815674,0.27439025044441223,-0.3048780560493469,2.25,2.25,-8.550000190734863,35.951927185058594,0,
 601136,-0.302734375,-0.935546875,0.042236328125,-0.6707317233085632,0.24390244483947754,0.0,1.7999999523162842,3.1500000953674316,-9.75,35.664390563964844,0,
 601146,-0.30322265625,-0.931640625,0.0419921875,-0.7317073345184326,0.4878048896789551,0.060975611209869385,1.649999976158142,1.649999976158142,-9.899999618530273,35.6164665222168,0,
 601156,-0.304931640625,-0.927490234375,0.038818359375,-1.25,0.21341463923454285,0.12195122241973877,1.649999976158142,1.649999976158142,-9.899999618530273,35.951927185058594,0,
 601166,-0.31005859375,-0.9267578125,0.0390625,-0.792682945728302,0.6402438879013062,0.030487805604934692,1.7999999523162842,2.25,-10.050000190734863,36.04777145385742,0,
 601176,-0.302978515625,-0.924072265625,0.04052734375,-0.7621951103210449,0.5487805008888245,0.396341472864151,1.7999999523162842,2.700000047683716,-10.050000190734863,35.856082916259766,0,
 601186,-0.3037109375,-0.9248046875,0.04345703125,-0.12195122241973877,0.030487805604934692,0.3353658616542816,3.9000000953674316,4.050000190734863,-12.449999809265137,35.664390563964844,0,
 601196,-0.307373046875,-0.9296875,0.0390625,-0.24390244483947754,-0.060975611209869385,0.7621951103210449,3.299999952316284,3.1500000953674316,-9.0,35.76023483276367,0,
 601206,-0.306640625,-0.9287109375,0.046630859375,0.27439025044441223,0.3048780560493469,0.5487805008888245,3.299999952316284,3.1500000953674316,-9.0,35.856082916259766,0,
 601216,-0.307373046875,-0.9208984375,0.044677734375,0.21341463923454285,0.12195122241973877,0.24390244483947754,2.0999999046325684,2.0999999046325684,-10.199999809265137,35.664390563964844,0,
 601226,-0.30322265625,-0.931640625,0.0361328125,-0.3658536672592163,0.24390244483947754,0.27439025044441223,2.549999952316284,3.450000047683716,-9.75,35.664390563964844,0,
 601236,-0.306396484375,-0.923828125,0.038330078125,-0.12195122241973877,0.09146341681480408,0.3353658616542816,0.75,2.700000047683716,-9.75,35.76023483276367,0,
 601246,-0.302734375,-0.930908203125,0.040771484375,-0.18292683362960815,0.3048780560493469,0.030487805604934692,0.8999999761581421,2.549999952316284,-7.949999809265137,35.951927185058594,0,
 601256,-0.3134765625,-0.924072265625,0.039306640625,-0.27439025044441223,0.060975611209869385,0.12195122241973877,0.8999999761581421,2.549999952316284,-7.949999809265137,35.99985122680664,0,
 601266,-0.3056640625,-0.927490234375,0.046875,-0.21341463923454285,0.21341463923454285,-0.030487805604934692,3.1500000953674316,1.649999976158142,-8.399999618530273,35.80815887451172,0,
 601276,-0.30615234375,-0.925537109375,0.039306640625,0.12195122241973877,0.060975611209869385,-0.09146341681480408,1.5,4.349999904632568,-10.050000190734863,35.6164665222168,0,
 601286,-0.307373046875,-0.92919921875,0.0400390625,0.030487805604934692,0.5487805008888245,0.09146341681480408,1.5,2.25,-10.050000190734863,35.6164665222168,0,
 601296,-0.307861328125,-0.9296875,0.0390625,-0.27439025044441223,0.27439025044441223,0.4573170840740204,1.5,2.25,-10.050000190734863,35.80815887451172,0,
 601306,-0.305419921875,-0.92822265625,0.04150390625,0.15243902802467346,0.030487805604934692,0.3658536672592163,1.2000000476837158,2.549999952316284,-10.199999809265137,36.04777145385742,0,
 601316,-0.298583984375,-0.929931640625,0.041259765625,0.18292683362960815,0.12195122241973877,0.3353658616542816,1.649999976158142,1.649999976158142,-9.149999618530273,35.99985122680664,0,
 601326,-0.306396484375,-0.931396484375,0.045166015625,0.3048780560493469,-0.18292683362960815,0.5792682766914368,2.8499999046325684,1.350000023841858,-9.149999618530273,35.856082916259766,0,
 601336,-0.30859375,-0.924072265625,0.043212890625,0.27439025044441223,-0.060975611209869385,0.6402438879013062,0.8999999761581421,1.649999976158142,-8.699999809265137,35.856082916259766,0,
 601346,-0.3037109375,-0.93212890625,0.04052734375,0.0,-0.3048780560493469,0.5487805008888245,0.8999999761581421,1.649999976158142,-8.699999809265137,35.856082916259766,0,
 601356,-0.307861328125,-0.927490234375,0.044921875,-0.24390244483947754,0.09146341681480408,0.7012194991111755,2.0999999046325684,2.8499999046325684,-9.449999809265137,35.951927185058594,0,
 601366,-0.302978515625,-0.925048828125,0.04443359375,-0.24390244483947754,0.09146341681480408,0.8231707215309143,1.649999976158142,3.75,-9.899999618530273,35.52062225341797,0,
 601376,-0.30419921875,-0.927490234375,0.042724609375,-0.4268292784690857,0.24390244483947754,0.3048780560493469,2.0999999046325684,1.350000023841858,-9.899999618530273,35.52062225341797,0,
 601386,-0.302734375,-0.927978515625,0.039306640625,-0.7317073345184326,0.12195122241973877,0.4573170840740204,1.649999976158142,1.350000023841858,-8.699999809265137,35.32892990112305,0,
 601396,-0.3076171875,-0.9306640625,0.047119140625,-0.5487805008888245,0.18292683362960815,0.18292683362960815,1.649999976158142,1.350000023841858,-8.699999809265137,35.6164665222168,0,
 601406,-0.30712890625,-0.9306640625,0.041259765625,-1.2804877758026123,0.4573170840740204,0.3658536672592163,0.75,3.1500000953674316,-10.5,36.143619537353516,0,
 601416,-0.311767578125,-0.926025390625,0.039306640625,-0.7621951103210449,0.4878048896789551,0.060975611209869385,1.2000000476837158,2.8499999046325684,-9.449999809265137,35.99985122680664,0,
 601426,-0.31103515625,-0.930908203125,0.040771484375,-0.9451219439506531,0.396341472864151,0.3353658616542816,2.4000000953674316,2.0999999046325684,-10.199999809265137,35.664390563964844,0,
 601436,-0.30810546875,-0.923583984375,0.038818359375,-1.0365853309631348,0.7621951103210449,0.09146341681480408,2.4000000953674316,2.0999999046325684,-10.199999809265137,35.856082916259766,0,
 601446,-0.305419921875,-0.926025390625,0.0400390625,-1.1280487775802612,0.4573170840740204,0.18292683362960815,1.7999999523162842,3.1500000953674316,-9.75,35.99985122680664,0,
 601456,-0.302978515625,-0.931640625,0.04541015625,-1.1585365533828735,0.8536585569381714,0.18292683362960815,1.2000000476837158,1.649999976158142,-9.449999809265137,35.856082916259766,0,
 601466,-0.302734375,-0.9296875,0.03564453125,-0.9146341681480408,0.5487805008888245,0.24390244483947754,2.0999999046325684,1.649999976158142,-9.449999809265137,35.951927185058594,0,
 601476,-0.3056640625,-0.931884765625,0.036376953125,-0.7621951103210449,0.4268292784690857,0.18292683362960815,1.2000000476837158,1.649999976158142,-8.399999618530273,35.32892990112305,0,
 601486,-0.310302734375,-0.922607421875,0.041015625,-0.9756097793579102,0.5487805008888245,0.09146341681480408,1.2000000476837158,1.649999976158142,-8.399999618530273,35.951927185058594,0,
 601496,-0.30712890625,-0.925537109375,0.0439453125,-1.0670732259750366,0.5792682766914368,0.030487805604934692,3.5999999046325684,0.8999999761581421,-12.449999809265137,35.856082916259766,0,
 601506,-0.30078125,-0.931884765625,0.035400390625,-1.0365853309631348,0.4878048896789551,-0.09146341681480408,1.5,2.25,-8.550000190734863,35.856082916259766,0,
 601517,-0.30712890625,-0.927001953125,0.0419921875,-0.6707317233085632,0.6402438879013062,0.060975611209869385,2.25,1.5,-10.800000190734863,35.664390563964844,0,
 601527,-0.30517578125,-0.927001953125,0.043212890625,-0.6402438879013062,0.24390244483947754,-0.060975611209869385,2.8499999046325684,1.649999976158142,-9.449999809265137,35.42477798461914,0,
 601537,-0.307373046875,-0.92138671875,0.04150390625,-0.4573170840740204,0.24390244483947754,-0.09146341681480408,2.8499999046325684,1.649999976158142,-9.449999809265137,35.76023483276367,0,
 601547,-0.306396484375,-0.930419921875,0.036865234375,-0.4573170840740204,0.5182926654815674,0.09146341681480408,1.5,1.9500000476837158,-10.050000190734863,35.99985122680664,0,
 601557,-0.30517578125,-0.9306640625,0.035888671875,-0.15243902802467346,-0.060975611209869385,0.5182926654815674,2.25,3.450000047683716,-9.75,35.76023483276367,0,
 601567,-0.30126953125,-0.92529296875,0.042236328125,0.12195122241973877,0.21341463923454285,0.3048780560493469,2.0999999046325684,2.8499999046325684,-8.699999809265137,35.856082916259766,0,
 601577,-0.305419921875,-0.922607421875,0.044677734375,0.396341472864151,-0.030487805604934692,0.3658536672592163,2.0999999046325684,2.8499999046325684,-8.699999809265137,35.6164665222168,0,
 601587,-0.305419921875,-0.925537109375,0.048095703125,0.3353658616542816,-0.060975611209869385,0.3658536672592163,1.7999999523162842,2.700000047683716,-9.75,35.856082916259766,0,
 601597,-0.31298828125,-0.9248046875,0.04052734375,-0.12195122241973877,0.0,0.12195122241973877,2.8499999046325684,4.050000190734863,-10.199999809265137,35.856082916259766,0,
 601607,-0.3056640625,-0.927490234375,0.0380859375,0.060975611209869385,0.24390244483947754,0.4878048896789551,1.0499999523162842,2.700000047683716,-9.300000190734863,35.856082916259766,0,
 601617,-0.3037109375,-0.933349609375,0.043212890625,0.030487805604934692,0.3658536672592163,0.21341463923454285,1.7999999523162842,2.25,-9.75,35.856082916259766,0,
 601627,-0.303466796875,-0.926025390625,0.040771484375,0.18292683362960815,0.15243902802467346,0.21341463923454285,1.7999999523162842,2.25,-9.75,35.76023483276367,0,
 601637,-0.302734375,-0.926025390625,0.04541015625,0.15243902802467346,0.09146341681480408,0.27439025044441223,2.0999999046325684,2.0999999046325684,-8.399999618530273,35.951927185058594,0,
 601647,-0.306396484375,-0.933837890625,0.039306640625,-0.030487805604934692,0.09146341681480408,0.4573170840740204,0.44999998807907104,2.0999999046325684,-9.149999618530273,35.99985122680664,0,
 601657,-0.3095703125,-0.932861328125,0.041259765625,0.030487805604934692,0.27439025044441223,0.09146341681480408,2.25,2.700000047683716,-9.300000190734863,35.951927185058594,0,
 601667,-0.306884765625,-0.924072265625,0.043701171875,-0.21341463923454285,0.0,0.24390244483947754,4.949999809265137,0.75,-10.5,35.80815887451172,0,
 601677,-0.307373046875,-0.931396484375,0.0478515625,0.12195122241973877,0.4573170840740204,0.6097561120986938,4.949999809265137,0.75,-10.5,35.664390563964844,0,
 601687,-0.300048828125,-0.927734375,0.039794921875,-0.18292683362960815,0.060975611209869385,0.5182926654815674,1.649999976158142,2.8499999046325684,-10.649999618530273,35.99985122680664,0,
 601697,-0.307861328125,-0.9287109375,0.041748046875,-0.3658536672592163,0.060975611209869385,0.7012194991111755,0.44999998807907104,2.8499999046325684,-11.399999618530273,35.80815887451172,0,
 601707,-0.307861328125,-0.9296875,0.048828125,-0.4878048896789551,0.21341463923454285,0.8536585569381714,2.8499999046325684,1.649999976158142,-9.899999618530273,35.6164665222168,0,
 601717,-0.308349609375,-0.93115234375,0.044921875,-0.6707317233085632,0.12195122241973877,0.7317073345184326,2.8499999046325684,1.649999976158142,-9.899999618530273,36.1915397644043,0,
 601727,-0.312255859375,-0.924560546875,0.04296875,-0.9146341681480408,0.27439025044441223,0.3658536672592163,2.4000000953674316,2.8499999046325684,-9.899999618530273,35.664390563964844,0,
 601737,-0.30224609375,-0.919677734375,0.044677734375,-0.9146341681480408,0.5487805008888245,0.5792682766914368,1.5,3.1500000953674316,-9.300000190734863,35.856082916259766,0,
 601747,-0.311279296875,-0.925537109375,0.045654296875,-0.6707317233085632,0.396341472864151,0.15243902802467346,1.649999976158142,2.0999999046325684,-9.449999809265137,35.99985122680664,0,
 601757,-0.30810546875,-0.92919921875,0.040771484375,-0.6402438879013062,0.3658536672592163,0.27439025044441223,0.44999998807907104,2.549999952316284,-8.699999809265137,35.80815887451172,0,
 601767,-0.308349609375,-0.927734375,0.044677734375,-0.4878048896789551,0.3658536672592163,0.4573170840740204,0.44999998807907104,2.549999952316284,-8.699999809265137,35.76023483276367,0,
 601777,-0.30615234375,-0.929931640625,0.04345703125,-0.792682945728302,0.21341463923454285,0.27439025044441223,2.8499999046325684,2.8499999046325684,-8.399999618530273,35.80815887451172,0,
 601797,-0.30615234375,-0.9326171875,0.0419921875,-1.1585365533828735,0.27439025044441223,0.030487805604934692,0.75,1.0499999523162842,-10.050000190734863,36.33531188964844,0,
 601807,-0.306396484375,-0.93115234375,0.037841796875,-0.8841463327407837,0.6707317233085632,0.3353658616542816,1.649999976158142,1.350000023841858,-8.699999809265137,35.76023483276367,0,
 601817,-0.305419921875,-0.930419921875,0.041015625,-1.2195122241973877,0.6402438879013062,0.24390244483947754,1.649999976158142,1.350000023841858,-8.699999809265137,35.80815887451172,0,
 601827,-0.31005859375,-0.9228515625,0.048095703125,-0.9756097793579102,0.5487805008888245,0.15243902802467346,1.7999999523162842,2.25,-9.0,35.856082916259766,0,
 601837,-0.3095703125,-0.927978515625,0.04150390625,-1.0060975551605225,0.6707317233085632,-0.030487805604934692,0.15000000596046448,2.0999999046325684,-9.899999618530273,35.856082916259766,0,
 601847,-0.30908203125,-0.927490234375,0.044921875,-1.0365853309631348,0.5182926654815674,-0.18292683362960815,2.0999999046325684,0.44999998807907104,-10.199999809265137,35.664390563964844,0,
 601857,-0.3046875,-0.927978515625,0.036376953125,-0.6097561120986938,0.5182926654815674,0.0,2.0999999046325684,0.44999998807907104,-10.199999809265137,35.99985122680664,0,
 601867,-0.307861328125,-0.92919921875,0.041748046875,-0.4878048896789551,0.4573170840740204,0.15243902802467346,1.7999999523162842,2.25,-10.5,35.76023483276367,0,
 601877,-0.3046875,-0.930419921875,0.04541015625,-0.4573170840740204,0.24390244483947754,-0.21341463923454285,1.7999999523162842,0.75,-10.5,35.80815887451172,0,
 601887,-0.299072265625,-0.925537109375,0.040771484375,-0.24390244483947754,0.21341463923454285,-0.030487805604934692,3.0,3.9000000953674316,-11.550000190734863,35.856082916259766,0,
 601897,-0.30517578125,-0.926513671875,0.040283203125,-0.5182926654815674,0.12195122241973877,0.24390244483947754,1.2000000476837158,1.350000023841858,-9.149999618530273,35.80815887451172,0,
 601907,-0.300048828125,-0.927978515625,0.041259765625,-0.3353658616542816,0.24390244483947754,0.396341472864151,1.2000000476837158,1.350000023841858,-9.149999618530273,35.856082916259766,0,
 601917,-0.30419921875,-0.931396484375,0.038330078125,-0.15243902802467346,0.3353658616542816,0.5487805008888245,2.4000000953674316,3.299999952316284,-8.399999618530273,35.664390563964844,0,
 601927,-0.3056640625,-0.92529296875,0.0341796875,-0.030487805604934692,0.27439025044441223,0.6707317233085632,1.5,2.25,-10.800000190734863,35.664390563964844,0,
 601937,-0.30517578125,-0.930908203125,0.041015625,0.0,0.15243902802467346,0.4878048896789551,2.8499999046325684,0.44999998807907104,-9.899999618530273,35.856082916259766,0,
 601947,-0.3046875,-0.9296875,0.041015625,0.15243902802467346,0.3048780560493469,0.792682945728302,2.4000000953674316,2.0999999046325684,-10.649999618530273,35.856082916259766,0,
 601957,-0.305419921875,-0.927490234375,0.04248046875,-0.15243902802467346,0.15243902802467346,0.3353658616542816,2.4000000953674316,2.0999999046325684,-10.649999618530273,35.951927185058594,0,
 601967,-0.306396484375,-0.930908203125,0.04345703125,0.12195122241973877,0.27439025044441223,0.24390244483947754,1.7999999523162842,0.0,-10.050000190734863,35.6164665222168,0,
 601977,-0.30419921875,-0.928955078125,0.044189453125,-0.3658536672592163,0.15243902802467346,0.21341463923454285,1.5,3.450000047683716,-9.75,35.856082916259766,0,
 601987,-0.3095703125,-0.926513671875,0.040283203125,-0.3658536672592163,0.21341463923454285,0.09146341681480408,2.0999999046325684,1.649999976158142,-8.699999809265137,35.99985122680664,0,
 601997,-0.306884765625,-0.925048828125,0.047119140625,-0.396341472864151,0.3353658616542816,-0.030487805604934692,2.0999999046325684,1.649999976158142,-8.699999809265137,35.664390563964844,0,
 602007,-0.3076171875,-0.92919921875,0.03955078125,-0.3658536672592163,0.4268292784690857,0.4878048896789551,4.199999809265137,4.349999904632568,-10.800000190734863,36.04777145385742,0,
 602017,-0.3056640625,-0.927734375,0.0380859375,-0.6097561120986938,0.3353658616542816,0.09146341681480408,1.0499999523162842,2.700000047683716,-9.0,35.80815887451172,0,
 602027,-0.30419921875,-0.929443359375,0.0400390625,-0.5182926654815674,0.4878048896789551,0.030487805604934692,2.25,2.25,-9.300000190734863,35.76023483276367,0,
 602037,-0.304931640625,-0.93310546875,0.040771484375,-0.12195122241973877,0.27439025044441223,0.396341472864151,3.1500000953674316,1.350000023841858,-8.699999809265137,35.951927185058594,0,
 602047,-0.3056640625,-0.92919921875,0.0361328125,-0.4268292784690857,0.27439025044441223,0.6402438879013062,3.1500000953674316,1.350000023841858,-8.699999809265137,35.856082916259766,0,
 602057,-0.30322265625,-0.923828125,0.03857421875,-0.4878048896789551,0.27439025044441223,0.27439025044441223,1.7999999523162842,0.75,-9.0,35.856082916259766,0,
 602067,-0.3037109375,-0.928466796875,0.046142578125,-0.27439025044441223,0.24390244483947754,-0.21341463923454285,2.4000000953674316,2.8499999046325684,-9.449999809265137,35.6164665222168,0,
 602077,-0.301513671875,-0.92822265625,0.04345703125,-0.5792682766914368,0.15243902802467346,0.3048780560493469,1.2000000476837158,1.649999976158142,-9.449999809265137,35.856082916259766,0,
 602087,-0.30810546875,-0.925537109375,0.043701171875,-0.6097561120986938,0.15243902802467346,0.18292683362960815,2.0999999046325684,1.649999976158142,-8.399999618530273,35.856082916259766,0,
 602097,-0.306396484375,-0.930419921875,0.044921875,-0.7317073345184326,0.396341472864151,0.24390244483947754,2.0999999046325684,1.649999976158142,-8.399999618530273,35.951927185058594,0,
 602107,-0.306884765625,-0.93017578125,0.05078125,-0.9146341681480408,0.4268292784690857,0.27439025044441223,2.0999999046325684,2.0999999046325684,-10.199999809265137,35.80815887451172,0,
 602117,-0.3076171875,-0.92578125,0.04052734375,-0.5182926654815674,0.3353658616542816,0.21341463923454285,2.0999999046325684,2.549999952316284,-7.949999809265137,35.664390563964844,0,
 602127,-0.307861328125,-0.93115234375,0.04443359375,-1.0060975551605225,0.6707317233085632,0.12195122241973877,1.2000000476837158,2.0999999046325684,-8.699999809265137,35.856082916259766,0,
 602137,-0.309814453125,-0.925537109375,0.043701171875,-1.1280487775802612,0.4573170840740204,0.21341463923454285,1.2000000476837158,2.0999999046325684,-8.699999809265137,35.80815887451172,0,
 602147,-0.306640625,-0.926513671875,0.03955078125,-1.0060975551605225,0.5487805008888245,0.3353658616542816,0.75,0.30000001192092896,-10.800000190734863,35.80815887451172,0,
 602157,-0.306640625,-0.92431640625,0.041259765625,-0.8841463327407837,0.4878048896789551,0.27439025044441223,3.299999952316284,1.5,-9.0,35.856082916259766,0,
 602167,-0.30517578125,-0.9306640625,0.037109375,-0.24390244483947754,0.5792682766914368,0.09146341681480408,2.25,1.0499999523162842,-10.199999809265137,35.6164665222168,0,
 602177,-0.301025390625,-0.924560546875,0.038818359375,-0.3353658616542816,0.030487805604934692,0.0,2.25,1.0499999523162842,-10.050000190734863,35.99985122680664,0,
 602187,-0.308349609375,-0.924072265625,0.03857421875,-0.12195122241973877,0.3353658616542816,0.24390244483947754,2.25,1.0499999523162842,-10.050000190734863,35.951927185058594,0,
 602197,-0.308349609375,-0.925537109375,0.0419921875,0.030487805604934692,-0.09146341681480408,0.3353658616542816,0.44999998807907104,1.649999976158142,-9.449999809265137,35.80815887451172,0,
 602208,-0.306884765625,-0.92724609375,0.044921875,0.0,0.0,0.0,1.5,0.75,-9.0,35.99985122680664,0,
 602218,-0.306884765625,-0.929931640625,0.03857421875,-0.18292683362960815,0.060975611209869385,0.4268292784690857,2.25,2.25,-10.5,35.664390563964844,0,
 602228,-0.305908203125,-0.9296875,0.040283203125,-0.3048780560493469,-0.060975611209869385,0.09146341681480408,2.25,2.25,-10.5,35.664390563964844,0,
 602238,-0.302978515625,-0.930419921875,0.04345703125,-0.5487805008888245,0.030487805604934692,0.21341463923454285,2.25,2.25,-10.5,36.143619537353516,0,
 602248,-0.3037109375,-0.925048828125,0.042724609375,-0.21341463923454285,0.21341463923454285,0.18292683362960815,3.5999999046325684,2.549999952316284,-8.699999809265137,35.80815887451172,0,
 602258,-0.302978515625,-0.927978515625,0.039794921875,-0.3048780560493469,0.27439025044441223,0.0,2.8499999046325684,2.0999999046325684,-8.699999809265137,35.856082916259766,0,
 602268,-0.30810546875,-0.926025390625,0.042724609375,-0.12195122241973877,0.3048780560493469,0.6707317233085632,2.8499999046325684,2.0999999046325684,-8.699999809265137,35.856082916259766,0,
 602278,-0.30126953125,-0.92822265625,0.044921875,0.0,-0.030487805604934692,0.060975611209869385,2.8499999046325684,2.0999999046325684,-8.699999809265137,35.52062225341797,0,
 602288,-0.30712890625,-0.928955078125,0.0419921875,-0.24390244483947754,0.27439025044441223,0.27439025044441223,2.25,1.0499999523162842,-9.75,35.76023483276367,0,
 602298,-0.3076171875,-0.9248046875,0.04296875,-0.5487805008888245,0.5487805008888245,0.030487805604934692,2.549999952316284,3.450000047683716,-9.75,35.99985122680664,0,
 602308,-0.307373046875,-0.92431640625,0.046875,-0.7012194991111755,0.24390244483947754,0.4878048896789551,2.4000000953674316,-0.44999998807907104,-11.399999618530273,35.6164665222168,0,
 602318,-0.307861328125,-0.92919921875,0.03759765625,-0.24390244483947754,0.24390244483947754,0.4573170840740204,2.4000000953674316,-0.44999998807907104,-11.399999618530273,35.99985122680664,0,
 602328,-0.301025390625,-0.9208984375,0.0439453125,-0.18292683362960815,0.3353658616542816,0.396341472864151,1.7999999523162842,-0.44999998807907104,-11.399999618530273,35.856082916259766,0,
 602338,-0.3046875,-0.923583984375,0.039306640625,0.060975611209869385,0.060975611209869385,0.3353658616542816,1.649999976158142,3.299999952316284,-9.449999809265137,35.664390563964844,0,
 602348,-0.30322265625,-0.921875,0.043212890625,-0.060975611209869385,0.3353658616542816,0.09146341681480408,3.0,2.25,-10.050000190734863,35.856082916259766,0,
 602358,-0.304931640625,-0.927978515625,0.0419921875,-0.060975611209869385,0.24390244483947754,0.12195122241973877,1.2000000476837158,2.549999952316284,-8.699999809265137,35.664390563964844,0,
 602368,-0.301513671875,-0.928466796875,0.04345703125,0.060975611209869385,0.21341463923454285,0.396341472864151,1.2000000476837158,2.549999952316284,-8.699999809265137,35.6164665222168,0,
 602378,-0.298583984375,-0.930908203125,0.04248046875,-0.18292683362960815,0.09146341681480408,0.24390244483947754,2.549999952316284,2.25,-9.75,35.951927185058594,0,
 602388,-0.30322265625,-0.929931640625,0.0380859375,-0.3353658616542816,0.3048780560493469,0.3353658616542816,2.4000000953674316,0.15000000596046448,-10.649999618530273,35.856082916259766,0,
 602398,-0.30859375,-0.92822265625,0.04248046875,-0.5182926654815674,0.12195122241973877,0.0,0.8999999761581421,2.0999999046325684,-9.899999618530273,35.856082916259766,0,
 602408,-0.301513671875,-0.9267578125,0.043212890625,-0.5792682766914368,0.3353658616542816,-0.12195122241973877,0.8999999761581421,2.0999999046325684,-9.899999618530273,35.42477798461914,0,
 602418,-0.3076171875,-0.92626953125,0.0439453125,-0.792682945728302,0.4878048896789551,0.27439025044441223,1.7999999523162842,1.5,-11.25,35.664390563964844,0,
 602428,-0.311767578125,-0.92724609375,0.0439453125,-0.7012194991111755,-0.030487805604934692,0.18292683362960815,2.0999999046325684,1.649999976158142,-8.699999809265137,35.951927185058594,0,
 602438,-0.31005859375,-0.928466796875,0.041748046875,-0.5792682766914368,0.4268292784690857,0.21341463923454285,2.8499999046325684,2.0999999046325684,-10.649999618530273,35.664390563964844,0,
 602448,-0.305419921875,-0.927978515625,0.04833984375,-0.4573170840740204,0.396341472864151,0.4878048896789551,1.649999976158142,2.549999952316284,-8.399999618530273,35.99985122680664,0,
 602458,-0.3037109375,-0.927978515625,0.045166015625,-0.396341472864151,0.09146341681480408,0.24390244483947754,1.649999976158142,2.549999952316284,-8.399999618530273,35.664390563964844,0,
 602468,-0.303466796875,-0.929931640625,0.046142578125,-0.396341472864151,0.5182926654815674,0.4268292784690857,1.649999976158142,1.350000023841858,-9.149999618530273,35.951927185058594,0,
 602478,-0.302734375,-0.922119140625,0.038818359375,-0.4878048896789551,0.3658536672592163,0.060975611209869385,2.25,2.25,-8.550000190734863,35.856082916259766,0,
 602488,-0.31005859375,-0.9306640625,0.045654296875,-0.6097561120986938,0.24390244483947754,0.27439025044441223,2.25,1.5,-9.0,35.80815887451172,0,
 602498,-0.3037109375,-0.9306640625,0.046142578125,-0.792682945728302,0.3353658616542816,0.21341463923454285,3.75,1.9500000476837158,-7.800000190734863,35.856082916259766,0,
 602508,-0.300048828125,-0.929443359375,0.04345703125,-0.6707317233085632,0.060975611209869385,0.21341463923454285,3.75,1.9500000476837158,-7.800000190734863,35.856082916259766,0,
 602518,-0.30615234375,-0.927001953125,0.043212890625,-0.6707317233085632,0.396341472864151,0.4268292784690857,2.25,0.0,-11.25,35.951927185058594,0,
 602528,-0.30810546875,-0.931396484375,0.043701171875,-0.7012194991111755,0.3353658616542816,0.5792682766914368,3.75,1.5,-8.550000190734863,35.856082916259766,0,
 602538,-0.303466796875,-0.925537109375,0.041748046875,-0.3658536672592163,0.12195122241973877,0.3353658616542816,2.0999999046325684,2.8499999046325684,-9.899999618530273,35.951927185058594,0,
 602548,-0.31005859375,-0.9296875,0.0419921875,-0.5182926654815674,0.3353658616542816,0.15243902802467346,2.0999999046325684,2.8499999046325684,-9.899999618530273,35.80815887451172,0,
 602558,-0.30322265625,-0.9228515625,0.04736328125,-0.6097561120986938,0.4573170840740204,0.21341463923454285,3.1500000953674316,1.649999976158142,-9.899999618530273,35.32892990112305,0,
 602568,-0.307373046875,-0.93212890625,0.040283203125,-0.7317073345184326,0.6402438879013062,0.21341463923454285,3.299999952316284,-0.30000001192092896,-10.050000190734863,35.99985122680664,0,
 602578,-0.305908203125,-0.924072265625,0.0458984375,-0.7621951103210449,0.27439025044441223,0.18292683362960815,2.4000000953674316,1.649999976158142,-9.449999809265137,35.76023483276367,0,
 602588,-0.304931640625,-0.937744140625,0.039794921875,-1.0365853309631348,0.792682945728302,0.060975611209869385,2.0999999046325684,2.0999999046325684,-7.949999809265137,35.664390563964844,0,
 602598,-0.30224609375,-0.925537109375,0.04150390625,-0.7012194991111755,0.8536585569381714,0.3353658616542816,2.0999999046325684,2.0999999046325684,-7.949999809265137,35.99985122680664,0,
 602608,-0.305419921875,-0.930419921875,0.041015625,-0.9756097793579102,0.6402438879013062,0.3353658616542816,1.7999999523162842,2.25,-9.75,35.76023483276367,0,
 602618,-0.29833984375,-0.929443359375,0.042236328125,-0.7012194991111755,0.396341472864151,0.15243902802467346,1.649999976158142,1.350000023841858,-12.149999618530273,35.80815887451172,0,
 602628,-0.3017578125,-0.92578125,0.0458984375,-0.8536585569381714,0.3353658616542816,0.24390244483947754,1.5,3.1500000953674316,-10.050000190734863,35.99985122680664,0,
 602638,-0.30517578125,-0.921875,0.043701171875,-0.6402438879013062,0.27439025044441223,0.5487805008888245,1.649999976158142,1.649999976158142,-8.399999618530273,35.99985122680664,0,
 602648,-0.307373046875,-0.926513671875,0.040283203125,-0.7012194991111755,0.6402438879013062,-0.030487805604934692,1.649999976158142,1.649999976158142,-8.399999618530273,35.99985122680664,0,
 602658,-0.305908203125,-0.9267578125,0.044921875,-0.18292683362960815,0.3048780560493469,0.15243902802467346,1.2000000476837158,2.8499999046325684,-9.899999618530273,35.80815887451172,0,
 602668,-0.304443359375,-0.925048828125,0.038330078125,-0.4573170840740204,0.3353658616542816,0.3353658616542816,2.25,2.25,-8.550000190734863,35.80815887451172,0,
 602678,-0.305908203125,-0.9296875,0.039794921875,-0.6402438879013062,0.396341472864151,0.27439025044441223,1.649999976158142,2.549999952316284,-9.449999809265137,36.04777145385742,0,
 602688,-0.301513671875,-0.92724609375,0.0498046875,-0.6402438879013062,0.6707317233085632,0.4573170840740204,1.649999976158142,2.549999952316284,-9.449999809265137,35.856082916259766,0,
 602698,-0.3037109375,-0.93017578125,0.04443359375,-0.7621951103210449,0.4573170840740204,0.21341463923454285,2.549999952316284,1.9500000476837158,-10.5,35.80815887451172,0,
 602708,-0.301513671875,-0.92919921875,0.04345703125,-0.792682945728302,0.15243902802467346,0.24390244483947754,1.5,2.700000047683716,-9.0,35.856082916259766,0,
 602718,-0.3017578125,-0.924560546875,0.038330078125,-0.6707317233085632,0.396341472864151,0.3658536672592163,2.4000000953674316,2.8499999046325684,-12.449999809265137,35.99985122680664,0,
 602728,-0.307861328125,-0.92333984375,0.04248046875,-0.8841463327407837,0.24390244483947754,0.24390244483947754,1.0499999523162842,1.5,-9.75,35.80815887451172,0,
 602738,-0.306640625,-0.92724609375,0.04345703125,-0.4268292784690857,0.4878048896789551,0.21341463923454285,1.0499999523162842,1.5,-9.75,35.856082916259766,0,
 602748,-0.30322265625,-0.922607421875,0.0400390625,-0.396341472864151,0.3658536672592163,0.09146341681480408,3.0,3.450000047683716,-10.5,35.6164665222168,0,
 602758,-0.303466796875,-0.933349609375,0.036865234375,-0.3353658616542816,0.5487805008888245,0.5182926654815674,4.199999809265137,2.700000047683716,-8.550000190734863,35.80815887451172,0,
 602768,-0.306884765625,-0.92724609375,0.041748046875,-0.6402438879013062,0.3353658616542816,0.4878048896789551,2.25,3.450000047683716,-9.300000190734863,35.951927185058594,0,
 602778,-0.302734375,-0.93212890625,0.04541015625,-0.8231707215309143,0.15243902802467346,0.0,2.0999999046325684,1.649999976158142,-9.149999618530273,35.664390563964844,0,
 602788,-0.3017578125,-0.9267578125,0.0400390625,-0.4268292784690857,0.4573170840740204,0.4268292784690857,2.0999999046325684,1.649999976158142,-9.149999618530273,35.80815887451172,0,
 602798,-0.30712890625,-0.9248046875,0.04150390625,-0.4268292784690857,0.15243902802467346,0.21341463923454285,1.649999976158142,1.649999976158142,-8.699999809265137,35.76023483276367,0,
 602808,-0.29931640625,-0.925537109375,0.04248046875,-0.09146341681480408,0.4268292784690857,0.24390244483947754,2.549999952316284,1.0499999523162842,-9.300000190734863,35.951927185058594,0,
 602818,-0.308837890625,-0.925048828125,0.03857421875,-0.12195122241973877,0.18292683362960815,-0.24390244483947754,2.8499999046325684,3.299999952316284,-12.899999618530273,35.856082916259766,0,
 602828,-0.305419921875,-0.92626953125,0.03955078125,-0.21341463923454285,0.21341463923454285,-0.15243902802467346,2.8499999046325684,3.299999952316284,-12.899999618530273,35.856082916259766,0,
 602838,-0.300048828125,-0.926513671875,0.0439453125,-0.3048780560493469,0.15243902802467346,0.15243902802467346,1.649999976158142,0.8999999761581421,-9.899999618530273,35.856082916259766,0,
 602848,-0.307861328125,-0.92822265625,0.045654296875,-0.15243902802467346,0.3658536672592163,0.396341472864151,1.649999976158142,1.649999976158142,-8.399999618530273,35.6164665222168,0,
 602858,-0.307373046875,-0.925537109375,0.044189453125,-0.6402438879013062,0.3658536672592163,0.4878048896789551,2.4000000953674316,1.649999976158142,-9.899999618530273,35.951927185058594,0,
 602868,-0.306640625,-0.931640625,0.039794921875,-0.27439025044441223,0.3658536672592163,0.4878048896789551,1.7999999523162842,0.75,-9.75,35.951927185058594,0,
 602878,-0.30322265625,-0.928955078125,0.040283203125,-0.4268292784690857,0.4268292784690857,0.24390244483947754,1.7999999523162842,0.75,-9.75,35.80815887451172,0,
 602888,-0.30126953125,-0.925048828125,0.0400390625,-0.27439025044441223,0.21341463923454285,0.3048780560493469,1.5,1.5,-10.5,35.856082916259766,0,
 602898,-0.30224609375,-0.92724609375,0.038818359375,-0.5792682766914368,0.396341472864151,0.4878048896789551,1.5,1.5,-10.5,35.664390563964844,0,
 602908,-0.304931640625,-0.928955078125,0.04150390625,-0.4878048896789551,0.09146341681480408,0.4573170840740204,2.0999999046325684,1.350000023841858,-10.199999809265137,35.99985122680664,0,
 602918,-0.311279296875,-0.93212890625,0.04296875,-0.8536585569381714,0.5487805008888245,0.4573170840740204,1.5,3.1500000953674316,-9.75,35.856082916259766,0,
 602928,-0.303466796875,-0.92431640625,0.042236328125,-0.396341472864151,0.5487805008888245,0.3353658616542816,1.5,3.1500000953674316,-9.75,35.856082916259766,0,
 602938,-0.304931640625,-0.9248046875,0.043212890625,-0.3048780560493469,0.4573170840740204,0.3353658616542816,3.299999952316284,0.30000001192092896,-9.75,35.856082916259766,0,
 602948,-0.307373046875,-0.9345703125,0.04833984375,-0.8231707215309143,0.3048780560493469,0.24390244483947754,1.5,2.25,-8.550000190734863,35.76023483276367,0,
 602958,-0.30517578125,-0.92333984375,0.041015625,-0.8231707215309143,0.21341463923454285,0.4268292784690857,2.25,3.450000047683716,-9.75,35.76023483276367,0,
 602968,-0.306640625,-0.934326171875,0.037841796875,-0.6707317233085632,0.5792682766914368,0.18292683362960815,2.25,3.450000047683716,-9.75,35.664390563964844,0,
 602979,-0.31103515625,-0.92529296875,0.04052734375,-0.6097561120986938,0.6097561120986938,-0.396341472864151,1.0499999523162842,1.5,-10.050000190734863,35.856082916259766,0,
 602989,-0.304931640625,-0.927001953125,0.0400390625,-0.8231707215309143,0.5792682766914368,0.12195122241973877,1.5,2.700000047683716,-10.5,35.951927185058594,0,
 602999,-0.303466796875,-0.92626953125,0.03466796875,-0.6097561120986938,0.24390244483947754,0.18292683362960815,1.2000000476837158,1.649999976158142,-9.449999809265137,35.6164665222168,0,
 603009,-0.30322265625,-0.92578125,0.0380859375,-0.5792682766914368,0.3658536672592163,0.24390244483947754,2.4000000953674316,2.8499999046325684,-10.949999809265137,35.951927185058594,0,
 603019,-0.305419921875,-0.929443359375,0.0400390625,0.0,-0.030487805604934692,0.3353658616542816,2.4000000953674316,2.8499999046325684,-10.949999809265137,35.951927185058594,0,
 603029,-0.302978515625,-0.928466796875,0.042724609375,-0.4878048896789551,0.15243902802467346,0.5792682766914368,1.7999999523162842,-0.30000001192092896,-12.0,35.856082916259766,0,
 603039,-0.305419921875,-0.929443359375,0.041748046875,-0.15243902802467346,0.21341463923454285,0.6097561120986938,3.1500000953674316,2.549999952316284,-9.899999618530273,35.99985122680664,0,
 603049,-0.305419921875,-0.928955078125,0.041748046875,0.0,-0.12195122241973877,0.4268292784690857,4.5,3.1500000953674316,-9.0,35.951927185058594,0,
 603059,-0.30419921875,-0.931396484375,0.04736328125,-0.5792682766914368,-0.12195122241973877,0.396341472864151,0.44999998807907104,2.549999952316284,-9.899999618530273,35.856082916259766,0,
 603069,-0.308837890625,-0.927978515625,0.03857421875,-0.5182926654815674,0.060975611209869385,0.030487805604934692,3.75,2.700000047683716,-9.75,35.99985122680664,0,
 603079,-0.3076171875,-0.927490234375,0.040771484375,-0.792682945728302,0.27439025044441223,0.09146341681480408,1.5,1.9500000476837158,-9.0,35.856082916259766,0,
 603089,-0.3056640625,-0.928466796875,0.03857421875,-1.1585365533828735,0.5792682766914368,0.3048780560493469,2.25,3.1500000953674316,-9.75,35.6164665222168,0,
 603099,-0.308349609375,-0.92626953125,0.035888671875,-0.9146341681480408,0.3658536672592163,0.4268292784690857,1.7999999523162842,2.700000047683716,-8.550000190734863,35.6164665222168,0,
 603109,-0.3037109375,-0.923583984375,0.0439453125,-0.7621951103210449,0.7317073345184326,0.3048780560493469,1.7999999523162842,2.700000047683716,-8.550000190734863,35.80815887451172,0,
 603119,-0.301513671875,-0.923095703125,0.041259765625,-0.4268292784690857,0.396341472864151,0.21341463923454285,3.5999999046325684,1.649999976158142,-9.899999618530273,35.856082916259766,0,
 603129,-0.3017578125,-0.92626953125,0.041015625,-0.6097561120986938,0.3048780560493469,0.3658536672592163,3.9000000953674316,1.649999976158142,-13.199999809265137,35.76023483276367,0,
 603139,-0.302734375,-0.929931640625,0.0380859375,-0.9451219439506531,0.3048780560493469,0.24390244483947754,2.0999999046325684,0.8999999761581421,-10.199999809265137,35.76023483276367,0,
 603149,-0.3046875,-0.9267578125,0.04296875,-0.8536585569381714,0.396341472864151,0.3658536672592163,3.5999999046325684,2.549999952316284,-8.699999809265137,35.951927185058594,0,
 603159,-0.302734375,-0.9267578125,0.043212890625,-0.7317073345184326,0.24390244483947754,0.4573170840740204,3.5999999046325684,2.549999952316284,-8.699999809265137,35.80815887451172,0,
 603169,-0.302978515625,-0.927490234375,0.039306640625,-0.8536585569381714,0.18292683362960815,0.3353658616542816,2.549999952316284,1.9500000476837158,-7.800000190734863,35.856082916259766,0,
 603179,-0.30419921875,-0.92626953125,0.044921875,-0.8536585569381714,0.3353658616542816,0.3048780560493469,3.5999999046325684,4.050000190734863,-8.399999618530273,35.6164665222168,0,
 603189,-0.301025390625,-0.927734375,0.03955078125,-0.8231707215309143,0.21341463923454285,0.396341472864151,1.7999999523162842,1.5,-9.300000190734863,35.281005859375,0,
 603199,-0.3037109375,-0.927490234375,0.040771484375,-1.0365853309631348,0.5487805008888245,0.3048780560493469,1.7999999523162842,1.5,-9.300000190734863,35.664390563964844,0,
 603209,-0.30322265625,-0.927734375,0.041259765625,-1.2804877758026123,0.5792682766914368,-0.030487805604934692,2.0999999046325684,1.649999976158142,-10.949999809265137,35.951927185058594,0,
 603219,-0.3046875,-0.928466796875,0.040771484375,-1.4939024448394775,0.27439025044441223,-0.030487805604934692,3.9000000953674316,4.5,-10.649999618530273,35.951927185058594,0,
 603229,-0.30615234375,-0.928466796875,0.040283203125,-0.9146341681480408,0.5792682766914368,0.12195122241973877,3.299999952316284,3.450000047683716,-10.050000190734863,35.951927185058594,0,
 603239,-0.310302734375,-0.92626953125,0.039306640625,-0.7317073345184326,0.4573170840740204,0.18292683362960815,2.25,1.5,-9.300000190734863,35.281005859375,0,
 603249,-0.30859375,-0.927978515625,0.03515625,-0.8536585569381714,0.5182926654815674,-0.15243902802467346,2.25,1.5,-9.300000190734863,35.951927185058594,0,
 603259,-0.302490234375,-0.926513671875,0.03955078125,-0.3353658616542816,0.09146341681480408,0.27439025044441223,2.549999952316284,1.0499999523162842,-10.050000190734863,35.951927185058594,0,
 603269,-0.299560546875,-0.9296875,0.041748046875,-0.3353658616542816,0.27439025044441223,0.3048780560493469,1.649999976158142,0.8999999761581421,-9.149999618530273,35.99985122680664,0,
 603279,-0.3046875,-0.927978515625,0.036376953125,0.3658536672592163,0.24390244483947754,0.3658536672592163,2.0999999046325684,2.549999952316284,-10.649999618530273,35.856082916259766,0,
 603289,-0.307861328125,-0.929931640625,0.035400390625,-0.18292683362960815,0.12195122241973877,0.4268292784690857,3.299999952316284,2.25,-9.75,35.6164665222168,0,
 603299,-0.29931640625,-0.931884765625,0.04052734375,-0.030487805604934692,0.15243902802467346,0.060975611209869385,3.299999952316284,2.25,-9.75,35.664390563964844,0,
 603309,-0.305908203125,-0.92236328125,0.03564453125,-0.18292683362960815,0.27439025044441223,0.060975611209869385,3.1500000953674316,1.350000023841858,-9.449999809265137,35.856082916259766,0,
 603319,-0.3037109375,-0.92578125,0.041748046875,-0.030487805604934692,0.396341472864151,0.18292683362960815,2.8499999046325684,0.8999999761581421,-10.199999809265137,35.6164665222168,0,
 603329,-0.308837890625,-0.930908203125,0.03955078125,-0.27439025044441223,0.3048780560493469,0.09146341681480408,1.5,2.700000047683716,-10.800000190734863,35.856082916259766,0,
 603339,-0.30126953125,-0.93017578125,0.047119140625,-0.12195122241973877,0.396341472864151,0.3048780560493469,2.0999999046325684,1.350000023841858,-10.199999809265137,35.76023483276367,0,
 603349,-0.305419921875,-0.92626953125,0.044189453125,-0.3048780560493469,0.0,0.3048780560493469,2.8499999046325684,1.350000023841858,-10.649999618530273,35.951927185058594,0,
 603359,-0.303955078125,-0.934814453125,0.044189453125,-0.18292683362960815,0.3353658616542816,0.3353658616542816,3.75,0.75,-10.800000190734863,35.951927185058594,0,
 603369,-0.309814453125,-0.929443359375,0.040283203125,-0.4573170840740204,0.3353658616542816,0.0,2.25,2.700000047683716,-9.300000190734863,35.80815887451172,0,
 603379,-0.308837890625,-0.9287109375,0.045166015625,-0.5792682766914368,0.27439025044441223,0.396341472864151,1.2000000476837158,0.8999999761581421,-9.449999809265137,35.6164665222168,0,
 603389,-0.307373046875,-0.9296875,0.044677734375,-0.5487805008888245,0.18292683362960815,0.4573170840740204,1.2000000476837158,0.8999999761581421,-9.449999809265137,35.664390563964844,0,
 603399,-0.3056640625,-0.933349609375,0.044189453125,-0.6707317233085632,0.3658536672592163,-0.09146341681480408,2.0999999046325684,1.350000023841858,-9.899999618530273,35.80815887451172,0,
 603409,-0.31005859375,-0.92919921875,0.0390625,-0.4268292784690857,0.3353658616542816,0.5487805008888245,2.25,1.5,-9.75,35.99985122680664,0,
 603419,-0.3017578125,-0.927490234375,0.039794921875,-0.8231707215309143,0.396341472864151,0.030487805604934692,1.649999976158142,1.350000023841858,-9.899999618530273,35.99985122680664,0,
 603429,-0.306640625,-0.935546875,0.039794921875,-0.3658536672592163,0.5792682766914368,0.18292683362960815,2.8499999046325684,2.0999999046325684,-10.649999618530273,35.951927185058594,0,
 603439,-0.304931640625,-0.924560546875,0.04052734375,-0.6402438879013062,0.3353658616542816,0.21341463923454285,2.8499999046325684,2.0999999046325684,-10.649999618530273,35.6164665222168,0,
 603449,-0.30908203125,-0.929931640625,0.045166015625,-0.8536585569381714,0.4268292784690857,0.21341463923454285,2.549999952316284,3.1500000953674316,-9.0,35.856082916259766,0,
 603459,-0.30810546875,-0.9296875,0.044677734375,-0.792682945728302,0.4878048896789551,0.3353658616542816,3.0,2.25,-9.0,35.80815887451172,0,
 603469,-0.306884765625,-0.92626953125,0.042724609375,-0.7621951103210449,0.4268292784690857,0.15243902802467346,2.0999999046325684,2.549999952316284,-9.149999618530273,35.664390563964844,0,
 603479,-0.306884765625,-0.927490234375,0.039794921875,-0.8536585569381714,0.4268292784690857,0.4573170840740204,2.0999999046325684,2.549999952316284,-9.149999618530273,35.856082916259766,0,
 603489,-0.308349609375,-0.9228515625,0.0390625,-0.6097561120986938,0.396341472864151,0.030487805604934692,3.75,1.0499999523162842,-9.0,35.6164665222168,0,
 603499,-0.3076171875,-0.932861328125,0.04345703125,-0.5792682766914368,0.4878048896789551,0.4268292784690857,3.1500000953674316,1.350000023841858,-9.449999809265137,35.76023483276367,0,
 603509,-0.298583984375,-0.92529296875,0.039306640625,-0.7621951103210449,0.4573170840740204,0.3658536672592163,2.25,1.9500000476837158,-9.300000190734863,35.951927185058594,0,
 603519,-0.304931640625,-0.926025390625,0.037109375,-0.6097561120986938,0.24390244483947754,0.12195122241973877,3.0,1.9500000476837158,-10.5,35.80815887451172,0,
 603529,-0.3056640625,-0.9267578125,0.040283203125,-0.7317073345184326,0.5487805008888245,0.21341463923454285,3.0,1.9500000476837158,-10.5,35.80815887451172,0,
 603539,-0.30859375,-0.922607421875,0.03955078125,-0.5487805008888245,0.6097561120986938,0.18292683362960815,2.8499999046325684,3.299999952316284,-13.949999809265137,35.80815887451172,0,
 603549,-0.3017578125,-0.926025390625,0.037109375,-0.4878048896789551,0.4573170840740204,0.24390244483947754,2.25,1.9500000476837158,-10.800000190734863,35.6164665222168,0,
 603559,-0.305908203125,-0.92333984375,0.045166015625,-0.3353658616542816,0.3048780560493469,-0.030487805604934692,2.4000000953674316,1.350000023841858,-10.199999809265137,35.6164665222168,0,
 603569,-0.3056640625,-0.926025390625,0.040771484375,-0.18292683362960815,0.18292683362960815,0.09146341681480408,1.649999976158142,2.0999999046325684,-9.899999618530273,35.951927185058594,0,
 603579,-0.304931640625,-0.9248046875,0.0380859375,-0.060975611209869385,0.21341463923454285,0.12195122241973877,1.649999976158142,2.0999999046325684,-9.899999618530273,35.856082916259766,0,
 603589,-0.301025390625,-0.927001953125,0.043212890625,0.09146341681480408,0.21341463923454285,0.15243902802467346,2.4000000953674316,2.0999999046325684,-9.899999618530273,35.52062225341797,0,
 603599,-0.299072265625,-0.92822265625,0.04296875,-0.030487805604934692,0.4573170840740204,-0.18292683362960815,2.4000000953674316,2.8499999046325684,-10.649999618530273,35.99985122680664,0,
 603609,-0.3056640625,-0.9248046875,0.04052734375,-0.24390244483947754,0.060975611209869385,0.24390244483947754,2.8499999046325684,1.649999976158142,-9.149999618530273,35.951927185058594,0,
 603619,-0.3056640625,-0.927978515625,0.044189453125,-0.12195122241973877,0.27439025044441223,0.060975611209869385,2.8499999046325684,1.649999976158142,-9.149999618530273,35.6164665222168,0,
 603629,-0.3046875,-0.925537109375,0.04296875,-0.24390244483947754,0.24390244483947754,0.21341463923454285,2.549999952316284,2.25,-10.050000190734863,35.76023483276367,0,
 603639,-0.301025390625,-0.9287109375,0.0390625,-0.3658536672592163,0.3353658616542816,-0.09146341681480408,4.650000095367432,4.050000190734863,-10.199999809265137,35.664390563964844,0,
 603649,-0.302734375,-0.928955078125,0.0400390625,-0.24390244483947754,0.4268292784690857,0.21341463923454285,3.0,2.25,-8.550000190734863,35.664390563964844,0,
 603659,-0.30810546875,-0.927490234375,0.04150390625,0.0,0.12195122241973877,0.27439025044441223,2.549999952316284,0.30000001192092896,-9.300000190734863,35.80815887451172,0,
 603669,-0.302001953125,-0.930908203125,0.049072265625,0.18292683362960815,0.21341463923454285,0.18292683362960815,2.549999952316284,0.30000001192092896,-9.300000190734863,35.99985122680664,0,
 603679,-0.300537109375,-0.9306640625,0.044921875,-0.060975611209869385,0.21341463923454285,0.396341472864151,2.4000000953674316,3.299999952316284,-8.399999618530273,35.664390563964844,0,
 603689,-0.309326171875,-0.927001953125,0.041015625,-0.7621951103210449,0.3353658616542816,0.15243902802467346,2.4000000953674316,3.75,-10.199999809265137,35.951927185058594,0,
 603699,-0.308837890625,-0.9306640625,0.0439453125,0.15243902802467346,0.21341463923454285,0.5792682766914368,1.649999976158142,2.549999952316284,-10.199999809265137,35.664390563964844,0,
 603709,-0.305419921875,-0.931640625,0.041015625,-0.18292683362960815,0.4878048896789551,0.4878048896789551,2.549999952316284,1.5,-10.800000190734863,35.99985122680664,0,
 603719,-0.303466796875,-0.927978515625,0.04638671875,-0.4268292784690857,0.5487805008888245,0.4878048896789551,2.549999952316284,1.5,-10.800000190734863,35.856082916259766,0,
 603730,-0.304931640625,-0.92724609375,0.0439453125,-0.6097561120986938,0.12195122241973877,0.3353658616542816,3.5999999046325684,2.549999952316284,-9.899999618530273,35.6164665222168,0,
 603740,-0.310546875,-0.9296875,0.041748046875,-0.5182926654815674,0.5487805008888245,0.3048780560493469,0.30000001192092896,1.5,-10.5,35.99985122680664,0,
 603750,-0.307861328125,-0.930908203125,0.045654296875,-0.7621951103210449,0.24390244483947754,0.21341463923454285,1.7999999523162842,1.5,-10.5,35.856082916259766,0,
 603760,-0.30908203125,-0.929931640625,0.038818359375,-0.7621951103210449,0.6707317233085632,0.3658536672592163,1.7999999523162842,1.5,-10.5,35.6164665222168,0,
 603770,-0.30419921875,-0.92529296875,0.04833984375,-0.6402438879013062,0.5792682766914368,0.12195122241973877,1.0499999523162842,1.9500000476837158,-10.050000190734863,35.856082916259766,0,
 603780,-0.309814453125,-0.92578125,0.03955078125,-0.7317073345184326,0.4878048896789551,0.3658536672592163,2.0999999046325684,2.0999999046325684,-8.399999618530273,35.6164665222168,0,
 603790,-0.303955078125,-0.92724609375,0.042724609375,-0.5792682766914368,0.3048780560493469,-0.060975611209869385,1.649999976158142,0.8999999761581421,-8.699999809265137,35.951927185058594,0,
 603800,-0.30810546875,-0.92919921875,0.038818359375,-0.6402438879013062,0.3048780560493469,0.15243902802467346,2.25,3.1500000953674316,-7.800000190734863,35.76023483276367,0,
 603810,-0.304443359375,-0.929931640625,0.040283203125,-0.4573170840740204,0.7621951103210449,-0.09146341681480408,2.25,3.1500000953674316,-7.800000190734863,35.856082916259766,0,
 603820,-0.303466796875,-0.92578125,0.04052734375,-0.8841463327407837,0.6402438879013062,0.060975611209869385,1.649999976158142,1.649999976158142,-9.899999618530273,35.951927185058594,0,
 603830,-0.3076171875,-0.924560546875,0.04443359375,-0.5792682766914368,0.396341472864151,0.21341463923454285,3.0,2.25,-10.050000190734863,35.664390563964844,0,
 603840,-0.305908203125,-0.9248046875,0.038330078125,-0.4268292784690857,0.21341463923454285,0.12195122241973877,1.2000000476837158,2.549999952316284,-9.899999618530273,35.951927185058594,0,
 603850,-0.307861328125,-0.92578125,0.038330078125,-0.8231707215309143,0.4878048896789551,0.18292683362960815,3.299999952316284,1.9500000476837158,-12.300000190734863,35.76023483276367,0,
 603860,-0.3076171875,-0.92431640625,0.03955078125,-0.7317073345184326,0.27439025044441223,0.0,3.299999952316284,1.9500000476837158,-12.300000190734863,35.856082916259766,0,
 603870,-0.3046875,-0.932373046875,0.041259765625,-0.5487805008888245,0.15243902802467346,0.24390244483947754,1.7999999523162842,1.0499999523162842,-7.5,36.143619537353516,0,
 603880,-0.305419921875,-0.929443359375,0.039794921875,-0.8841463327407837,0.09146341681480408,0.030487805604934692,1.649999976158142,1.350000023841858,-10.199999809265137,35.42477798461914,0,
 603890,-0.30419921875,-0.927734375,0.040771484375,-0.6707317233085632,0.5487805008888245,0.21341463923454285,2.25,1.0499999523162842,-8.550000190734863,35.951927185058594,0,
 603900,-0.306640625,-0.924072265625,0.042236328125,-0.6402438879013062,0.396341472864151,0.12195122241973877,2.25,1.0499999523162842,-8.550000190734863,35.856082916259766,0,
 603910,-0.30419921875,-0.93017578125,0.043212890625,-0.3048780560493469,0.4573170840740204,-0.030487805604934692,1.649999976158142,2.8499999046325684,-9.899999618530273,35.99985122680664,0,
 603920,-0.310791015625,-0.927978515625,0.039794921875,-0.3658536672592163,0.4573170840740204,0.3353658616542816,2.549999952316284,2.700000047683716,-9.300000190734863,35.80815887451172,0,
 603930,-0.3046875,-0.931640625,0.0322265625,0.030487805604934692,-0.060975611209869385,0.030487805604934692,3.5999999046325684,1.350000023841858,-8.399999618530273,35.664390563964844,0,
 603940,-0.306884765625,-0.925048828125,0.044921875,-0.4268292784690857,0.24390244483947754,0.0,2.8499999046325684,1.350000023841858,-8.699999809265137,35.76023483276367,0,
 603950,-0.306640625,-0.927001953125,0.043701171875,0.060975611209869385,0.21341463923454285,0.3658536672592163,2.8499999046325684,1.350000023841858,-8.699999809265137,35.99985122680664,0,
 603960,-0.30712890625,-0.92431640625,0.040771484375,-0.5182926654815674,0.3353658616542816,0.15243902802467346,2.0999999046325684,1.649999976158142,-10.649999618530273,35.856082916259766,0,
 603970,-0.302978515625,-0.928955078125,0.044921875,-0.12195122241973877,0.3048780560493469,0.27439025044441223,2.549999952316284,1.5,-11.25,35.856082916259766,0,
 603980,-0.301025390625,-0.92578125,0.043212890625,-0.5182926654815674,0.5487805008888245,0.4573170840740204,1.649999976158142,2.0999999046325684,-8.699999809265137,35.664390563964844,0,
 603990,-0.3046875,-0.9326171875,0.04150390625,-0.6402438879013062,0.3658536672592163,0.3353658616542816,1.7999999523162842,1.9500000476837158,-9.75,35.80815887451172,0,
 604000,-0.304931640625,-0.922119140625,0.039306640625,-0.5487805008888245,0.5792682766914368,0.5487805008888245,1.7999999523162842,1.9500000476837158,-9.75,35.951927185058594,0,
 604010,-0.302001953125,-0.926025390625,0.044189453125,-0.4878048896789551,0.396341472864151,0.15243902802467346,1.649999976158142,0.44999998807907104,-9.149999618530273,35.80815887451172,0,
 604020,-0.302734375,-0.92626953125,0.041015625,-0.4573170840740204,0.4573170840740204,0.12195122241973877,2.25,1.5,-9.0,35.80815887451172,0,
 604030,-0.303466796875,-0.92919921875,0.045654296875,-0.5792682766914368,0.3658536672592163,0.24390244483947754,1.7999999523162842,4.349999904632568,-9.75,35.80815887451172,0,
 604040,-0.299560546875,-0.9248046875,0.044921875,-0.6402438879013062,0.3658536672592163,0.18292683362960815,1.7999999523162842,4.349999904632568,-9.75,35.856082916259766,0,
 604050,-0.301025390625,-0.931884765625,0.038818359375,-0.7012194991111755,0.18292683362960815,0.0,3.5999999046325684,3.299999952316284,-10.949999809265137,36.04777145385742,0,
 604060,-0.31103515625,-0.931396484375,0.043701171875,-1.0060975551605225,0.5487805008888245,0.09146341681480408,2.549999952316284,1.9500000476837158,-10.050000190734863,35.856082916259766,0,
 604070,-0.30419921875,-0.92529296875,0.03955078125,-0.8841463327407837,0.21341463923454285,0.396341472864151,1.0499999523162842,2.25,-10.050000190734863,35.664390563964844,0,
 604080,-0.30078125,-0.924072265625,0.042236328125,-0.6707317233085632,0.15243902802467346,0.3353658616542816,1.649999976158142,2.549999952316284,-9.149999618530273,35.664390563964844,0,
 604090,-0.2998046875,-0.92626953125,0.041015625,-0.9146341681480408,0.396341472864151,0.15243902802467346,1.649999976158142,2.549999952316284,-9.149999618530273,35.52062225341797,0,
 604100,-0.3046875,-0.919677734375,0.043701171875,-0.792682945728302,0.3658536672592163,0.6097561120986938,2.4000000953674316,1.649999976158142,-8.399999618530273,35.856082916259766,0,
 604110,-0.306640625,-0.924072265625,0.039794921875,-0.4878048896789551,0.24390244483947754,0.8841463327407837,2.0999999046325684,2.0999999046325684,-10.649999618530273,36.04777145385742,0,
 604120,-0.3076171875,-0.923583984375,0.0390625,-0.3353658616542816,0.3048780560493469,0.4268292784690857,1.649999976158142,2.549999952316284,-8.699999809265137,35.856082916259766,0,
 604130,-0.307373046875,-0.93017578125,0.04150390625,-0.5792682766914368,0.3048780560493469,0.3353658616542816,1.2000000476837158,2.8499999046325684,-9.449999809265137,35.856082916259766,0,
 604140,-0.30908203125,-0.92919921875,0.041748046875,-0.3353658616542816,0.396341472864151,0.5487805008888245,1.2000000476837158,2.8499999046325684,-9.449999809265137,35.856082916259766,0,
 604150,-0.30615234375,-0.92919921875,0.0419921875,0.21341463923454285,0.3658536672592163,0.396341472864151,2.4000000953674316,1.350000023841858,-12.899999618530273,35.76023483276367,0,
 604160,-0.310302734375,-0.9267578125,0.040283203125,-0.12195122241973877,0.0,0.21341463923454285,1.2000000476837158,2.549999952316284,-9.449999809265137,35.951927185058594,0,
 604170,-0.3046875,-0.926513671875,0.03955078125,-0.4268292784690857,0.24390244483947754,0.24390244483947754,1.0499999523162842,1.0499999523162842,-9.0,35.6164665222168,0,
 604180,-0.307373046875,-0.931884765625,0.0400390625,-0.18292683362960815,-0.060975611209869385,0.396341472864151,1.0499999523162842,1.0499999523162842,-9.0,35.856082916259766,0,
 604190,-0.305908203125,-0.926513671875,0.043212890625,-0.3353658616542816,0.24390244483947754,0.15243902802467346,3.75,2.25,-9.75,35.856082916259766,0,
 604200,-0.308837890625,-0.92822265625,0.04052734375,-0.27439025044441223,0.21341463923454285,0.3048780560493469,3.1500000953674316,3.75,-8.399999618530273,35.99985122680664,0,
 604210,-0.310546875,-0.930908203125,0.04296875,-0.6402438879013062,0.5487805008888245,0.12195122241973877,1.2000000476837158,2.0999999046325684,-11.399999618530273,35.951927185058594,0,
 604220,-0.303955078125,-0.924072265625,0.04638671875,-0.6402438879013062,0.4573170840740204,0.21341463923454285,2.8499999046325684,2.549999952316284,-9.899999618530273,35.76023483276367,0,
 604230,-0.303955078125,-0.93359375,0.038818359375,-0.4878048896789551,0.3353658616542816,0.060975611209869385,2.8499999046325684,2.549999952316284,-9.899999618530273,35.80815887451172,0,
 604240,-0.301025390625,-0.92822265625,0.037841796875,-0.396341472864151,0.060975611209869385,0.4268292784690857,1.0499999523162842,2.25,-10.5,36.04777145385742,0,
 604250,-0.301513671875,-0.930419921875,0.039306640625,-0.15243902802467346,0.3658536672592163,0.030487805604934692,2.4000000953674316,1.649999976158142,-9.449999809265137,35.80815887451172,0,
 604260,-0.302490234375,-0.927490234375,0.041015625,0.27439025044441223,0.3353658616542816,0.4573170840740204,-0.44999998807907104,2.549999952316284,-10.949999809265137,35.856082916259766,0,
 604270,-0.30859375,-0.92724609375,0.042724609375,-0.09146341681480408,0.27439025044441223,0.4268292784690857,2.0999999046325684,2.0999999046325684,-8.699999809265137,35.76023483276367,0,
 604280,-0.309326171875,-0.9248046875,0.04150390625,0.18292683362960815,0.15243902802467346,0.4878048896789551,2.0999999046325684,2.0999999046325684,-8.699999809265137,35.856082916259766,0,
 604290,-0.303955078125,-0.92626953125,0.044189453125,-0.24390244483947754,0.09146341681480408,0.15243902802467346,2.4000000953674316,1.649999976158142,-9.899999618530273,35.856082916259766,0,
 604300,-0.306640625,-0.924560546875,0.045166015625,0.27439025044441223,0.15243902802467346,-0.18292683362960815,3.299999952316284,2.25,-9.75,36.1915397644043,0,
 604310,-0.302001953125,-0.929443359375,0.0458984375,-0.6402438879013062,0.3048780560493469,0.5182926654815674,1.7999999523162842,1.5,-9.300000190734863,35.80815887451172,0,
 604320,-0.30419921875,-0.925537109375,0.046142578125,-0.9756097793579102,0.5182926654815674,0.09146341681480408,1.7999999523162842,1.5,-9.300000190734863,35.6164665222168,0,
 604330,-0.303955078125,-0.931884765625,0.038818359375,-0.9146341681480408,0.5792682766914368,0.060975611209869385,2.25,1.9500000476837158,-9.75,35.951927185058594,0,
 604340,-0.30224609375,-0.9326171875,0.03857421875,-0.9756097793579102,0.396341472864151,0.3658536672592163,2.25,1.5,-11.25,35.80815887451172,0,
 604350,-0.308837890625,-0.92724609375,0.0322265625,-0.4878048896789551,0.396341472864151,0.3048780560493469,1.5,2.700000047683716,-10.800000190734863,35.76023483276367,0,
 604360,-0.302001953125,-0.9306640625,0.03662109375,-0.4268292784690857,0.3353658616542816,0.15243902802467346,3.5999999046325684,1.350000023841858,-10.649999618530273,35.6164665222168,0,
 604370,-0.303955078125,-0.924560546875,0.0419921875,-0.4268292784690857,0.5487805008888245,0.3048780560493469,3.5999999046325684,1.350000023841858,-10.649999618530273,35.6164665222168,0,
 604380,-0.302490234375,-0.9296875,0.038330078125,-0.21341463923454285,0.27439025044441223,0.3048780560493469,2.4000000953674316,2.0999999046325684,-9.449999809265137,35.664390563964844,0,
 604390,-0.306640625,-0.9248046875,0.04052734375,-0.24390244483947754,0.18292683362960815,0.3658536672592163,2.0999999046325684,2.8499999046325684,-9.449999809265137,36.04777145385742,0,
 604400,-0.30859375,-0.927490234375,0.04052734375,-0.5792682766914368,0.27439025044441223,0.27439025044441223,2.549999952316284,1.5,-10.5,35.664390563964844,0,
 604410,-0.310791015625,-0.9267578125,0.033447265625,-0.6097561120986938,0.4878048896789551,0.3048780560493469,2.8499999046325684,3.299999952316284,-10.199999809265137,35.664390563964844,0,
 604420,-0.3046875,-0.927978515625,0.042724609375,-0.5487805008888245,0.12195122241973877,0.18292683362960815,2.8499999046325684,3.299999952316284,-10.199999809265137,35.664390563964844,0,
 604431,-0.30712890625,-0.931640625,0.043701171875,-0.396341472864151,0.3658536672592163,0.21341463923454285,2.0999999046325684,2.8499999046325684,-9.899999618530273,35.99985122680664,0,
 604441,-0.306884765625,-0.930908203125,0.045654296875,-0.8841463327407837,0.3048780560493469,0.0,1.7999999523162842,1.9500000476837158,-10.5,35.99985122680664,0,
 604451,-0.30810546875,-0.9326171875,0.0390625,-0.792682945728302,0.4268292784690857,0.24390244483947754,2.8499999046325684,3.299999952316284,-10.649999618530273,36.04777145385742,0,
 604461,-0.299072265625,-0.92919921875,0.04638671875,-0.4268292784690857,0.5487805008888245,0.4573170840740204,2.8499999046325684,3.299999952316284,-10.649999618530273,35.80815887451172,0,
 604471,-0.30224609375,-0.920654296875,0.039794921875,-0.9451219439506531,0.4573170840740204,-0.030487805604934692,2.4000000953674316,1.350000023841858,-9.149999618530273,35.76023483276367,0,
 604481,-0.305908203125,-0.926025390625,0.03466796875,-0.5182926654815674,0.396341472864151,0.5487805008888245,3.0,3.450000047683716,-8.550000190734863,35.80815887451172,0,
 604491,-0.30908203125,-0.922119140625,0.041748046875,-0.3353658616542816,0.27439025044441223,0.3353658616542816,1.7999999523162842,2.25,-10.050000190734863,35.664390563964844,0,
 604501,-0.3046875,-0.931640625,0.040771484375,-0.15243902802467346,0.4268292784690857,0.12195122241973877,1.5,2.25,-8.550000190734863,35.80815887451172,0,
 604511,-0.302978515625,-0.9287109375,0.0458984375,-0.5182926654815674,0.3048780560493469,0.4268292784690857,1.5,2.25,-8.550000190734863,35.951927185058594,0,
 604521,-0.302001953125,-0.929443359375,0.04052734375,-0.6707317233085632,0.24390244483947754,0.5487805008888245,2.25,1.5,-9.0,35.6164665222168,0,
 604531,-0.30224609375,-0.926513671875,0.038818359375,-0.4573170840740204,0.3658536672592163,0.4878048896789551,3.0,3.450000047683716,-9.75,35.856082916259766,0,
 604541,-0.302490234375,-0.91943359375,0.042724609375,-0.4268292784690857,0.5487805008888245,0.4573170840740204,1.2000000476837158,2.549999952316284,-8.699999809265137,35.76023483276367,0,
 604551,-0.307373046875,-0.92431640625,0.046630859375,-0.3658536672592163,0.27439025044441223,0.060975611209869385,1.5,1.5,-10.050000190734863,35.80815887451172,0,
 604561,-0.302734375,-0.930908203125,0.0400390625,-0.7012194991111755,0.3048780560493469,0.18292683362960815,1.5,1.5,-10.050000190734863,35.80815887451172,0,
 604571,-0.304443359375,-0.923095703125,0.037841796875,-0.792682945728302,0.24390244483947754,0.21341463923454285,0.75,1.9500000476837158,-11.25,35.664390563964844,0,
 604581,-0.310302734375,-0.928466796875,0.041748046875,-0.9451219439506531,0.3658536672592163,0.030487805604934692,2.25,2.700000047683716,-10.800000190734863,35.76023483276367,0,
 604591,-0.306396484375,-0.928955078125,0.038818359375,-0.6097561120986938,0.6707317233085632,0.18292683362960815,1.7999999523162842,2.700000047683716,-9.300000190734863,35.6164665222168,0,
 604601,-0.30322265625,-0.929443359375,0.04296875,-0.6707317233085632,0.18292683362960815,0.4573170840740204,1.7999999523162842,2.700000047683716,-9.300000190734863,35.76023483276367,0,
 604611,-0.30419921875,-0.927734375,0.037109375,-0.792682945728302,0.396341472864151,0.5487805008888245,2.25,2.25,-10.050000190734863,35.32892990112305,0,
 604621,-0.303466796875,-0.92724609375,0.037109375,-0.7012194991111755,0.5182926654815674,0.3658536672592163,1.5,1.9500000476837158,-8.550000190734863,35.99985122680664,0,
 604631,-0.309326171875,-0.9306640625,0.04052734375,-0.3658536672592163,0.4573170840740204,0.4268292784690857,2.8499999046325684,2.0999999046325684,-10.199999809265137,35.664390563964844,0,
 604641,-0.3046875,-0.927734375,0.040283203125,-0.396341472864151,0.24390244483947754,0.3658536672592163,0.75,2.700000047683716,-9.0,35.951927185058594,0,
 604651,-0.308349609375,-0.927978515625,0.03857421875,-0.4878048896789551,0.09146341681480408,0.4878048896789551,0.75,2.700000047683716,-9.0,35.664390563964844,0,
 604661,-0.3017578125,-0.9296875,0.04052734375,0.0,0.24390244483947754,0.09146341681480408,0.75,1.5,-8.550000190734863,35.32892990112305,0,
 604671,-0.302001953125,-0.927978515625,0.042236328125,-0.6097561120986938,0.21341463923454285,0.3658536672592163,1.0499999523162842,3.450000047683716,-10.050000190734863,36.04777145385742,0,
 604681,-0.303466796875,-0.9287109375,0.04248046875,-0.4878048896789551,0.3048780560493469,0.3658536672592163,2.0999999046325684,3.299999952316284,-9.149999618530273,35.80815887451172,0,
 604691,-0.30322265625,-0.92431640625,0.041259765625,-0.5182926654815674,0.12195122241973877,0.18292683362960815,1.2000000476837158,2.0999999046325684,-9.899999618530273,35.856082916259766,0,
 604701,-0.302734375,-0.9248046875,0.040771484375,-0.3048780560493469,0.15243902802467346,0.4268292784690857,1.2000000476837158,2.0999999046325684,-9.899999618530273,35.856082916259766,0,
 604711,-0.310791015625,-0.93115234375,0.043212890625,-0.09146341681480408,0.21341463923454285,0.5487805008888245,2.25,3.1500000953674316,-10.050000190734863,35.76023483276367,0,
 604721,-0.302490234375,-0.92724609375,0.046630859375,-0.3048780560493469,0.3353658616542816,0.27439025044441223,1.2000000476837158,4.050000190734863,-9.899999618530273,35.856082916259766,0,
 604731,-0.305908203125,-0.92431640625,0.04443359375,-0.4573170840740204,0.12195122241973877,0.09146341681480408,1.2000000476837158,2.0999999046325684,-9.899999618530273,35.951927185058594,0,
 604741,-0.306884765625,-0.9228515625,0.04345703125,-0.18292683362960815,0.27439025044441223,0.4268292784690857,1.2000000476837158,2.0999999046325684,-9.899999618530273,35.856082916259766,0,
 604751,-0.30712890625,-0.925537109375,0.047119140625,-0.4878048896789551,0.396341472864151,0.15243902802467346,2.0999999046325684,2.549999952316284,-7.949999809265137,35.80815887451172,0,
 604761,-0.307373046875,-0.927734375,0.04248046875,-0.4573170840740204,0.0,0.18292683362960815,2.25,0.30000001192092896,-9.300000190734863,35.664390563964844,0,
 604771,-0.304931640625,-0.931884765625,0.040771484375,-0.3353658616542816,0.4573170840740204,-0.27439025044441223,3.75,2.25,-11.550000190734863,35.951927185058594,0,
 604781,-0.3046875,-0.92626953125,0.043212890625,-0.8841463327407837,0.27439025044441223,-0.030487805604934692,2.25,3.1500000953674316,-9.300000190734863,35.856082916259766,0,
 604791,-0.30810546875,-0.927001953125,0.041259765625,-0.6402438879013062,0.5487805008888245,0.21341463923454285,2.25,3.1500000953674316,-9.300000190734863,35.80815887451172,0,
 604801,-0.30615234375,-0.923583984375,0.042724609375,-0.7012194991111755,0.24390244483947754,0.3353658616542816,1.0499999523162842,1.9500000476837158,-10.800000190734863,35.856082916259766,0,
 604811,-0.3076171875,-0.923583984375,0.043212890625,-0.4878048896789551,0.18292683362960815,0.27439025044441223,2.25,3.450000047683716,-10.800000190734863,35.42477798461914,0,
 604821,-0.30859375,-0.93212890625,0.046630859375,-0.7621951103210449,0.3658536672592163,0.4878048896789551,2.8499999046325684,0.8999999761581421,-10.199999809265137,35.99985122680664,0,
 604831,-0.31005859375,-0.9326171875,0.04296875,-0.5792682766914368,0.030487805604934692,0.27439025044441223,0.8999999761581421,2.0999999046325684,-9.899999618530273,35.951927185058594,0,
 604841,-0.30712890625,-0.931640625,0.041015625,-0.18292683362960815,0.396341472864151,0.6402438879013062,0.8999999761581421,2.0999999046325684,-9.899999618530273,35.6164665222168,0,
 604851,-0.302001953125,-0.927734375,0.04150390625,-0.6402438879013062,0.5792682766914368,0.3658536672592163,1.649999976158142,2.0999999046325684,-8.699999809265137,35.951927185058594,0,
 604861,-0.309326171875,-0.929931640625,0.041748046875,-0.5487805008888245,0.4268292784690857,0.5487805008888245,3.1500000953674316,2.8499999046325684,-9.449999809265137,35.6164665222168,0,
 604871,-0.304443359375,-0.9306640625,0.03955078125,-1.1280487775802612,0.24390244483947754,0.18292683362960815,3.75,3.450000047683716,-11.25,35.856082916259766,0,
 604881,-0.301513671875,-0.9248046875,0.03955078125,-0.792682945728302,0.6402438879013062,0.4573170840740204,3.75,3.450000047683716,-11.25,35.856082916259766,0,
 604891,-0.308837890625,-0.928466796875,0.042236328125,-0.6097561120986938,0.4573170840740204,0.24390244483947754,1.7999999523162842,2.700000047683716,-10.050000190734863,35.856082916259766,0,
 604901,-0.30712890625,-0.93115234375,0.0419921875,-0.6707317233085632,0.5792682766914368,0.09146341681480408,2.0999999046325684,0.8999999761581421,-9.899999618530273,36.1915397644043,0,
 604911,-0.302734375,-0.927001953125,0.038330078125,-0.6707317233085632,0.3048780560493469,0.0,1.0499999523162842,2.25,-7.5,35.42477798461914,0,
 604921,-0.308837890625,-0.92529296875,0.04150390625,-0.7317073345184326,0.396341472864151,-0.12195122241973877,2.549999952316284,0.75,-9.300000190734863,36.143619537353516,0,
 604931,-0.306884765625,-0.92919921875,0.041748046875,-0.4573170840740204,0.4268292784690857,-0.12195122241973877,2.549999952316284,0.75,-9.300000190734863,35.664390563964844,0,
 604941,-0.302734375,-0.927001953125,0.036376953125,-0.3658536672592163,0.4268292784690857,0.09146341681480408,0.0,2.700000047683716,-7.5,35.856082916259766,0,
 604951,-0.30078125,-0.927734375,0.037109375,-0.4268292784690857,0.21341463923454285,0.0,2.25,1.0499999523162842,-10.050000190734863,35.856082916259766,0,
 604961,-0.30517578125,-0.929931640625,0.03955078125,-0.5487805008888245,0.4878048896789551,0.396341472864151,3.0,1.5,-8.550000190734863,35.856082916259766,0,
 604971,-0.302490234375,-0.9287109375,0.0390625,-0.27439025044441223,0.3353658616542816,0.3658536672592163,1.649999976158142,4.050000190734863,-9.449999809265137,35.99985122680664,0,
 604981,-0.3037109375,-0.928955078125,0.03564453125,-0.18292683362960815,0.060975611209869385,0.24390244483947754,1.649999976158142,4.050000190734863,-9.449999809265137,35.80815887451172,0,
 604991,-0.30517578125,-0.92626953125,0.042236328125,0.18292683362960815,0.3353658616542816,0.4573170840740204,3.299999952316284,1.5,-9.75,35.99985122680664,0,
 605001,-0.302978515625,-0.92724609375,0.041015625,0.030487805604934692,-0.030487805604934692,0.18292683362960815,2.25,1.9500000476837158,-10.800000190734863,36.143619537353516,0,
 605011,-0.307861328125,-0.923095703125,0.035888671875,0.12195122241973877,0.24390244483947754,0.21341463923454285,0.8999999761581421,2.0999999046325684,-10.649999618530273,35.99985122680664,0,
 605021,-0.300537109375,-0.922607421875,0.037109375,-0.12195122241973877,0.21341463923454285,0.3658536672592163,0.8999999761581421,2.0999999046325684,-10.649999618530273,36.04777145385742,0,
 605031,-0.306396484375,-0.929443359375,0.0419921875,-0.09146341681480408,0.09146341681480408,0.3658536672592163,3.0,1.9500000476837158,-10.5,35.99985122680664,0,
 605041,-0.307373046875,-0.9296875,0.04541015625,0.0,-0.27439025044441223,0.4268292784690857,2.549999952316284,2.25,-9.75,35.76023483276367,0,
 605051,-0.302978515625,-0.927978515625,0.042724609375,0.0,0.09146341681480408,0.27439025044441223,2.25,2.25,-8.550000190734863,35.42477798461914,0,
 605061,-0.305908203125,-0.924072265625,0.041259765625,0.09146341681480408,-0.030487805604934692,0.030487805604934692,2.25,1.9500000476837158,-10.800000190734863,35.951927185058594,0,
 605071,-0.307861328125,-0.92431640625,0.042724609375,-0.18292683362960815,0.0,0.3353658616542816,2.25,1.9500000476837158,-10.800000190734863,35.80815887451172,0,
 605081,-0.302978515625,-0.925048828125,0.044921875,-0.21341463923454285,0.3353658616542816,0.09146341681480408,3.0,0.0,-12.0,35.664390563964844,0,
 605091,-0.3037109375,-0.934326171875,0.0439453125,-0.3048780560493469,-0.060975611209869385,0.27439025044441223,2.4000000953674316,2.8499999046325684,-11.699999809265137,35.951927185058594,0,
 605101,-0.311767578125,-0.92919921875,0.03759765625,-0.3658536672592163,0.27439025044441223,0.060975611209869385,1.649999976158142,2.549999952316284,-8.399999618530273,35.6164665222168,0,
 605111,-0.30615234375,-0.9306640625,0.043212890625,-0.4573170840740204,0.5182926654815674,0.4878048896789551,0.30000001192092896,3.1500000953674316,-8.550000190734863,36.143619537353516,0,
 605121,-0.308349609375,-0.9248046875,0.041748046875,-0.4878048896789551,0.3353658616542816,0.3658536672592163,0.30000001192092896,3.1500000953674316,-8.550000190734863,35.951927185058594,0,
 605131,-0.304443359375,-0.925048828125,0.04443359375,-0.7012194991111755,0.24390244483947754,0.5182926654815674,1.5,1.9500000476837158,-9.0,35.951927185058594,0,
 605141,-0.302490234375,-0.93017578125,0.0419921875,-0.6097561120986938,0.4573170840740204,0.21341463923454285,2.25,1.9500000476837158,-10.5,35.856082916259766,0,
 605151,-0.30615234375,-0.92236328125,0.044921875,-0.6707317233085632,0.3658536672592163,0.18292683362960815,2.0999999046325684,2.549999952316284,-9.899999618530273,35.664390563964844,0,
 605161,-0.30419921875,-0.928955078125,0.050048828125,-0.5792682766914368,0.4268292784690857,0.4573170840740204,2.0999999046325684,2.549999952316284,-9.899999618530273,35.856082916259766,0,
 605171,-0.31005859375,-0.93017578125,0.046142578125,-0.8231707215309143,-0.030487805604934692,0.15243902802467346,0.8999999761581421,0.44999998807907104,-10.649999618530273,35.99985122680664,0,
 605182,-0.306640625,-0.922607421875,0.045166015625,-0.8536585569381714,0.396341472864151,0.4573170840740204,3.9000000953674316,4.050000190734863,-13.199999809265137,36.04777145385742,0,
 605192,-0.304931640625,-0.926025390625,0.041259765625,-0.8841463327407837,0.7621951103210449,0.4573170840740204,2.0999999046325684,3.299999952316284,-8.399999618530273,35.951927185058594,0,
 605202,-0.3115234375,-0.9287109375,0.04638671875,-0.8231707215309143,0.4573170840740204,0.24390244483947754,1.649999976158142,2.0999999046325684,-9.899999618530273,35.664390563964844,0,
 605212,-0.312255859375,-0.930908203125,0.044921875,-1.097561001777649,0.5792682766914368,0.4268292784690857,1.649999976158142,2.0999999046325684,-9.899999618530273,35.80815887451172,0,
 605222,-0.30126953125,-0.92919921875,0.04248046875,-1.1585365533828735,0.27439025044441223,0.030487805604934692,1.0499999523162842,2.25,-10.050000190734863,35.76023483276367,0,
 605232,-0.30810546875,-0.924072265625,0.043212890625,-1.0365853309631348,0.6707317233085632,0.3658536672592163,2.4000000953674316,2.549999952316284,-9.149999618530273,35.951927185058594,0,
 605242,-0.308837890625,-0.923583984375,0.04443359375,-1.3414634466171265,0.5792682766914368,0.15243902802467346,2.4000000953674316,2.0999999046325684,-9.899999618530273,35.856082916259766,0,
 605252,-0.3037109375,-0.92041015625,0.041015625,-1.25,0.4878048896789551,0.3048780560493469,1.649999976158142,1.350000023841858,-9.149999618530273,35.951927185058594,0,
 605262,-0.303955078125,-0.927490234375,0.0400390625,-0.9146341681480408,0.6097561120986938,0.18292683362960815,1.649999976158142,1.350000023841858,-9.149999618530273,35.80815887451172,0,
 605272,-0.30322265625,-0.919921875,0.0390625,-0.8231707215309143,0.4268292784690857,0.060975611209869385,2.549999952316284,1.5,-10.800000190734863,35.856082916259766,0,
 605282,-0.303955078125,-0.92529296875,0.040283203125,-0.6707317233085632,0.4573170840740204,0.21341463923454285,1.0499999523162842,4.349999904632568,-12.0,35.856082916259766,0,
 605292,-0.302978515625,-0.927734375,0.0439453125,-0.6402438879013062,0.6097561120986938,0.24390244483947754,1.649999976158142,3.299999952316284,-8.399999618530273,35.80815887451172,0,
 605302,-0.3017578125,-0.9296875,0.04052734375,-0.5487805008888245,0.24390244483947754,0.030487805604934692,1.649999976158142,3.299999952316284,-8.399999618530273,35.951927185058594,0,
 605312,-0.3037109375,-0.927001953125,0.045654296875,-0.5792682766914368,0.21341463923454285,0.18292683362960815,2.4000000953674316,2.8499999046325684,-9.149999618530273,35.856082916259766,0,
 605322,-0.3115234375,-0.924560546875,0.0458984375,-0.4268292784690857,0.4268292784690857,0.27439025044441223,0.44999998807907104,2.8499999046325684,-9.449999809265137,35.76023483276367,0,
 605332,-0.30615234375,-0.92919921875,0.047119140625,-0.3353658616542816,0.3048780560493469,0.15243902802467346,2.549999952316284,2.25,-9.0,36.04777145385742,0,
 605342,-0.30224609375,-0.925048828125,0.04150390625,-0.4573170840740204,0.396341472864151,0.24390244483947754,2.549999952316284,2.25,-9.75,35.76023483276367,0,
 605352,-0.301513671875,-0.927001953125,0.03955078125,-0.3353658616542816,0.5487805008888245,0.24390244483947754,2.549999952316284,2.25,-9.75,35.6164665222168,0,
 605362,-0.3076171875,-0.919189453125,0.04150390625,-0.18292683362960815,0.09146341681480408,0.18292683362960815,1.5,2.25,-11.550000190734863,35.80815887451172,0,
 605372,-0.300048828125,-0.92724609375,0.043212890625,-0.15243902802467346,0.4268292784690857,0.21341463923454285,0.75,1.5,-7.800000190734863,35.76023483276367,0,
 605382,-0.3125,-0.9296875,0.04296875,-0.09146341681480408,0.21341463923454285,-0.030487805604934692,1.5,1.9500000476837158,-10.050000190734863,35.856082916259766,0,
 605392,-0.303955078125,-0.928955078125,0.040283203125,0.15243902802467346,0.12195122241973877,0.18292683362960815,1.0499999523162842,-1.0499999523162842,-10.800000190734863,35.99985122680664,0,
 605402,-0.304443359375,-0.929931640625,0.037841796875,0.0,0.0,0.396341472864151,1.0499999523162842,-1.0499999523162842,-10.800000190734863,35.6164665222168,0,
 605412,-0.302001953125,-0.926513671875,0.0380859375,0.030487805604934692,0.09146341681480408,0.15243902802467346,3.1500000953674316,1.350000023841858,-8.399999618530273,35.856082916259766,0,
 605422,-0.305419921875,-0.92578125,0.04443359375,0.0,0.030487805604934692,0.21341463923454285,2.4000000953674316,0.8999999761581421,-9.449999809265137,35.76023483276367,0,
 605432,-0.3076171875,-0.927734375,0.040283203125,0.18292683362960815,0.0,0.3658536672592163,1.7999999523162842,2.25,-10.5,35.6164665222168,0,
 605442,-0.302734375,-0.924560546875,0.041748046875,0.396341472864151,0.09146341681480408,0.3658536672592163,1.7999999523162842,2.25,-10.5,35.664390563964844,0,
 605452,-0.303955078125,-0.93359375,0.04150390625,0.3658536672592163,-0.09146341681480408,0.3353658616542816,1.2000000476837158,2.549999952316284,-9.899999618530273,35.951927185058594,0,
 605462,-0.306396484375,-0.927001953125,0.038330078125,0.030487805604934692,0.09146341681480408,0.3353658616542816,2.549999952316284,1.9500000476837158,-9.300000190734863,35.99985122680664,0,
 605472,-0.309326171875,-0.929443359375,0.04345703125,0.030487805604934692,0.060975611209869385,0.7012194991111755,1.649999976158142,2.549999952316284,-9.149999618530273,35.856082916259766,0,
 605482,-0.30517578125,-0.929443359375,0.04541015625,-0.5182926654815674,0.09146341681480408,0.6707317233085632,2.4000000953674316,2.549999952316284,-10.199999809265137,35.80815887451172,0,
 605492,-0.306640625,-0.931396484375,0.043212890625,-0.21341463923454285,0.27439025044441223,0.7012194991111755,2.4000000953674316,2.549999952316284,-10.199999809265137,35.664390563964844,0,
 605502,-0.299560546875,-0.927001953125,0.042236328125,-0.5182926654815674,0.21341463923454285,0.4573170840740204,3.0,1.9500000476837158,-9.300000190734863,35.99985122680664,0,
 605512,-0.305419921875,-0.928466796875,0.03564453125,-0.7317073345184326,0.27439025044441223,0.4878048896789551,2.4000000953674316,1.350000023841858,-9.899999618530273,35.664390563964844,0,
 605522,-0.30322265625,-0.929443359375,0.045654296875,-1.0670732259750366,0.18292683362960815,0.21341463923454285,2.549999952316284,2.700000047683716,-8.25,35.80815887451172,0,
 605532,-0.304931640625,-0.9326171875,0.04296875,-1.0060975551605225,0.4268292784690857,0.5487805008888245,2.25,4.349999904632568,-10.050000190734863,35.951927185058594,0,
 605542,-0.30029296875,-0.9267578125,0.046875,-0.9451219439506531,0.396341472864151,0.5792682766914368,2.25,4.349999904632568,-10.050000190734863,35.664390563964844,0,
 605552,-0.301025390625,-0.92529296875,0.04248046875,-1.1585365533828735,0.4573170840740204,0.4573170840740204,1.649999976158142,2.0999999046325684,-9.899999618530273,35.664390563964844,0,
 605562,-0.305908203125,-0.930419921875,0.04638671875,-0.9756097793579102,0.4878048896789551,0.27439025044441223,2.4000000953674316,3.75,-9.449999809265137,35.856082916259766,0,
 605572,-0.3056640625,-0.924072265625,0.040771484375,-1.25,0.5182926654815674,0.4878048896789551,1.649999976158142,3.299999952316284,-10.199999809265137,35.80815887451172,0,
 605582,-0.307861328125,-0.927490234375,0.04296875,-1.1890244483947754,0.6402438879013062,0.27439025044441223,1.649999976158142,3.299999952316284,-10.199999809265137,35.856082916259766,0,
 605592,-0.3095703125,-0.931640625,0.0400390625,-1.097561001777649,0.5182926654815674,0.060975611209869385,3.9000000953674316,2.0999999046325684,-13.199999809265137,35.664390563964844,0,
 605602,-0.30810546875,-0.925537109375,0.043212890625,-1.0060975551605225,0.4268292784690857,0.27439025044441223,1.649999976158142,3.299999952316284,-9.149999618530273,35.951927185058594,0,
 605612,-0.308349609375,-0.930908203125,0.04443359375,-1.3109756708145142,0.7012194991111755,0.3353658616542816,1.649999976158142,2.549999952316284,-9.449999809265137,35.80815887451172,0,
 605622,-0.305908203125,-0.929931640625,0.04248046875,-1.25,0.4573170840740204,0.12195122241973877,0.8999999761581421,0.8999999761581421,-10.199999809265137,35.856082916259766,0,
 605632,-0.3076171875,-0.926025390625,0.0439453125,-1.3414634466171265,0.7012194991111755,0.27439025044441223,0.8999999761581421,0.8999999761581421,-10.199999809265137,35.99985122680664,0,
 605642,-0.307373046875,-0.930908203125,0.0419921875,-1.1280487775802612,0.3048780560493469,0.060975611209869385,1.7999999523162842,2.700000047683716,-9.300000190734863,35.42477798461914,0,
 605652,-0.313232421875,-0.927001953125,0.041748046875,-1.1890244483947754,0.5182926654815674,0.09146341681480408,1.649999976158142,2.0999999046325684,-8.699999809265137,35.80815887451172,0,
 605662,-0.306640625,-0.921875,0.041259765625,-0.792682945728302,0.5182926654815674,-0.12195122241973877,2.4000000953674316,3.75,-9.449999809265137,35.76023483276367,0,
 605672,-0.3046875,-0.927978515625,0.041015625,-0.4268292784690857,0.396341472864151,0.15243902802467346,2.8499999046325684,2.0999999046325684,-10.649999618530273,35.664390563964844,0,
 605682,-0.303955078125,-0.92578125,0.042724609375,-0.792682945728302,0.396341472864151,0.0,2.8499999046325684,2.0999999046325684,-10.649999618530273,35.99985122680664,0,
 605752,-0.3056640625,-0.931396484375,0.037109375,0.21341463923454285,0.21341463923454285,0.3658536672592163,2.549999952316284,1.5,-9.300000190734863,35.80815887451172,0,
 605762,-0.307373046875,-0.93017578125,0.0458984375,0.030487805604934692,0.030487805604934692,0.396341472864151,4.349999904632568,3.299999952316284,-12.149999618530273,35.951927185058594,0,
 605772,-0.30859375,-0.92626953125,0.04541015625,0.030487805604934692,-0.12195122241973877,0.5487805008888245,4.349999904632568,3.299999952316284,-12.149999618530273,35.856082916259766,0,
 605782,-0.30712890625,-0.92724609375,0.044921875,0.0,0.18292683362960815,0.3048780560493469,1.649999976158142,2.549999952316284,-10.199999809265137,35.664390563964844,0,
 605792,-0.306884765625,-0.931884765625,0.04541015625,-0.15243902802467346,0.4268292784690857,0.24390244483947754,2.4000000953674316,2.8499999046325684,-9.149999618530273,35.664390563964844,0,
 605802,-0.309326171875,-0.927490234375,0.045654296875,-0.3048780560493469,0.060975611209869385,0.5182926654815674,2.4000000953674316,1.649999976158142,-9.449999809265137,35.99985122680664,0,
 605812,-0.309326171875,-0.932373046875,0.0419921875,-0.4573170840740204,0.3048780560493469,0.4268292784690857,1.2000000476837158,1.649999976158142,-9.149999618530273,35.951927185058594,0,
 605822,-0.309326171875,-0.925048828125,0.045166015625,-0.15243902802467346,0.030487805604934692,0.7012194991111755,1.2000000476837158,1.649999976158142,-9.149999618530273,35.80815887451172,0,
 605832,-0.3076171875,-0.927734375,0.046875,-0.3353658616542816,0.3353658616542816,0.7317073345184326,3.1500000953674316,2.0999999046325684,-9.899999618530273,35.80815887451172,0,
 605842,-0.3076171875,-0.928955078125,0.04296875,-0.7317073345184326,0.0,0.4573170840740204,2.25,0.30000001192092896,-9.0,35.856082916259766,0,
 605852,-0.310302734375,-0.926513671875,0.040771484375,-0.09146341681480408,0.18292683362960815,0.4268292784690857,0.8999999761581421,2.549999952316284,-9.449999809265137,35.856082916259766,0,
 605862,-0.307373046875,-0.930908203125,0.03955078125,-0.3048780560493469,0.3048780560493469,0.21341463923454285,3.5999999046325684,2.0999999046325684,-10.649999618530273,35.951927185058594,0,
 605872,-0.30419921875,-0.925048828125,0.04345703125,-0.3658536672592163,0.4878048896789551,0.3658536672592163,2.8499999046325684,2.549999952316284,-10.199999809265137,35.76023483276367,0,
 605882,-0.308349609375,-0.925537109375,0.0458984375,-0.8231707215309143,0.4878048896789551,0.4573170840740204,1.2000000476837158,1.350000023841858,-10.199999809265137,35.951927185058594,0,
 605892,-0.30517578125,-0.9208984375,0.045166015625,-0.7012194991111755,0.3048780560493469,0.24390244483947754,2.4000000953674316,2.549999952316284,-9.149999618530273,35.664390563964844,0,
 605902,-0.301025390625,-0.924560546875,0.0419921875,-1.0365853309631348,0.24390244483947754,0.27439025044441223,0.75,1.0499999523162842,-10.050000190734863,35.856082916259766,0,
 605912,-0.3056640625,-0.92822265625,0.0400390625,-0.5792682766914368,0.4878048896789551,-0.030487805604934692,0.75,1.0499999523162842,-10.050000190734863,35.664390563964844,0,
 605922,-0.307373046875,-0.9287109375,0.042724609375,-0.7621951103210449,0.24390244483947754,0.09146341681480408,1.649999976158142,2.8499999046325684,-9.449999809265137,35.99985122680664,0,
 605932,-0.305419921875,-0.929931640625,0.04296875,-0.8841463327407837,0.6707317233085632,0.4878048896789551,1.649999976158142,1.649999976158142,-7.949999809265137,35.664390563964844,0,
 605942,-0.306640625,-0.927001953125,0.0419921875,-0.9146341681480408,0.3658536672592163,0.4268292784690857,2.0999999046325684,1.649999976158142,-10.199999809265137,35.951927185058594,0,
 605952,-0.302490234375,-0.929931640625,0.04052734375,-0.5792682766914368,0.3048780560493469,0.3658536672592163,1.5,2.700000047683716,-8.550000190734863,35.99985122680664,0,
 605963,-0.302490234375,-0.927490234375,0.037841796875,-0.8536585569381714,0.4573170840740204,0.6097561120986938,1.5,2.700000047683716,-8.550000190734863,35.664390563964844,0,
 605973,-0.310302734375,-0.926513671875,0.036376953125,-0.3048780560493469,0.5182926654815674,0.5487805008888245,2.25,3.450000047683716,-10.050000190734863,36.04777145385742,0,
 605983,-0.302490234375,-0.92529296875,0.0400390625,-0.4573170840740204,0.4268292784690857,0.3658536672592163,3.299999952316284,2.700000047683716,-10.5,35.6164665222168,0,
 605993,-0.3046875,-0.924560546875,0.0400390625,-0.4878048896789551,0.3658536672592163,0.24390244483947754,0.30000001192092896,2.700000047683716,-10.050000190734863,35.951927185058594,0,
 606003,-0.305908203125,-0.928955078125,0.039794921875,-0.3353658616542816,0.18292683362960815,0.5487805008888245,0.30000001192092896,2.700000047683716,-10.050000190734863,35.951927185058594,0,
 606013,-0.3095703125,-0.923095703125,0.045654296875,-0.396341472864151,0.24390244483947754,0.24390244483947754,0.75,1.5,-9.0,35.856082916259766,0,
 606023,-0.30322265625,-0.92724609375,0.041015625,-0.9146341681480408,0.3658536672592163,0.3353658616542816,2.25,2.25,-9.0,35.951927185058594,0,
 606033,-0.304931640625,-0.92724609375,0.042236328125,-0.4268292784690857,0.4268292784690857,0.5182926654815674,1.2000000476837158,1.9500000476837158,-9.0,35.856082916259766,0,
 606043,-0.305908203125,-0.9306640625,0.042236328125,0.060975611209869385,0.3658536672592163,0.21341463923454285,1.2000000476837158,1.649999976158142,-10.199999809265137,35.856082916259766,0,
 606053,-0.30419921875,-0.92822265625,0.04541015625,-0.24390244483947754,0.15243902802467346,0.21341463923454285,1.2000000476837158,1.649999976158142,-10.199999809265137,35.76023483276367,0,
 606063,-0.30322265625,-0.928955078125,0.04443359375,-0.15243902802467346,0.4878048896789551,0.24390244483947754,1.649999976158142,1.649999976158142,-9.149999618530273,35.951927185058594,0,
 606073,-0.303955078125,-0.927001953125,0.041748046875,-0.4573170840740204,0.15243902802467346,0.24390244483947754,1.0499999523162842,2.700000047683716,-10.050000190734863,35.856082916259766,0,
 606083,-0.302001953125,-0.921875,0.040771484375,-0.5487805008888245,0.27439025044441223,0.24390244483947754,2.8499999046325684,2.0999999046325684,-9.899999618530273,35.76023483276367,0,
 606093,-0.3046875,-0.922607421875,0.04248046875,-0.3048780560493469,0.21341463923454285,0.3048780560493469,2.8499999046325684,2.0999999046325684,-9.899999618530273,35.80815887451172,0,
 606103,-0.3115234375,-0.924072265625,0.0458984375,-0.24390244483947754,0.4573170840740204,0.24390244483947754,2.8499999046325684,2.0999999046325684,-9.899999618530273,35.80815887451172,0,
 606113,-0.300537109375,-0.927001953125,0.0419921875,-0.5792682766914368,0.27439025044441223,0.24390244483947754,2.549999952316284,2.25,-9.0,35.664390563964844,0,
 606123,-0.300048828125,-0.93017578125,0.040283203125,-0.7012194991111755,0.7317073345184326,0.15243902802467346,2.25,1.0499999523162842,-9.0,35.856082916259766,0,
 606133,-0.30859375,-0.9296875,0.048583984375,-0.5487805008888245,0.09146341681480408,0.6097561120986938,2.25,1.0499999523162842,-9.0,35.6164665222168,0,
 606143,-0.308349609375,-0.930908203125,0.042724609375,-1.2195122241973877,0.3353658616542816,0.24390244483947754,2.25,1.0499999523162842,-9.0,35.80815887451172,0,
 606153,-0.30712890625,-0.927978515625,0.0400390625,-0.4878048896789551,0.4268292784690857,0.3353658616542816,2.25,1.5,-10.050000190734863,35.99985122680664,0,
 606163,-0.3076171875,-0.927734375,0.03955078125,-0.6707317233085632,0.4268292784690857,0.0,2.549999952316284,2.700000047683716,-11.25,35.76023483276367,0,
 606173,-0.303955078125,-0.929443359375,0.04443359375,-0.5792682766914368,0.4268292784690857,0.15243902802467346,1.649999976158142,1.649999976158142,-10.199999809265137,35.856082916259766,0,
 606183,-0.303955078125,-0.92822265625,0.04345703125,-0.7317073345184326,0.24390244483947754,0.09146341681480408,1.649999976158142,1.649999976158142,-10.199999809265137,35.6164665222168,0,
 606193,-0.305419921875,-0.9287109375,0.041259765625,-0.9146341681480408,0.3353658616542816,0.4268292784690857,1.649999976158142,1.649999976158142,-10.199999809265137,35.856082916259766,0,
 606203,-0.306640625,-0.927001953125,0.039306640625,-0.5487805008888245,0.6707317233085632,0.27439025044441223,1.0499999523162842,1.5,-9.75,35.856082916259766,0,
 606213,-0.301513671875,-0.931396484375,0.04052734375,-1.0670732259750366,0.3353658616542816,-0.030487805604934692,2.25,1.0499999523162842,-9.75,35.951927185058594,0,
 606223,-0.306640625,-0.936279296875,0.04150390625,-0.7317073345184326,0.3658536672592163,0.3658536672592163,1.0499999523162842,2.700000047683716,-10.050000190734863,35.664390563964844,0,
 606233,-0.309814453125,-0.926025390625,0.04052734375,-0.5792682766914368,0.3353658616542816,0.24390244483947754,1.0499999523162842,2.700000047683716,-10.050000190734863,35.52062225341797,0,
 606243,-0.305908203125,-0.926513671875,0.041748046875,-0.4268292784690857,0.24390244483947754,0.3048780560493469,2.4000000953674316,1.350000023841858,-9.899999618530273,35.99985122680664,0,
 606253,-0.30859375,-0.9306640625,0.041748046875,-0.4268292784690857,0.4573170840740204,0.5182926654815674,3.1500000953674316,2.8499999046325684,-9.149999618530273,35.856082916259766,0,
 606263,-0.303955078125,-0.921630859375,0.04296875,-0.3658536672592163,0.3048780560493469,0.4573170840740204,2.25,1.9500000476837158,-8.550000190734863,35.856082916259766,0,
 606273,-0.30322265625,-0.9326171875,0.0419921875,-0.24390244483947754,0.3048780560493469,0.3353658616542816,2.4000000953674316,1.649999976158142,-10.199999809265137,35.76023483276367,0,
 606283,-0.301025390625,-0.927978515625,0.044677734375,-0.4268292784690857,0.24390244483947754,0.4268292784690857,2.25,2.25,-8.550000190734863,35.6164665222168,0,
 606293,-0.30029296875,-0.926025390625,0.0380859375,-0.5182926654815674,0.060975611209869385,0.4268292784690857,0.8999999761581421,2.0999999046325684,-9.899999618530273,35.76023483276367,0,
 606303,-0.302978515625,-0.925537109375,0.03955078125,-0.12195122241973877,0.4268292784690857,0.4573170840740204,0.8999999761581421,2.549999952316284,-10.649999618530273,35.99985122680664,0,
 606313,-0.30419921875,-0.926025390625,0.043212890625,-0.3353658616542816,0.030487805604934692,0.3658536672592163,0.75,0.30000001192092896,-10.800000190734863,35.76023483276367,0,
 606323,-0.3046875,-0.92529296875,0.04052734375,-0.3658536672592163,0.24390244483947754,0.4268292784690857,0.75,0.30000001192092896,-10.800000190734863,35.856082916259766,0,
 606333,-0.312744140625,-0.92822265625,0.047607421875,-0.396341472864151,0.21341463923454285,0.060975611209869385,1.2000000476837158,2.549999952316284,-9.149999618530273,35.856082916259766,0,
 606343,-0.3056640625,-0.927001953125,0.043212890625,-0.3353658616542816,0.0,0.12195122241973877,1.7999999523162842,2.25,-9.300000190734863,35.856082916259766,0,
 606353,-0.305908203125,-0.9248046875,0.040771484375,-0.5792682766914368,0.396341472864151,-0.030487805604934692,1.0499999523162842,1.9500000476837158,-10.5,36.04777145385742,0,
 606363,-0.30322265625,-0.923583984375,0.04052734375,-0.7317073345184326,0.7317073345184326,0.4268292784690857,1.5,2.700000047683716,-10.050000190734863,35.951927185058594,0,
 606373,-0.309814453125,-0.9248046875,0.043212890625,-0.792682945728302,0.15243902802467346,0.3048780560493469,1.5,2.700000047683716,-10.050000190734863,35.80815887451172,0,
 606383,-0.30029296875,-0.930419921875,0.0439453125,-0.4573170840740204,0.24390244483947754,0.09146341681480408,2.25,3.1500000953674316,-8.550000190734863,35.99985122680664,0,
 606393,-0.309814453125,-0.92431640625,0.043701171875,-0.6097561120986938,0.21341463923454285,0.5182926654815674,1.5,2.25,-9.0,35.80815887451172,0,
 606403,-0.30517578125,-0.924560546875,0.044677734375,-0.09146341681480408,0.24390244483947754,0.6402438879013062,4.199999809265137,1.0499999523162842,-12.0,35.856082916259766,0,
 606413,-0.306884765625,-0.927734375,0.03857421875,-0.09146341681480408,0.3658536672592163,0.7621951103210449,2.25,2.25,-10.5,35.951927185058594,0,
 606423,-0.300048828125,-0.924072265625,0.03955078125,-0.4878048896789551,0.6097561120986938,0.4268292784690857,2.25,2.25,-10.5,35.856082916259766,0,
 606433,-0.302978515625,-0.927001953125,0.046630859375,-0.18292683362960815,0.4878048896789551,0.09146341681480408,1.0499999523162842,2.700000047683716,-9.300000190734863,35.856082916259766,0,
 606443,-0.309814453125,-0.92626953125,0.04052734375,-0.792682945728302,0.3658536672592163,0.4268292784690857,1.5,2.25,-8.550000190734863,35.99985122680664,0,
 606453,-0.302978515625,-0.9248046875,0.04443359375,-0.7012194991111755,0.3658536672592163,0.030487805604934692,2.549999952316284,0.30000001192092896,-10.050000190734863,35.856082916259766,0,
 606463,-0.29931640625,-0.92724609375,0.045654296875,-0.4878048896789551,0.3658536672592163,0.15243902802467346,2.549999952316284,0.30000001192092896,-10.050000190734863,35.856082916259766,0,
 606473,-0.30908203125,-0.93017578125,0.04443359375,-0.5792682766914368,0.5182926654815674,-0.030487805604934692,4.349999904632568,2.0999999046325684,-9.149999618530273,35.664390563964844,0,
 606483,-0.302978515625,-0.928466796875,0.03759765625,-0.4878048896789551,0.15243902802467346,0.4878048896789551,1.649999976158142,2.8499999046325684,-9.899999618530273,35.6164665222168,0,
 606493,-0.30029296875,-0.924072265625,0.04296875,-0.3353658616542816,0.6402438879013062,0.3353658616542816,1.649999976158142,3.299999952316284,-9.449999809265137,35.951927185058594,0,
 606503,-0.3076171875,-0.929931640625,0.046142578125,-0.3353658616542816,0.21341463923454285,0.3658536672592163,2.25,4.650000095367432,-10.050000190734863,35.99985122680664,0,
 606513,-0.30078125,-0.922607421875,0.04150390625,-0.4573170840740204,0.030487805604934692,0.4268292784690857,2.25,4.650000095367432,-10.050000190734863,35.951927185058594,0,
 606523,-0.3046875,-0.927001953125,0.041748046875,-0.3048780560493469,0.0,0.6097561120986938,1.5,1.5,-9.75,35.6164665222168,0,
 606533,-0.309326171875,-0.93017578125,0.0400390625,-0.21341463923454285,0.15243902802467346,0.21341463923454285,2.25,2.700000047683716,-10.050000190734863,35.99985122680664,0,
 606543,-0.308349609375,-0.928955078125,0.04052734375,-0.3658536672592163,0.3048780560493469,0.21341463923454285,1.2000000476837158,2.0999999046325684,-9.899999618530273,35.80815887451172,0,
 606553,-0.305908203125,-0.92822265625,0.040771484375,-0.3658536672592163,0.15243902802467346,0.12195122241973877,2.549999952316284,2.25,-9.300000190734863,35.856082916259766,0,
 606563,-0.30712890625,-0.929931640625,0.041015625,-0.6097561120986938,0.12195122241973877,0.4878048896789551,2.549999952316284,2.25,-9.300000190734863,36.04777145385742,0,
 606573,-0.3056640625,-0.93505859375,0.041015625,-0.9451219439506531,0.5792682766914368,0.4268292784690857,2.8499999046325684,3.299999952316284,-9.449999809265137,35.664390563964844,0,
 606583,-0.30224609375,-0.92529296875,0.043212890625,-0.6707317233085632,0.3353658616542816,-0.12195122241973877,3.75,1.0499999523162842,-10.5,35.99985122680664,0,
 606593,-0.302490234375,-0.928466796875,0.043701171875,-1.0365853309631348,0.6707317233085632,0.27439025044441223,0.8999999761581421,0.8999999761581421,-7.949999809265137,35.951927185058594,0,
 606603,-0.3076171875,-0.927490234375,0.04296875,-1.1280487775802612,0.3658536672592163,0.030487805604934692,0.8999999761581421,0.8999999761581421,-7.949999809265137,35.99985122680664,0,
 606613,-0.306884765625,-0.92626953125,0.041748046875,-0.4573170840740204,0.4878048896789551,0.21341463923454285,2.0999999046325684,0.8999999761581421,-11.699999809265137,35.664390563964844,0,
 606623,-0.303466796875,-0.93310546875,0.037841796875,-0.6097561120986938,0.27439025044441223,0.3048780560493469,2.0999999046325684,2.0999999046325684,-9.899999618530273,35.6164665222168,0,
 606633,-0.307373046875,-0.92431640625,0.041015625,-0.3658536672592163,0.4878048896789551,0.3048780560493469,1.0499999523162842,1.5,-11.550000190734863,35.99985122680664,0,
 606643,-0.301025390625,-0.921875,0.04296875,-0.4573170840740204,0.24390244483947754,0.396341472864151,2.549999952316284,1.5,-9.0,35.99985122680664,0,
 606654,-0.304931640625,-0.922607421875,0.038818359375,-0.6097561120986938,0.18292683362960815,0.24390244483947754,2.549999952316284,1.5,-9.0,35.856082916259766,0,
 606664,-0.3046875,-0.9267578125,0.04052734375,-0.24390244483947754,0.3353658616542816,0.4878048896789551,0.75,3.1500000953674316,-10.050000190734863,35.80815887451172,0,
 606674,-0.310546875,-0.929443359375,0.04052734375,-0.4268292784690857,0.3658536672592163,0.6707317233085632,1.5,2.25,-10.5,35.52062225341797,0,
 606684,-0.30322265625,-0.92822265625,0.042236328125,-0.24390244483947754,0.3048780560493469,0.21341463923454285,1.5,2.25,-9.0,35.951927185058594,0,
 606694,-0.31005859375,-0.92822265625,0.043212890625,-0.8536585569381714,0.3353658616542816,0.27439025044441223,2.0999999046325684,2.549999952316284,-9.899999618530273,35.76023483276367,0,
 606704,-0.311279296875,-0.926513671875,0.042724609375,-0.4878048896789551,0.18292683362960815,0.09146341681480408,2.0999999046325684,2.549999952316284,-9.899999618530273,35.951927185058594,0,
 606714,-0.30908203125,-0.930908203125,0.044677734375,-0.3353658616542816,0.21341463923454285,0.0,0.75,1.0499999523162842,-11.550000190734863,35.856082916259766,0,
 606724,-0.306640625,-0.931884765625,0.04296875,-0.3048780560493469,0.5182926654815674,0.09146341681480408,1.649999976158142,2.0999999046325684,-9.449999809265137,35.664390563964844,0,
 606734,-0.30615234375,-0.922119140625,0.042236328125,-0.3658536672592163,0.5182926654815674,0.3048780560493469,2.25,1.5,-10.050000190734863,35.99985122680664,0,
 606744,-0.30078125,-0.92333984375,0.037841796875,-0.4573170840740204,0.24390244483947754,0.3048780560493469,2.25,1.5,-10.050000190734863,35.856082916259766,0,
 606754,-0.305419921875,-0.926025390625,0.0380859375,-0.5487805008888245,-0.030487805604934692,0.18292683362960815,2.8499999046325684,0.8999999761581421,-9.449999809265137,35.99985122680664,0,
 606764,-0.302978515625,-0.9306640625,0.045166015625,-0.4573170840740204,0.15243902802467346,0.4268292784690857,1.7999999523162842,1.9500000476837158,-10.050000190734863,35.99985122680664,0,
 606774,-0.302978515625,-0.927978515625,0.03857421875,-0.24390244483947754,0.4573170840740204,0.12195122241973877,1.649999976158142,0.44999998807907104,-9.149999618530273,35.76023483276367,0,
 606784,-0.3056640625,-0.926025390625,0.0478515625,0.12195122241973877,0.4573170840740204,0.12195122241973877,1.7999999523162842,1.0499999523162842,-10.050000190734863,36.04777145385742,0,
 606794,-0.3076171875,-0.92822265625,0.046142578125,-0.27439025044441223,0.3353658616542816,0.4573170840740204,1.7999999523162842,1.0499999523162842,-10.050000190734863,36.143619537353516,0,
 606804,-0.306640625,-0.935791015625,0.04296875,-0.3048780560493469,0.21341463923454285,0.4268292784690857,3.299999952316284,1.5,-10.050000190734863,35.80815887451172,0,
 606814,-0.307373046875,-0.9267578125,0.043701171875,-0.4878048896789551,0.4573170840740204,0.27439025044441223,4.199999809265137,2.700000047683716,-12.75,35.951927185058594,0,
 606834,-0.3037109375,-0.931884765625,0.046142578125,-0.6402438879013062,0.4878048896789551,0.3353658616542816,3.1500000953674316,1.350000023841858,-9.149999618530273,35.664390563964844,0,
 606844,-0.302490234375,-0.931884765625,0.0380859375,-0.5182926654815674,0.5487805008888245,0.21341463923454285,3.1500000953674316,1.350000023841858,-9.149999618530273,35.856082916259766,0,
 606854,-0.31005859375,-0.930419921875,0.038818359375,-0.5792682766914368,0.396341472864151,0.18292683362960815,2.4000000953674316,2.549999952316284,-9.899999618530273,35.856082916259766,0,
 606864,-0.304931640625,-0.92578125,0.043701171875,-1.0670732259750366,0.27439025044441223,0.27439025044441223,3.1500000953674316,1.649999976158142,-10.649999618530273,35.951927185058594,0,
 606874,-0.307861328125,-0.928466796875,0.043212890625,-0.7317073345184326,0.5182926654815674,0.3658536672592163,1.7999999523162842,1.5,-9.75,35.856082916259766,0,
 606884,-0.30615234375,-0.935791015625,0.04052734375,-0.7317073345184326,0.4573170840740204,0.3353658616542816,1.7999999523162842,1.5,-9.75,35.856082916259766,0,
 606894,-0.310791015625,-0.928955078125,0.041748046875,-0.9451219439506531,0.4573170840740204,0.18292683362960815,1.5,3.1500000953674316,-9.75,35.856082916259766,0,
 606904,-0.30859375,-0.92724609375,0.039794921875,-0.9756097793579102,0.3658536672592163,0.3658536672592163,2.0999999046325684,1.350000023841858,-9.449999809265137,35.856082916259766,0,
 606914,-0.31005859375,-0.921142578125,0.039306640625,-0.7621951103210449,0.4573170840740204,0.4573170840740204,1.2000000476837158,4.5,-11.699999809265137,35.76023483276367,0,
 606924,-0.307373046875,-0.929931640625,0.04052734375,-0.7317073345184326,0.12195122241973877,0.6402438879013062,0.30000001192092896,1.9500000476837158,-9.0,35.76023483276367,0,
 606934,-0.30322265625,-0.924072265625,0.045654296875,-0.8536585569381714,0.12195122241973877,0.15243902802467346,0.30000001192092896,1.9500000476837158,-9.0,35.76023483276367,0,
 606944,-0.306884765625,-0.9306640625,0.041015625,-0.6097561120986938,0.12195122241973877,0.3353658616542816,3.1500000953674316,3.299999952316284,-9.899999618530273,35.856082916259766,0,
 606954,-0.310302734375,-0.92822265625,0.039306640625,-0.7317073345184326,0.0,0.4268292784690857,3.0,3.450000047683716,-9.0,35.951927185058594,0,
 606964,-0.302734375,-0.933837890625,0.0419921875,-0.6707317233085632,0.3658536672592163,0.21341463923454285,2.0999999046325684,1.649999976158142,-8.699999809265137,35.664390563964844,0,
 606974,-0.3056640625,-0.9248046875,0.040771484375,-0.3353658616542816,0.4878048896789551,0.27439025044441223,1.2000000476837158,2.549999952316284,-9.149999618530273,35.80815887451172,0,
 606984,-0.30517578125,-0.92431640625,0.038330078125,-0.4268292784690857,0.030487805604934692,0.27439025044441223,1.2000000476837158,2.549999952316284,-9.149999618530273,35.856082916259766,0,
 606994,-0.30419921875,-0.926513671875,0.03759765625,-0.5487805008888245,0.3353658616542816,0.18292683362960815,2.4000000953674316,2.8499999046325684,-9.899999618530273,35.99985122680664,0,
 607004,-0.307861328125,-0.927978515625,0.044189453125,-0.5182926654815674,0.060975611209869385,0.3658536672592163,3.1500000953674316,3.75,-10.199999809265137,35.99985122680664,0,
 607014,-0.301513671875,-0.926025390625,0.038818359375,-0.396341472864151,0.18292683362960815,0.24390244483947754,2.549999952316284,3.9000000953674316,-10.050000190734863,35.76023483276367,0,
 607024,-0.31005859375,-0.927978515625,0.038818359375,-0.27439025044441223,0.060975611209869385,0.27439025044441223,2.549999952316284,3.9000000953674316,-10.050000190734863,35.664390563964844,0,
 607034,-0.305419921875,-0.930908203125,0.04052734375,-0.12195122241973877,0.4878048896789551,0.27439025044441223,2.4000000953674316,0.8999999761581421,-9.149999618530273,35.80815887451172,0,
 607044,-0.303466796875,-0.9287109375,0.0390625,-0.27439025044441223,0.24390244483947754,0.24390244483947754,3.5999999046325684,2.8499999046325684,-9.899999618530273,35.856082916259766,0,
 607054,-0.303466796875,-0.925537109375,0.042236328125,-0.4573170840740204,0.3658536672592163,0.09146341681480408,3.299999952316284,2.25,-9.0,35.664390563964844,0,
 607064,-0.301513671875,-0.93017578125,0.043212890625,-0.27439025044441223,0.3658536672592163,0.3353658616542816,2.8499999046325684,2.549999952316284,-9.899999618530273,35.80815887451172,0,
 607074,-0.3056640625,-0.93505859375,0.046142578125,-0.7621951103210449,0.3658536672592163,0.5182926654815674,2.8499999046325684,2.549999952316284,-9.899999618530273,35.76023483276367,0,
 607084,-0.308349609375,-0.92529296875,0.037109375,-0.5792682766914368,0.060975611209869385,0.27439025044441223,3.299999952316284,2.25,-9.0,35.664390563964844,0,
 607094,-0.305419921875,-0.931640625,0.03955078125,-0.5792682766914368,0.3658536672592163,0.3353658616542816,2.25,1.0499999523162842,-8.550000190734863,36.04777145385742,0,
 607104,-0.303466796875,-0.92724609375,0.041748046875,-0.7621951103210449,0.09146341681480408,0.12195122241973877,2.4000000953674316,2.549999952316284,-9.449999809265137,35.80815887451172,0,
 607114,-0.30908203125,-0.922119140625,0.047119140625,-0.7317073345184326,0.3353658616542816,0.3353658616542816,0.30000001192092896,2.25,-10.050000190734863,35.42477798461914,0,
 607124,-0.30517578125,-0.9306640625,0.042236328125,-0.8231707215309143,0.4878048896789551,0.3048780560493469,0.30000001192092896,2.25,-10.050000190734863,35.76023483276367,0,
 607134,-0.302490234375,-0.9248046875,0.041259765625,-0.4573170840740204,0.4878048896789551,0.21341463923454285,1.5,2.700000047683716,-9.0,35.856082916259766,0,
 607144,-0.304931640625,-0.921875,0.0400390625,-0.3658536672592163,0.3353658616542816,0.15243902802467346,1.649999976158142,0.8999999761581421,-9.449999809265137,35.80815887451172,0,
 607154,-0.30224609375,-0.923583984375,0.040771484375,-0.09146341681480408,0.18292683362960815,0.09146341681480408,1.2000000476837158,2.0999999046325684,-11.699999809265137,36.1915397644043,0,
 607164,-0.310791015625,-0.923828125,0.038818359375,-0.4878048896789551,0.27439025044441223,0.0,1.2000000476837158,2.0999999046325684,-11.699999809265137,35.47269821166992,0,
 607174,-0.306640625,-0.92431640625,0.0400390625,-0.060975611209869385,0.3353658616542816,0.27439025044441223,3.5999999046325684,1.350000023841858,-8.699999809265137,35.664390563964844,0,
 607184,-0.305908203125,-0.92626953125,0.045654296875,-0.5182926654815674,0.3658536672592163,-0.12195122241973877,3.1500000953674316,2.549999952316284,-8.399999618530273,35.99985122680664,0,
 607194,-0.308349609375,-0.923828125,0.039306640625,-0.6402438879013062,0.18292683362960815,0.0,1.7999999523162842,3.1500000953674316,-9.75,35.856082916259766,0,
 607204,-0.300537109375,-0.92236328125,0.0400390625,-0.5487805008888245,0.21341463923454285,0.0,2.0999999046325684,1.649999976158142,-10.199999809265137,35.951927185058594,0,
 607214,-0.3056640625,-0.93310546875,0.040771484375,-0.7317073345184326,0.15243902802467346,0.060975611209869385,2.0999999046325684,1.649999976158142,-10.199999809265137,35.856082916259766,0,
 607224,-0.30615234375,-0.927978515625,0.041015625,-0.27439025044441223,0.24390244483947754,0.3353658616542816,1.5,2.25,-12.300000190734863,35.856082916259766,0,
 607234,-0.3056640625,-0.930419921875,0.0380859375,-0.15243902802467346,0.09146341681480408,0.21341463923454285,1.649999976158142,0.8999999761581421,-8.699999809265137,35.951927185058594,0,
 607244,-0.30859375,-0.927734375,0.038330078125,-0.3353658616542816,0.3353658616542816,0.060975611209869385,3.0,1.9500000476837158,-9.0,35.80815887451172,0,
 607254,-0.305419921875,-0.928466796875,0.0439453125,-0.3658536672592163,0.27439025044441223,0.12195122241973877,1.5,1.5,-10.050000190734863,35.99985122680664,0,
 607264,-0.304931640625,-0.931884765625,0.045654296875,-0.27439025044441223,0.3353658616542816,0.3048780560493469,1.5,1.5,-10.050000190734863,35.6164665222168,0,
 607274,-0.30615234375,-0.93115234375,0.043212890625,-0.15243902802467346,0.4268292784690857,0.6097561120986938,0.8999999761581421,0.44999998807907104,-11.399999618530273,35.80815887451172,0,
 607284,-0.303955078125,-0.923583984375,0.0478515625,-0.27439025044441223,0.4878048896789551,0.4878048896789551,2.8499999046325684,1.649999976158142,-8.399999618530273,35.856082916259766,0,
 607294,-0.314208984375,-0.925537109375,0.0390625,-0.18292683362960815,0.3353658616542816,0.4878048896789551,3.0,1.0499999523162842,-9.75,36.04777145385742,0,
 607304,-0.302490234375,-0.9267578125,0.0390625,-0.4573170840740204,0.24390244483947754,0.3658536672592163,3.0,1.0499999523162842,-9.75,35.76023483276367,0,
 607314,-0.306396484375,-0.92626953125,0.0439453125,-0.3353658616542816,0.18292683362960815,0.15243902802467346,2.8499999046325684,1.350000023841858,-10.649999618530273,35.951927185058594,0,
 607324,-0.3056640625,-0.927734375,0.046875,-0.12195122241973877,0.12195122241973877,-0.24390244483947754,2.549999952316284,2.700000047683716,-12.0,35.80815887451172,0,
 607334,-0.309326171875,-0.92236328125,0.042724609375,-0.27439025044441223,0.21341463923454285,0.27439025044441223,2.4000000953674316,2.549999952316284,-9.899999618530273,35.856082916259766,0,
 607344,-0.30810546875,-0.931640625,0.046630859375,-0.396341472864151,0.3353658616542816,-0.27439025044441223,2.4000000953674316,1.649999976158142,-8.699999809265137,35.951927185058594,0,
 607354,-0.306640625,-0.92529296875,0.047607421875,-0.396341472864151,0.15243902802467346,-0.060975611209869385,2.4000000953674316,1.649999976158142,-8.699999809265137,35.951927185058594,0,
 607364,-0.306640625,-0.927490234375,0.0380859375,-0.27439025044441223,0.5487805008888245,0.09146341681480408,1.5,2.700000047683716,-8.25,35.856082916259766,0,
 607374,-0.3017578125,-0.92529296875,0.041259765625,-0.24390244483947754,0.3353658616542816,0.4573170840740204,3.5999999046325684,1.649999976158142,-9.449999809265137,35.951927185058594,0,
 607384,-0.3037109375,-0.933837890625,0.040283203125,-0.4268292784690857,0.4268292784690857,0.24390244483947754,3.299999952316284,1.5,-10.5,35.951927185058594,0,
 607394,-0.305908203125,-0.928955078125,0.0439453125,-0.8841463327407837,0.27439025044441223,0.12195122241973877,2.8499999046325684,2.0999999046325684,-9.899999618530273,35.80815887451172,0,
 607404,-0.30615234375,-0.929931640625,0.04052734375,-0.7012194991111755,0.3048780560493469,0.3048780560493469,2.8499999046325684,2.0999999046325684,-9.899999618530273,35.664390563964844,0,
 607414,-0.307861328125,-0.926025390625,0.037109375,-0.6707317233085632,0.5182926654815674,0.18292683362960815,2.549999952316284,1.5,-10.5,35.80815887451172,0,
 607424,-0.308349609375,-0.925048828125,0.0400390625,-0.5487805008888245,0.3658536672592163,0.5487805008888245,2.25,1.5,-9.75,35.856082916259766,0,
 607434,-0.29931640625,-0.9296875,0.044189453125,-0.7621951103210449,0.21341463923454285,0.5487805008888245,2.0999999046325684,1.649999976158142,-7.650000095367432,35.664390563964844,0,
 607445,-0.29931640625,-0.925537109375,0.045166015625,-0.8841463327407837,0.18292683362960815,0.18292683362960815,2.0999999046325684,1.649999976158142,-7.650000095367432,35.99985122680664,0,
 607455,-0.3037109375,-0.927978515625,0.0419921875,-1.097561001777649,0.3048780560493469,0.3658536672592163,1.7999999523162842,1.9500000476837158,-9.75,35.76023483276367,0,
 607465,-0.30517578125,-0.929443359375,0.04345703125,-0.8231707215309143,0.4268292784690857,0.396341472864151,1.5,1.5,-8.550000190734863,35.80815887451172,0,
 607475,-0.3037109375,-0.928955078125,0.03759765625,-0.6707317233085632,0.18292683362960815,0.24390244483947754,1.5,2.25,-10.050000190734863,35.856082916259766,0,
 607485,-0.302978515625,-0.9296875,0.0419921875,-0.7317073345184326,0.3353658616542816,0.3658536672592163,2.4000000953674316,2.549999952316284,-9.149999618530273,35.99985122680664,0,
 607495,-0.301513671875,-0.9345703125,0.0458984375,-1.0365853309631348,0.4573170840740204,0.4573170840740204,2.4000000953674316,2.549999952316284,-9.149999618530273,35.856082916259766,0,
 607505,-0.302734375,-0.931884765625,0.03955078125,-0.8536585569381714,0.4878048896789551,0.15243902802467346,3.0,1.9500000476837158,-9.75,35.76023483276367,0,
 607515,-0.306884765625,-0.931396484375,0.0400390625,-0.9756097793579102,0.5792682766914368,0.15243902802467346,2.8499999046325684,3.299999952316284,-8.699999809265137,35.664390563964844,0,
 607525,-0.30419921875,-0.927490234375,0.04541015625,-0.7317073345184326,0.5792682766914368,-0.030487805604934692,2.549999952316284,1.0499999523162842,-9.0,35.664390563964844,0,
 607535,-0.30126953125,-0.927734375,0.038330078125,-0.3048780560493469,0.3658536672592163,0.27439025044441223,3.0,0.75,-13.5,35.80815887451172,0,
 607545,-0.306884765625,-0.92236328125,0.04443359375,-0.5182926654815674,0.396341472864151,0.4268292784690857,3.0,0.75,-13.5,35.80815887451172,0,
 607555,-0.3056640625,-0.9248046875,0.03564453125,-0.8841463327407837,0.5182926654815674,0.3048780560493469,2.549999952316284,2.700000047683716,-10.050000190734863,35.6164665222168,0,
 607565,-0.299560546875,-0.927734375,0.04443359375,-0.4878048896789551,0.3048780560493469,0.3658536672592163,1.649999976158142,1.649999976158142,-8.699999809265137,35.856082916259766,0,
 607575,-0.305908203125,-0.926025390625,0.0439453125,-0.5792682766914368,0.5182926654815674,0.27439025044441223,0.8999999761581421,1.649999976158142,-9.449999809265137,35.856082916259766,0,
 607585,-0.311767578125,-0.927734375,0.042724609375,-0.21341463923454285,0.21341463923454285,0.0,0.8999999761581421,1.649999976158142,-9.449999809265137,35.76023483276367,0,
 607595,-0.302490234375,-0.9248046875,0.044189453125,-0.5487805008888245,0.3048780560493469,0.24390244483947754,1.5,2.700000047683716,-10.050000190734863,35.80815887451172,0,
 607605,-0.3037109375,-0.923583984375,0.039794921875,-0.4268292784690857,0.030487805604934692,0.3353658616542816,3.1500000953674316,2.8499999046325684,-8.399999618530273,35.664390563964844,0,
 607615,-0.30419921875,-0.927490234375,0.03955078125,-0.5792682766914368,0.15243902802467346,0.3353658616542816,2.0999999046325684,2.8499999046325684,-9.449999809265137,35.951927185058594,0,
 607625,-0.306884765625,-0.92529296875,0.037353515625,-0.3353658616542816,0.27439025044441223,0.4268292784690857,1.2000000476837158,1.350000023841858,-9.899999618530273,36.28738784790039,0,
 607635,-0.303466796875,-0.928955078125,0.04296875,-0.12195122241973877,0.12195122241973877,0.21341463923454285,1.2000000476837158,1.350000023841858,-9.899999618530273,36.143619537353516,0,
 607645,-0.3037109375,-0.92822265625,0.047119140625,-0.15243902802467346,0.15243902802467346,0.27439025044441223,2.0999999046325684,2.0999999046325684,-8.399999618530273,35.856082916259766,0,
 607655,-0.308837890625,-0.9287109375,0.03759765625,-0.3048780560493469,0.030487805604934692,0.27439025044441223,3.0,1.5,-9.300000190734863,35.42477798461914,0,
 607665,-0.306884765625,-0.9296875,0.043701171875,-0.4268292784690857,0.18292683362960815,0.27439025044441223,2.549999952316284,1.9500000476837158,-10.5,35.76023483276367,0,
 607675,-0.30419921875,-0.928955078125,0.044189453125,-0.396341472864151,0.3048780560493469,0.3048780560493469,3.299999952316284,1.9500000476837158,-9.75,35.99985122680664,0,
 607685,-0.303955078125,-0.927978515625,0.04248046875,-0.18292683362960815,0.24390244483947754,0.396341472864151,3.299999952316284,1.9500000476837158,-9.75,35.42477798461914,0,
 607695,-0.3115234375,-0.923583984375,0.041748046875,-0.3353658616542816,0.15243902802467346,0.09146341681480408,2.25,1.9500000476837158,-9.0,35.856082916259766,0,
 607705,-0.3076171875,-0.925048828125,0.040771484375,0.0,0.396341472864151,0.3658536672592163,2.0999999046325684,3.299999952316284,-10.649999618530273,35.76023483276367,0,
