timestamp,accl_x,accl_y,accl_z,gyro_x,gyro_y,gyro_z,mag_x,mag_y,mag_z,temp,emg,
 1182880,-0.274658203125,-0.943359375,-0.028076171875,-0.18292683362960815,0.27439025044441223,0.6707317233085632,-0.15000000596046448,1.649999976158142,-9.149999618530273,36.814537048339844,0,
 1182890,-0.274169921875,-0.939453125,-0.025390625,-0.21341463923454285,0.15243902802467346,0.5182926654815674,-0.15000000596046448,1.649999976158142,-9.149999618530273,37.10207748413086,0,
 1182901,-0.27490234375,-0.935546875,-0.02880859375,-0.5792682766914368,0.4573170840740204,-0.030487805604934692,0.0,1.0499999523162842,-7.050000190734863,37.19792175292969,0,
 1182911,-0.275146484375,-0.9404296875,-0.02685546875,-0.8536585569381714,0.7621951103210449,-0.27439025044441223,0.30000001192092896,1.9500000476837158,-9.0,36.86246109008789,0,
 1182921,-0.271728515625,-0.941650390625,-0.0302734375,-1.0365853309631348,0.5182926654815674,-0.9756097793579102,2.549999952316284,2.25,-6.0,37.245845794677734,0,
 1182931,-0.2685546875,-0.9404296875,-0.02880859375,-1.1585365533828735,0.5487805008888245,-0.3048780560493469,1.0499999523162842,0.75,-9.0,37.006229400634766,0,
 1182941,-0.2763671875,-0.94189453125,-0.036865234375,-1.2804877758026123,0.5487805008888245,-0.060975611209869385,1.0499999523162842,0.75,-9.0,37.10207748413086,0,
 1182951,-0.27099609375,-0.938720703125,-0.032470703125,-0.9451219439506531,0.6097561120986938,0.060975611209869385,0.15000000596046448,2.8499999046325684,-7.650000095367432,37.10207748413086,0,
 1182961,-0.26416015625,-0.9404296875,-0.041015625,-0.9451219439506531,0.3658536672592163,0.3353658616542816,0.0,1.5,-8.25,37.006229400634766,0,
 1182971,-0.27490234375,-0.93505859375,-0.029541015625,-0.3658536672592163,0.3353658616542816,0.4573170840740204,1.7999999523162842,1.5,-8.25,36.86246109008789,0,
 1182981,-0.27392578125,-0.937744140625,-0.0263671875,-0.09146341681480408,0.12195122241973877,0.4878048896789551,0.75,1.9500000476837158,-6.300000190734863,37.006229400634766,0,
 1182991,-0.274658203125,-0.93603515625,-0.024169921875,-0.12195122241973877,0.3658536672592163,0.7621951103210449,0.75,1.9500000476837158,-6.300000190734863,36.814537048339844,0,
 1183001,-0.276123046875,-0.9443359375,-0.024658203125,-0.7621951103210449,0.18292683362960815,0.3658536672592163,0.75,2.25,-7.5,37.245845794677734,0,
 1183011,-0.275634765625,-0.93701171875,-0.020263671875,-0.5792682766914368,0.5182926654815674,0.3353658616542816,1.5,0.30000001192092896,-7.800000190734863,36.91038513183594,0,
 1183021,-0.266845703125,-0.934814453125,-0.02734375,-0.7317073345184326,0.3658536672592163,0.27439025044441223,0.44999998807907104,0.8999999761581421,-8.699999809265137,37.006229400634766,0,
 1183031,-0.268310546875,-0.938232421875,-0.034423828125,-0.4878048896789551,0.6402438879013062,0.15243902802467346,0.44999998807907104,0.8999999761581421,-8.699999809265137,36.91038513183594,0,
 1183041,-0.269775390625,-0.935546875,-0.02685546875,-0.6402438879013062,0.3658536672592163,0.3048780560493469,-0.30000001192092896,2.25,-7.800000190734863,37.05415344238281,0,
 1183051,-0.2783203125,-0.935791015625,-0.026123046875,-0.24390244483947754,0.396341472864151,0.0,1.0499999523162842,1.9500000476837158,-7.800000190734863,37.006229400634766,0,
 1183061,-0.27001953125,-0.941650390625,-0.03076171875,-0.6402438879013062,0.21341463923454285,0.24390244483947754,1.7999999523162842,0.75,-7.050000190734863,36.86246109008789,0,
 1183071,-0.27685546875,-0.935302734375,-0.031005859375,-0.5792682766914368,-0.060975611209869385,0.18292683362960815,0.30000001192092896,1.0499999523162842,-7.800000190734863,37.006229400634766,0,
 1183081,-0.2744140625,-0.934326171875,-0.032470703125,-0.15243902802467346,0.12195122241973877,0.060975611209869385,0.30000001192092896,1.0499999523162842,-7.800000190734863,36.718692779541016,0,
 1183091,-0.27392578125,-0.938232421875,-0.024169921875,-0.18292683362960815,0.24390244483947754,0.030487805604934692,0.75,0.75,-8.550000190734863,37.006229400634766,0,
 1183101,-0.272705078125,-0.93798828125,-0.02978515625,-0.6097561120986938,-0.030487805604934692,0.4268292784690857,1.5,1.5,-8.550000190734863,37.05415344238281,0,
 1183111,-0.27685546875,-0.937744140625,-0.028564453125,0.030487805604934692,0.4573170840740204,0.12195122241973877,1.2000000476837158,0.8999999761581421,-7.650000095367432,37.05415344238281,0,
 1183121,-0.27294921875,-0.9404296875,-0.028076171875,-0.21341463923454285,0.4268292784690857,0.5182926654815674,1.2000000476837158,0.8999999761581421,-7.650000095367432,36.814537048339844,0,
 1183131,-0.271240234375,-0.93505859375,-0.02783203125,-0.3353658616542816,0.3353658616542816,0.27439025044441223,0.75,0.75,-6.0,37.006229400634766,0,
 1183141,-0.27001953125,-0.944091796875,-0.029541015625,-0.09146341681480408,0.3658536672592163,0.5182926654815674,0.15000000596046448,1.649999976158142,-7.949999809265137,37.006229400634766,0,
 1183151,-0.275146484375,-0.942626953125,-0.030029296875,-0.18292683362960815,0.4268292784690857,0.3658536672592163,1.5,1.9500000476837158,-9.300000190734863,37.006229400634766,0,
 1183161,-0.2724609375,-0.94140625,-0.03076171875,-0.18292683362960815,0.3353658616542816,0.6097561120986938,-1.0499999523162842,0.75,-7.5,37.10207748413086,0,
 1183171,-0.278076171875,-0.9423828125,-0.025634765625,-0.3048780560493469,0.396341472864151,0.4268292784690857,-1.0499999523162842,0.75,-7.5,36.718692779541016,0,
 1183181,-0.277587890625,-0.9453125,-0.026611328125,-0.5182926654815674,0.15243902802467346,0.15243902802467346,1.0499999523162842,1.5,-7.5,36.91038513183594,0,
 1183191,-0.278076171875,-0.946044921875,-0.033203125,-0.15243902802467346,0.27439025044441223,0.060975611209869385,1.2000000476837158,2.8499999046325684,-8.399999618530273,37.05415344238281,0,
 1183201,-0.267333984375,-0.9404296875,-0.030029296875,-0.6402438879013062,0.6097561120986938,-0.4268292784690857,1.649999976158142,1.649999976158142,-9.899999618530273,36.86246109008789,0,
 1183211,-0.2705078125,-0.93798828125,-0.028076171875,-0.5487805008888245,0.3658536672592163,0.09146341681480408,1.649999976158142,1.649999976158142,-9.899999618530273,37.19792175292969,0,
 1183221,-0.2705078125,-0.941162109375,-0.027587890625,-0.5792682766914368,0.396341472864151,0.6097561120986938,0.8999999761581421,4.050000190734863,-9.449999809265137,36.814537048339844,0,
 1183231,-0.27294921875,-0.94189453125,-0.033447265625,0.21341463923454285,0.4878048896789551,0.5792682766914368,-0.15000000596046448,2.8499999046325684,-7.199999809265137,36.91038513183594,0,
 1183241,-0.27197265625,-0.9443359375,-0.029052734375,-0.5792682766914368,0.21341463923454285,0.0,0.15000000596046448,1.649999976158142,-8.699999809265137,37.10207748413086,0,
 1183251,-0.27490234375,-0.93994140625,-0.033935546875,-0.060975611209869385,0.24390244483947754,0.24390244483947754,-0.30000001192092896,1.0499999523162842,-8.25,37.006229400634766,0,
 1183261,-0.272216796875,-0.941162109375,-0.02685546875,-0.24390244483947754,0.3048780560493469,0.4268292784690857,-0.30000001192092896,1.0499999523162842,-8.25,37.05415344238281,0,
 1183271,-0.271484375,-0.94384765625,-0.028076171875,-0.18292683362960815,0.3048780560493469,0.12195122241973877,2.0999999046325684,0.8999999761581421,-8.699999809265137,36.86246109008789,0,
 1183281,-0.2783203125,-0.9404296875,-0.024658203125,-0.15243902802467346,0.3048780560493469,0.0,1.649999976158142,1.649999976158142,-7.199999809265137,36.86246109008789,0,
 1183291,-0.2705078125,-0.942138671875,-0.03125,-0.3353658616542816,0.24390244483947754,-0.060975611209869385,0.44999998807907104,2.8499999046325684,-8.399999618530273,36.814537048339844,0,
 1183301,-0.2724609375,-0.94091796875,-0.02587890625,-0.3353658616542816,0.3048780560493469,-0.396341472864151,0.44999998807907104,2.8499999046325684,-8.399999618530273,37.006229400634766,0,
 1183311,-0.275146484375,-0.944091796875,-0.030517578125,-0.5487805008888245,0.7012194991111755,0.3353658616542816,1.2000000476837158,2.549999952316284,-8.699999809265137,36.91038513183594,0,
 1183321,-0.271240234375,-0.94091796875,-0.03466796875,-0.4878048896789551,0.396341472864151,-0.09146341681480408,0.0,3.1500000953674316,-8.25,36.91038513183594,0,
 1183331,-0.273681640625,-0.936279296875,-0.026611328125,-0.3658536672592163,0.396341472864151,0.27439025044441223,2.0999999046325684,1.649999976158142,-7.199999809265137,37.006229400634766,0,
 1183341,-0.27099609375,-0.937255859375,-0.02490234375,-0.3658536672592163,0.24390244483947754,0.030487805604934692,1.2000000476837158,2.0999999046325684,-7.199999809265137,36.91038513183594,0,
 1183351,-0.2705078125,-0.93896484375,-0.02734375,-0.3658536672592163,0.12195122241973877,0.3353658616542816,1.2000000476837158,2.0999999046325684,-7.199999809265137,37.10207748413086,0,
 1183361,-0.276611328125,-0.943603515625,-0.03173828125,-0.6402438879013062,0.4573170840740204,0.21341463923454285,2.0999999046325684,1.350000023841858,-7.199999809265137,37.10207748413086,0,
 1183371,-0.272705078125,-0.938232421875,-0.030517578125,-0.4878048896789551,0.4878048896789551,0.5487805008888245,0.0,2.25,-6.0,36.91038513183594,0,
 1183381,-0.26806640625,-0.937744140625,-0.027587890625,-0.7012194991111755,0.6097561120986938,0.27439025044441223,-0.75,1.5,-8.25,37.006229400634766,0,
 1183391,-0.269287109375,-0.940185546875,-0.03125,-0.9451219439506531,0.0,0.3658536672592163,-0.75,1.5,-8.25,36.86246109008789,0,
 1183401,-0.27001953125,-0.94287109375,-0.03466796875,-0.8231707215309143,0.3048780560493469,0.4268292784690857,1.7999999523162842,1.9500000476837158,-7.800000190734863,37.006229400634766,0,
 1183411,-0.269775390625,-0.944580078125,-0.027587890625,-0.7621951103210449,0.18292683362960815,0.3658536672592163,0.0,1.5,-8.25,37.006229400634766,0,
 1183421,-0.2705078125,-0.9345703125,-0.03076171875,-0.4268292784690857,0.3048780560493469,0.4573170840740204,0.44999998807907104,1.350000023841858,-8.399999618530273,36.91038513183594,0,
 1183431,-0.269775390625,-0.93994140625,-0.03466796875,-0.7317073345184326,0.3658536672592163,-0.030487805604934692,-0.75,0.75,-9.300000190734863,36.814537048339844,0,
 1183441,-0.27490234375,-0.9375,-0.026611328125,-0.5182926654815674,0.030487805604934692,0.0,-0.75,0.75,-9.300000190734863,37.006229400634766,0,
 1183451,-0.266357421875,-0.943603515625,-0.026611328125,-0.792682945728302,0.27439025044441223,0.0,0.30000001192092896,1.5,-8.25,37.006229400634766,0,
 1183461,-0.270263671875,-0.9404296875,-0.033935546875,-0.8231707215309143,0.21341463923454285,0.3048780560493469,-0.15000000596046448,0.8999999761581421,-7.949999809265137,37.05415344238281,0,
 1183471,-0.271484375,-0.938720703125,-0.032958984375,-0.4573170840740204,0.6097561120986938,0.3353658616542816,1.5,1.9500000476837158,-9.300000190734863,36.91038513183594,0,
 1183481,-0.275390625,-0.941162109375,-0.030029296875,-0.15243902802467346,0.3048780560493469,0.27439025044441223,0.75,1.0499999523162842,-8.550000190734863,37.006229400634766,0,
 1183491,-0.2705078125,-0.935791015625,-0.03515625,-0.5487805008888245,0.3353658616542816,0.7012194991111755,1.2000000476837158,0.44999998807907104,-9.149999618530273,37.05415344238281,0,
 1183501,-0.275390625,-0.940673828125,-0.03271484375,-0.9146341681480408,0.3353658616542816,0.9451219439506531,0.75,1.9500000476837158,-7.800000190734863,37.006229400634766,0,
 1183511,-0.2734375,-0.938720703125,-0.030029296875,-0.18292683362960815,0.18292683362960815,0.6097561120986938,0.75,0.75,-8.25,37.006229400634766,0,
 1183521,-0.271728515625,-0.93310546875,-0.034912109375,0.27439025044441223,0.0,0.6707317233085632,-0.15000000596046448,0.15000000596046448,-7.949999809265137,36.814537048339844,0,
 1183531,-0.28271484375,-0.9423828125,-0.034912109375,-0.15243902802467346,0.09146341681480408,0.5792682766914368,-0.15000000596046448,0.15000000596046448,-7.949999809265137,37.245845794677734,0,
 1183541,-0.27392578125,-0.9375,-0.0302734375,-0.09146341681480408,0.24390244483947754,-0.09146341681480408,0.15000000596046448,2.0999999046325684,-7.650000095367432,36.814537048339844,0,
 1183551,-0.27734375,-0.940673828125,-0.02880859375,-0.09146341681480408,0.3658536672592163,-0.4268292784690857,1.2000000476837158,1.649999976158142,-7.949999809265137,37.19792175292969,0,
 1183561,-0.2744140625,-0.937744140625,-0.027587890625,-0.3353658616542816,0.7621951103210449,-0.7317073345184326,0.75,0.75,-7.5,36.91038513183594,0,
 1183571,-0.280029296875,-0.94091796875,-0.03076171875,-0.7317073345184326,0.3658536672592163,-1.0060975551605225,0.30000001192092896,1.0499999523162842,-7.5,37.05415344238281,0,
 1183581,-0.26806640625,-0.938232421875,-0.02490234375,-0.9146341681480408,0.7621951103210449,-0.5487805008888245,0.30000001192092896,1.0499999523162842,-7.5,36.91038513183594,0,
 1183591,-0.265869140625,-0.937744140625,-0.03173828125,-0.4573170840740204,0.3353658616542816,-0.060975611209869385,0.44999998807907104,2.8499999046325684,-7.650000095367432,37.10207748413086,0,
 1183602,-0.266357421875,-0.943603515625,-0.02783203125,-0.5792682766914368,0.4573170840740204,0.3353658616542816,-0.30000001192092896,0.75,-8.550000190734863,36.86246109008789,0,
 1183612,-0.26806640625,-0.94384765625,-0.034423828125,-0.18292683362960815,-0.12195122241973877,0.9146341681480408,-0.15000000596046448,3.75,-6.150000095367432,36.57492446899414,0,
 1183622,-0.27490234375,-0.936279296875,-0.029052734375,-0.060975611209869385,0.030487805604934692,0.792682945728302,-0.15000000596046448,3.75,-6.150000095367432,37.05415344238281,0,
 1183632,-0.2724609375,-0.9384765625,-0.03173828125,0.09146341681480408,0.12195122241973877,0.7621951103210449,1.2000000476837158,3.75,-8.399999618530273,37.10207748413086,0,
 1183642,-0.270263671875,-0.939453125,-0.02392578125,-0.18292683362960815,-0.030487805604934692,0.18292683362960815,0.75,2.700000047683716,-7.050000190734863,37.05415344238281,0,
 1183652,-0.2724609375,-0.947265625,-0.023193359375,-0.6707317233085632,0.4573170840740204,0.27439025044441223,0.15000000596046448,1.350000023841858,-7.949999809265137,37.19792175292969,0,
 1183662,-0.27490234375,-0.93994140625,-0.022705078125,-1.1280487775802612,0.6402438879013062,0.09146341681480408,-0.30000001192092896,1.0499999523162842,-6.75,36.86246109008789,0,
 1183672,-0.2734375,-0.94580078125,-0.02099609375,-1.5243902206420898,0.6097561120986938,-0.24390244483947754,-0.30000001192092896,1.0499999523162842,-6.75,37.006229400634766,0,
 1183682,-0.273193359375,-0.93310546875,-0.026123046875,-1.25,0.7621951103210449,-0.21341463923454285,-0.15000000596046448,0.8999999761581421,-6.900000095367432,37.006229400634766,0,
 1183692,-0.2744140625,-0.93115234375,-0.0263671875,-1.3719512224197388,0.5792682766914368,-0.4878048896789551,0.15000000596046448,2.549999952316284,-6.150000095367432,37.006229400634766,0,
 1183702,-0.27001953125,-0.934814453125,-0.026611328125,-1.0670732259750366,0.396341472864151,0.18292683362960815,1.5,1.0499999523162842,-7.050000190734863,37.05415344238281,0,
 1183712,-0.27587890625,-0.9443359375,-0.03564453125,-0.8231707215309143,0.4268292784690857,0.3048780560493469,1.5,1.0499999523162842,-7.050000190734863,36.86246109008789,0,
 1183722,-0.269775390625,-0.937744140625,-0.032958984375,-0.8231707215309143,0.21341463923454285,0.6707317233085632,0.44999998807907104,2.0999999046325684,-6.900000095367432,37.006229400634766,0,
 1183732,-0.26611328125,-0.938720703125,-0.031494140625,-0.18292683362960815,0.3658536672592163,0.9756097793579102,1.0499999523162842,1.9500000476837158,-9.300000190734863,37.006229400634766,0,
 1183742,-0.270751953125,-0.93896484375,-0.030517578125,-0.21341463923454285,-0.030487805604934692,0.8231707215309143,0.30000001192092896,1.0499999523162842,-7.5,37.245845794677734,0,
 1183752,-0.275390625,-0.9384765625,-0.02978515625,0.030487805604934692,0.09146341681480408,0.792682945728302,1.2000000476837158,0.15000000596046448,-7.650000095367432,37.006229400634766,0,
 1183762,-0.27783203125,-0.94189453125,-0.029296875,-0.15243902802467346,0.24390244483947754,0.7012194991111755,1.2000000476837158,0.15000000596046448,-7.650000095367432,36.814537048339844,0,
 1183772,-0.27587890625,-0.94580078125,-0.02783203125,-0.3353658616542816,0.15243902802467346,0.6097561120986938,1.2000000476837158,1.649999976158142,-7.949999809265137,36.91038513183594,0,
 1183782,-0.27294921875,-0.93701171875,-0.029541015625,-0.4878048896789551,0.18292683362960815,0.21341463923454285,-0.44999998807907104,0.8999999761581421,-7.949999809265137,37.006229400634766,0,
 1183792,-0.27734375,-0.94091796875,-0.026123046875,-0.4268292784690857,0.5487805008888245,-0.24390244483947754,1.2000000476837158,0.8999999761581421,-7.949999809265137,37.006229400634766,0,
 1183802,-0.266845703125,-0.9326171875,-0.021484375,-0.4573170840740204,0.09146341681480408,-0.4573170840740204,1.2000000476837158,0.8999999761581421,-7.949999809265137,37.006229400634766,0,
 1183812,-0.272705078125,-0.942138671875,-0.023193359375,-0.5182926654815674,0.18292683362960815,-0.4268292784690857,1.7999999523162842,2.25,-7.800000190734863,37.006229400634766,0,
 1183822,-0.271484375,-0.941650390625,-0.02978515625,-0.6097561120986938,0.5792682766914368,0.060975611209869385,0.0,1.9500000476837158,-7.5,37.006229400634766,0,
 1183832,-0.271484375,-0.942138671875,-0.0322265625,-0.5182926654815674,0.3353658616542816,0.27439025044441223,0.44999998807907104,1.649999976158142,-6.900000095367432,37.10207748413086,0,
 1183842,-0.273193359375,-0.94287109375,-0.033203125,-0.060975611209869385,0.09146341681480408,0.5487805008888245,0.30000001192092896,0.30000001192092896,-9.75,37.05415344238281,0,
 1183852,-0.270263671875,-0.936767578125,-0.030517578125,-0.3658536672592163,0.060975611209869385,0.4878048896789551,0.30000001192092896,0.30000001192092896,-9.75,37.05415344238281,0,
 1183862,-0.269287109375,-0.93505859375,-0.025390625,0.0,0.18292683362960815,0.3658536672592163,-0.30000001192092896,0.75,-7.5,36.86246109008789,0,
 1183872,-0.275146484375,-0.94482421875,-0.03271484375,-0.18292683362960815,-0.09146341681480408,0.7317073345184326,0.8999999761581421,1.350000023841858,-6.449999809265137,37.006229400634766,0,
 1183882,-0.274169921875,-0.94140625,-0.03125,-0.3353658616542816,0.4573170840740204,0.8841463327407837,-0.30000001192092896,1.9500000476837158,-9.0,37.006229400634766,0,
 1183892,-0.274169921875,-0.941650390625,-0.030029296875,-0.4268292784690857,0.15243902802467346,0.4268292784690857,0.15000000596046448,1.649999976158142,-6.449999809265137,37.006229400634766,0,
 1183902,-0.271484375,-0.93603515625,-0.03564453125,-0.24390244483947754,0.396341472864151,0.3353658616542816,-0.75,2.700000047683716,-6.75,37.006229400634766,0,
 1183912,-0.274169921875,-0.935546875,-0.029541015625,-0.4268292784690857,0.4878048896789551,-0.060975611209869385,0.75,1.9500000476837158,-7.050000190734863,36.86246109008789,0,
 1183922,-0.27197265625,-0.936767578125,-0.020263671875,-0.4268292784690857,0.0,-0.24390244483947754,0.0,1.5,-7.800000190734863,37.245845794677734,0,
 1183932,-0.271728515625,-0.943115234375,-0.026123046875,-0.8536585569381714,0.5487805008888245,-0.12195122241973877,0.75,1.5,-9.0,36.814537048339844,0,
 1183942,-0.27099609375,-0.938720703125,-0.0283203125,-1.2195122241973877,0.5792682766914368,0.030487805604934692,0.75,1.5,-9.0,37.006229400634766,0,
 1183952,-0.265869140625,-0.934814453125,-0.02783203125,-1.3719512224197388,0.8231707215309143,-0.12195122241973877,-0.44999998807907104,1.350000023841858,-7.650000095367432,37.006229400634766,0,
 1183962,-0.27490234375,-0.938720703125,-0.03515625,-0.8841463327407837,0.5792682766914368,0.030487805604934692,0.44999998807907104,-0.44999998807907104,-6.900000095367432,36.86246109008789,0,
 1183972,-0.266357421875,-0.94580078125,-0.02783203125,-0.3353658616542816,0.6402438879013062,-0.09146341681480408,1.0499999523162842,1.0499999523162842,-6.75,37.10207748413086,0,
 1183982,-0.27734375,-0.941162109375,-0.038818359375,-0.6707317233085632,0.7012194991111755,0.3353658616542816,-0.8999999761581421,1.649999976158142,-7.199999809265137,36.91038513183594,0,
 1183992,-0.273681640625,-0.93994140625,-0.03466796875,-0.4268292784690857,0.6097561120986938,0.15243902802467346,-0.8999999761581421,1.649999976158142,-7.199999809265137,36.91038513183594,0,
 1184002,-0.26806640625,-0.944580078125,-0.02685546875,-0.6707317233085632,0.4268292784690857,0.3353658616542816,0.44999998807907104,1.350000023841858,-8.399999618530273,37.10207748413086,0,
 1184012,-0.267578125,-0.939453125,-0.030517578125,-0.21341463923454285,0.15243902802467346,0.7317073345184326,1.649999976158142,2.0999999046325684,-6.150000095367432,37.05415344238281,0,
 1184022,-0.272705078125,-0.936767578125,-0.031005859375,-0.24390244483947754,0.396341472864151,0.09146341681480408,0.30000001192092896,1.9500000476837158,-7.800000190734863,37.006229400634766,0,
 1184032,-0.27099609375,-0.938232421875,-0.026611328125,-0.3048780560493469,0.3048780560493469,-0.12195122241973877,0.30000001192092896,1.9500000476837158,-7.800000190734863,36.67076873779297,0,
 1184042,-0.27490234375,-0.941162109375,-0.030029296875,-0.5792682766914368,0.060975611209869385,0.12195122241973877,1.2000000476837158,4.050000190734863,-8.699999809265137,37.006229400634766,0,
 1184052,-0.277099609375,-0.93994140625,-0.029296875,-0.9451219439506531,0.6707317233085632,0.3048780560493469,1.7999999523162842,1.0499999523162842,-8.550000190734863,36.718692779541016,0,
 1184062,-0.274169921875,-0.936767578125,-0.032958984375,-0.6402438879013062,0.3658536672592163,0.18292683362960815,1.7999999523162842,1.5,-7.800000190734863,36.86246109008789,0,
 1184072,-0.274169921875,-0.94580078125,-0.033447265625,-0.5792682766914368,0.396341472864151,0.4573170840740204,0.30000001192092896,1.9500000476837158,-7.800000190734863,37.006229400634766,0,
 1184082,-0.271240234375,-0.941162109375,-0.031005859375,-0.3353658616542816,0.18292683362960815,0.3353658616542816,0.30000001192092896,1.9500000476837158,-7.800000190734863,37.245845794677734,0,
 1184092,-0.267578125,-0.94384765625,-0.032470703125,-0.27439025044441223,0.4268292784690857,0.396341472864151,1.5,1.5,-7.5,37.19792175292969,0,
 1184102,-0.271728515625,-0.93701171875,-0.038330078125,-0.15243902802467346,0.5487805008888245,0.5792682766914368,1.7999999523162842,2.25,-7.5,36.86246109008789,0,
 1184112,-0.273193359375,-0.93505859375,-0.031494140625,-0.12195122241973877,0.396341472864151,1.0060975551605225,0.15000000596046448,2.0999999046325684,-7.949999809265137,36.814537048339844,0,
 1184122,-0.2744140625,-0.934814453125,-0.031005859375,-0.060975611209869385,0.27439025044441223,0.8536585569381714,0.15000000596046448,2.0999999046325684,-7.949999809265137,37.006229400634766,0,
 1184132,-0.271484375,-0.93994140625,-0.02978515625,0.060975611209869385,0.21341463923454285,0.7317073345184326,0.30000001192092896,2.700000047683716,-8.25,37.10207748413086,0,
 1184142,-0.267333984375,-0.939208984375,-0.031005859375,-0.3048780560493469,0.3658536672592163,0.7317073345184326,1.5,2.25,-8.550000190734863,36.814537048339844,0,
 1184152,-0.269775390625,-0.938720703125,-0.02783203125,-0.4878048896789551,0.4573170840740204,0.6402438879013062,0.44999998807907104,1.649999976158142,-6.900000095367432,36.86246109008789,0,
 1184162,-0.276123046875,-0.93798828125,-0.028564453125,-0.8536585569381714,0.3048780560493469,0.3048780560493469,-0.44999998807907104,1.350000023841858,-8.399999618530273,36.814537048339844,0,
 1184172,-0.27099609375,-0.9423828125,-0.031005859375,-0.8536585569381714,0.18292683362960815,0.27439025044441223,-0.44999998807907104,1.350000023841858,-8.399999618530273,37.05415344238281,0,
 1184182,-0.279296875,-0.9404296875,-0.031005859375,-0.792682945728302,0.21341463923454285,-0.030487805604934692,0.15000000596046448,2.0999999046325684,-7.199999809265137,37.05415344238281,0,
 1184192,-0.26611328125,-0.94091796875,-0.02490234375,-0.6707317233085632,0.3353658616542816,-0.3048780560493469,-0.44999998807907104,1.350000023841858,-7.949999809265137,36.86246109008789,0,
 1184202,-0.271484375,-0.941650390625,-0.025146484375,-0.5182926654815674,0.3353658616542816,-0.09146341681480408,-0.15000000596046448,0.44999998807907104,-6.900000095367432,37.006229400634766,0,
 1184212,-0.278564453125,-0.9423828125,-0.027099609375,-0.15243902802467346,0.4268292784690857,0.030487805604934692,-0.15000000596046448,0.44999998807907104,-6.900000095367432,37.245845794677734,0,
 1184222,-0.27099609375,-0.94384765625,-0.027099609375,-0.6097561120986938,0.18292683362960815,-0.15243902802467346,0.44999998807907104,1.350000023841858,-6.900000095367432,37.006229400634766,0,
 1184232,-0.27099609375,-0.939453125,-0.029296875,0.030487805604934692,0.396341472864151,0.6707317233085632,0.15000000596046448,1.350000023841858,-8.399999618530273,36.91038513183594,0,
 1184242,-0.269775390625,-0.94384765625,-0.0283203125,-0.396341472864151,0.3353658616542816,0.8841463327407837,0.0,2.700000047683716,-7.5,37.10207748413086,0,
 1184252,-0.26318359375,-0.941650390625,-0.03515625,-0.5487805008888245,0.5182926654815674,0.8231707215309143,-1.649999976158142,0.8999999761581421,-8.399999618530273,36.814537048339844,0,
 1184262,-0.272705078125,-0.943603515625,-0.0263671875,-0.09146341681480408,-0.060975611209869385,1.0670732259750366,-1.649999976158142,0.8999999761581421,-8.399999618530273,36.91038513183594,0,
 1184273,-0.268310546875,-0.943115234375,-0.026611328125,0.12195122241973877,0.18292683362960815,0.7317073345184326,-1.0499999523162842,2.25,-7.050000190734863,37.006229400634766,0,
 1184283,-0.28076171875,-0.94140625,-0.0224609375,-0.15243902802467346,0.18292683362960815,0.4878048896789551,0.8999999761581421,2.0999999046325684,-6.150000095367432,37.006229400634766,0,
 1184293,-0.274658203125,-0.940185546875,-0.023681640625,-0.3658536672592163,0.4878048896789551,0.24390244483947754,0.8999999761581421,1.649999976158142,-8.699999809265137,37.10207748413086,0,
 1184303,-0.275634765625,-0.941162109375,-0.02490234375,-1.4634146690368652,0.27439025044441223,-0.3048780560493469,0.8999999761581421,1.649999976158142,-8.699999809265137,36.86246109008789,0,
 1184313,-0.2734375,-0.93896484375,-0.028076171875,-1.3109756708145142,0.5182926654815674,-0.3658536672592163,0.0,1.9500000476837158,-8.25,37.006229400634766,0,
 1184323,-0.2724609375,-0.935546875,-0.029296875,-1.3109756708145142,0.7621951103210449,-0.6097561120986938,-0.8999999761581421,1.350000023841858,-7.650000095367432,37.245845794677734,0,
 1184333,-0.269287109375,-0.941162109375,-0.03369140625,-1.25,0.6707317233085632,-0.6402438879013062,0.75,0.30000001192092896,-7.800000190734863,37.006229400634766,0,
 1184343,-0.267822265625,-0.942626953125,-0.0302734375,-1.1280487775802612,0.792682945728302,-0.5182926654815674,0.15000000596046448,2.8499999046325684,-6.449999809265137,36.91038513183594,0,
 1184353,-0.263916015625,-0.940185546875,-0.032470703125,-0.9756097793579102,0.5487805008888245,-0.15243902802467346,0.15000000596046448,2.8499999046325684,-6.449999809265137,36.814537048339844,0,
 1184363,-0.2734375,-0.935302734375,-0.03173828125,-0.8231707215309143,0.4268292784690857,0.4878048896789551,-0.30000001192092896,0.75,-8.25,37.006229400634766,0,
 1184373,-0.267333984375,-0.939697265625,-0.03173828125,-0.4573170840740204,0.396341472864151,0.6097561120986938,1.5,1.0499999523162842,-7.5,37.245845794677734,0,
 1184383,-0.26806640625,-0.93896484375,-0.028564453125,-0.18292683362960815,0.3048780560493469,0.7317073345184326,1.5,0.75,-7.800000190734863,37.10207748413086,0,
 1184393,-0.2724609375,-0.942138671875,-0.027099609375,-0.060975611209869385,0.24390244483947754,0.9451219439506531,0.8999999761581421,1.649999976158142,-7.650000095367432,36.91038513183594,0,
 1184403,-0.271484375,-0.936767578125,-0.024169921875,0.0,0.15243902802467346,0.4878048896789551,0.8999999761581421,1.649999976158142,-7.650000095367432,36.86246109008789,0,
 1184413,-0.272705078125,-0.939453125,-0.02734375,-0.3048780560493469,0.4573170840740204,0.12195122241973877,1.5,1.9500000476837158,-6.300000190734863,36.86246109008789,0,
 1184423,-0.268310546875,-0.93896484375,-0.028564453125,-0.396341472864151,0.030487805604934692,0.15243902802467346,0.15000000596046448,-0.44999998807907104,-6.150000095367432,36.86246109008789,0,
 1184433,-0.26806640625,-0.937744140625,-0.02734375,-0.4268292784690857,0.3048780560493469,-0.21341463923454285,0.30000001192092896,2.25,-7.050000190734863,36.814537048339844,0,
 1184443,-0.27392578125,-0.944580078125,-0.029541015625,-0.8536585569381714,0.5792682766914368,-0.030487805604934692,0.30000001192092896,2.25,-7.050000190734863,37.245845794677734,0,
 1184453,-0.267578125,-0.93701171875,-0.03125,-0.5182926654815674,0.18292683362960815,0.18292683362960815,3.0,1.9500000476837158,-8.550000190734863,37.05415344238281,0,
 1184463,-0.266357421875,-0.941650390625,-0.030029296875,-0.396341472864151,0.24390244483947754,0.3048780560493469,-0.30000001192092896,1.5,-7.800000190734863,36.814537048339844,0,
 1184473,-0.26904296875,-0.9443359375,-0.02880859375,-0.09146341681480408,0.4268292784690857,0.3048780560493469,0.0,3.450000047683716,-7.5,37.006229400634766,0,
 1184483,-0.273681640625,-0.94580078125,-0.0341796875,-0.27439025044441223,0.09146341681480408,0.7317073345184326,-0.44999998807907104,2.549999952316284,-6.900000095367432,37.245845794677734,0,
 1184493,-0.2685546875,-0.93994140625,-0.0302734375,0.3658536672592163,0.09146341681480408,0.7012194991111755,-0.44999998807907104,2.549999952316284,-6.900000095367432,36.814537048339844,0,
 1184503,-0.270751953125,-0.938232421875,-0.02587890625,0.060975611209869385,-0.030487805604934692,0.7012194991111755,0.44999998807907104,0.44999998807907104,-8.399999618530273,37.006229400634766,0,
 1184513,-0.27783203125,-0.94091796875,-0.0302734375,0.12195122241973877,0.15243902802467346,0.3353658616542816,-0.15000000596046448,0.8999999761581421,-7.650000095367432,37.34169006347656,0,
 1184523,-0.268798828125,-0.9345703125,-0.02880859375,0.15243902802467346,0.12195122241973877,0.0,0.75,1.9500000476837158,-8.25,37.006229400634766,0,
 1184533,-0.274169921875,-0.93896484375,-0.025390625,0.12195122241973877,0.3048780560493469,-0.21341463923454285,0.75,1.9500000476837158,-8.25,37.006229400634766,0,
 1184543,-0.269775390625,-0.94091796875,-0.026611328125,-0.4878048896789551,0.15243902802467346,-0.24390244483947754,0.30000001192092896,1.5,-6.300000190734863,36.718692779541016,0,
 1184553,-0.2724609375,-0.93505859375,-0.02587890625,-0.396341472864151,0.5487805008888245,-0.030487805604934692,-1.7999999523162842,2.25,-8.25,37.006229400634766,0,
 1184563,-0.268798828125,-0.94189453125,-0.026611328125,-0.7012194991111755,0.09146341681480408,-0.15243902802467346,0.44999998807907104,-0.15000000596046448,-7.949999809265137,37.34169006347656,0,
 1184573,-0.269287109375,-0.942138671875,-0.024658203125,-0.24390244483947754,0.3048780560493469,0.3048780560493469,1.5,1.5,-7.050000190734863,37.006229400634766,0,
 1184583,-0.27392578125,-0.944091796875,-0.0302734375,-1.0365853309631348,0.12195122241973877,0.792682945728302,1.5,1.5,-7.050000190734863,36.91038513183594,0,
 1184593,-0.272705078125,-0.9404296875,-0.031494140625,-0.5182926654815674,0.4878048896789551,1.25,0.8999999761581421,2.0999999046325684,-6.900000095367432,36.67076873779297,0,
 1184603,-0.27099609375,-0.9443359375,-0.03076171875,0.3048780560493469,0.18292683362960815,1.25,-0.75,1.9500000476837158,-7.050000190734863,37.38961410522461,0,
 1184613,-0.271728515625,-0.93994140625,-0.029296875,-0.12195122241973877,-0.21341463923454285,0.5487805008888245,1.0499999523162842,1.5,-8.25,37.006229400634766,0,
 1184623,-0.26708984375,-0.9443359375,-0.0205078125,-0.3353658616542816,0.21341463923454285,0.6097561120986938,1.0499999523162842,1.5,-8.25,37.10207748413086,0,
 1184633,-0.26953125,-0.936279296875,-0.02587890625,-0.8841463327407837,0.396341472864151,0.4878048896789551,0.15000000596046448,0.44999998807907104,-7.949999809265137,37.006229400634766,0,
 1184643,-0.278076171875,-0.9423828125,-0.027587890625,-0.8536585569381714,0.5487805008888245,0.3658536672592163,0.44999998807907104,2.0999999046325684,-6.449999809265137,36.814537048339844,0,
 1184653,-0.2734375,-0.93212890625,-0.02685546875,-0.9146341681480408,0.792682945728302,-0.4268292784690857,1.2000000476837158,0.8999999761581421,-6.900000095367432,37.05415344238281,0,
 1184663,-0.271484375,-0.94189453125,-0.0224609375,-1.3109756708145142,0.8536585569381714,-0.24390244483947754,0.44999998807907104,0.44999998807907104,-8.699999809265137,36.91038513183594,0,
 1184673,-0.266357421875,-0.941650390625,-0.024658203125,-1.097561001777649,0.7317073345184326,-0.27439025044441223,0.44999998807907104,0.44999998807907104,-8.699999809265137,36.814537048339844,0,
 1184683,-0.271240234375,-0.9375,-0.036376953125,-1.2804877758026123,0.5487805008888245,0.3048780560493469,0.75,1.9500000476837158,-8.25,36.86246109008789,0,
 1184693,-0.267578125,-0.939208984375,-0.037841796875,-1.0365853309631348,0.7317073345184326,0.396341472864151,0.75,2.25,-6.75,36.86246109008789,0,
 1184703,-0.27392578125,-0.939697265625,-0.034423828125,-1.1585365533828735,0.5487805008888245,0.8841463327407837,0.15000000596046448,1.350000023841858,-7.949999809265137,36.86246109008789,0,
 1184713,-0.27001953125,-0.937255859375,-0.031494140625,-0.8536585569381714,0.3353658616542816,0.8536585569381714,0.15000000596046448,1.350000023841858,-7.949999809265137,37.19792175292969,0,
 1184723,-0.274658203125,-0.940185546875,-0.027099609375,-0.3658536672592163,0.4573170840740204,0.8231707215309143,0.15000000596046448,1.350000023841858,-7.650000095367432,37.006229400634766,0,
 1184733,-0.276123046875,-0.939208984375,-0.022216796875,-0.4268292784690857,0.3658536672592163,0.9146341681480408,1.0499999523162842,1.5,-9.300000190734863,37.245845794677734,0,
 1184743,-0.276123046875,-0.9423828125,-0.02490234375,-0.5182926654815674,0.09146341681480408,0.5487805008888245,1.5,2.700000047683716,-7.800000190734863,37.10207748413086,0,
 1184753,-0.271484375,-0.936767578125,-0.0244140625,-0.8536585569381714,0.3658536672592163,0.09146341681480408,0.44999998807907104,2.0999999046325684,-7.949999809265137,37.10207748413086,0,
 1184763,-0.275146484375,-0.947509765625,-0.0234375,-1.402438998222351,0.6097561120986938,-0.3658536672592163,0.44999998807907104,2.0999999046325684,-7.949999809265137,37.05415344238281,0,
 1184773,-0.26953125,-0.94091796875,-0.032958984375,-1.3719512224197388,0.792682945728302,-0.6707317233085632,0.75,1.0499999523162842,-6.300000190734863,37.006229400634766,0,
 1184783,-0.2724609375,-0.939697265625,-0.027099609375,-1.4634146690368652,0.9756097793579102,-0.6097561120986938,0.0,1.0499999523162842,-8.550000190734863,37.10207748413086,0,
 1184793,-0.26513671875,-0.93603515625,-0.031494140625,-1.2804877758026123,0.5792682766914368,-0.7317073345184326,0.15000000596046448,0.8999999761581421,-7.650000095367432,36.67076873779297,0,
 1184803,-0.26513671875,-0.93798828125,-0.03173828125,-1.1280487775802612,0.5792682766914368,-0.396341472864151,0.15000000596046448,0.8999999761581421,-7.650000095367432,36.91038513183594,0,
 1184813,-0.27099609375,-0.937744140625,-0.0302734375,-0.9146341681480408,0.4878048896789551,0.27439025044441223,0.75,1.0499999523162842,-7.800000190734863,37.006229400634766,0,
 1184823,-0.264404296875,-0.9443359375,-0.03466796875,-0.5792682766914368,0.3048780560493469,0.396341472864151,0.75,1.9500000476837158,-7.800000190734863,36.91038513183594,0,
 1184833,-0.272705078125,-0.93701171875,-0.032958984375,-0.5487805008888245,0.5792682766914368,0.9146341681480408,0.75,2.700000047683716,-7.050000190734863,37.245845794677734,0,
 1184843,-0.269287109375,-0.942138671875,-0.033203125,-0.3353658616542816,0.24390244483947754,1.0060975551605225,1.649999976158142,1.649999976158142,-7.199999809265137,36.67076873779297,0,
 1184853,-0.275634765625,-0.94189453125,-0.0283203125,-0.09146341681480408,0.0,0.8536585569381714,1.649999976158142,1.649999976158142,-7.199999809265137,36.814537048339844,0,
 1184863,-0.275634765625,-0.946044921875,-0.027587890625,-0.6707317233085632,0.21341463923454285,0.4573170840740204,1.2000000476837158,3.75,-11.399999618530273,37.10207748413086,0,
 1184873,-0.274169921875,-0.937255859375,-0.02685546875,-0.8231707215309143,0.3353658616542816,0.4268292784690857,1.0499999523162842,1.5,-7.800000190734863,37.05415344238281,0,
 1184883,-0.275634765625,-0.944091796875,-0.026123046875,-1.0365853309631348,0.5182926654815674,0.18292683362960815,0.44999998807907104,1.350000023841858,-7.199999809265137,37.10207748413086,0,
 1184893,-0.276123046875,-0.9423828125,-0.03271484375,-0.8231707215309143,0.5487805008888245,0.060975611209869385,0.44999998807907104,-0.44999998807907104,-7.650000095367432,36.86246109008789,0,
 1184903,-0.264892578125,-0.933837890625,-0.033447265625,-0.9451219439506531,0.6097561120986938,-0.3658536672592163,0.44999998807907104,-0.44999998807907104,-7.650000095367432,37.05415344238281,0,
 1184913,-0.27294921875,-0.935302734375,-0.034423828125,-1.0060975551605225,0.27439025044441223,-0.4268292784690857,0.30000001192092896,1.5,-7.800000190734863,37.245845794677734,0,
 1184923,-0.2587890625,-0.94189453125,-0.0302734375,-0.6402438879013062,0.4573170840740204,-0.12195122241973877,2.25,1.5,-6.0,37.05415344238281,0,
 1184933,-0.27099609375,-0.94677734375,-0.03662109375,-0.3658536672592163,0.5792682766914368,0.7317073345184326,-0.75,1.5,-8.25,37.10207748413086,0,
 1184943,-0.2646484375,-0.941162109375,-0.037353515625,0.060975611209869385,0.18292683362960815,0.7012194991111755,-0.75,1.5,-8.25,37.05415344238281,0,
 1184953,-0.272705078125,-0.940185546875,-0.03564453125,0.27439025044441223,-0.09146341681480408,0.7317073345184326,-0.30000001192092896,0.0,-6.0,37.006229400634766,0,
 1184963,-0.27734375,-0.939453125,-0.031494140625,1.0060975551605225,-0.12195122241973877,0.7621951103210449,-1.2000000476837158,3.299999952316284,-8.399999618530273,37.05415344238281,0,
 1184973,-0.269775390625,-0.935791015625,-0.030029296875,0.8841463327407837,0.0,0.15243902802467346,0.8999999761581421,2.549999952316284,-7.949999809265137,37.006229400634766,0,
 1184983,-0.272216796875,-0.940185546875,-0.030029296875,0.09146341681480408,-0.21341463923454285,0.3353658616542816,0.15000000596046448,1.649999976158142,-6.449999809265137,37.006229400634766,0,
 1184993,-0.276611328125,-0.94091796875,-0.025634765625,-0.060975611209869385,0.21341463923454285,0.09146341681480408,0.15000000596046448,1.649999976158142,-6.449999809265137,37.006229400634766,0,
 1185004,-0.272705078125,-0.941162109375,-0.028076171875,-0.7012194991111755,0.396341472864151,0.09146341681480408,0.30000001192092896,1.0499999523162842,-7.5,37.245845794677734,0,
 1185014,-0.271484375,-0.944580078125,-0.031494140625,-0.15243902802467346,0.3658536672592163,0.030487805604934692,1.649999976158142,1.649999976158142,-7.949999809265137,37.10207748413086,0,
 1185024,-0.2705078125,-0.933837890625,-0.033447265625,-0.15243902802467346,0.09146341681480408,-0.396341472864151,-0.44999998807907104,2.8499999046325684,-7.949999809265137,37.05415344238281,0,
 1185034,-0.269287109375,-0.938232421875,-0.02587890625,-0.18292683362960815,0.15243902802467346,0.09146341681480408,-0.44999998807907104,2.8499999046325684,-7.949999809265137,36.86246109008789,0,
 1185044,-0.272705078125,-0.94287109375,-0.035888671875,0.21341463923454285,0.27439025044441223,0.396341472864151,1.5,1.5,-6.300000190734863,37.006229400634766,0,
 1185054,-0.271240234375,-0.93896484375,-0.03125,0.5182926654815674,0.24390244483947754,0.9756097793579102,1.7999999523162842,2.25,-5.550000190734863,37.006229400634766,0,
 1185064,-0.276123046875,-0.94091796875,-0.032958984375,0.3353658616542816,-0.18292683362960815,0.8536585569381714,-0.30000001192092896,1.0499999523162842,-8.550000190734863,37.05415344238281,0,
 1185074,-0.271240234375,-0.9384765625,-0.033447265625,0.8841463327407837,0.060975611209869385,0.3658536672592163,0.0,0.75,-9.0,37.006229400634766,0,
 1185084,-0.274658203125,-0.939453125,-0.02880859375,0.3658536672592163,-0.12195122241973877,0.4573170840740204,0.0,0.75,-9.0,36.86246109008789,0,
 1185094,-0.27685546875,-0.9375,-0.02001953125,0.0,-0.15243902802467346,0.4268292784690857,0.44999998807907104,2.549999952316284,-6.449999809265137,37.006229400634766,0,
 1185104,-0.275390625,-0.945068359375,-0.024658203125,-0.4268292784690857,0.396341472864151,0.3658536672592163,0.15000000596046448,1.649999976158142,-7.650000095367432,37.10207748413086,0,
 1185114,-0.277587890625,-0.9384765625,-0.030029296875,-0.4878048896789551,0.3353658616542816,0.060975611209869385,1.7999999523162842,2.25,-6.300000190734863,37.006229400634766,0,
 1185124,-0.27685546875,-0.940673828125,-0.02734375,-0.5487805008888245,0.27439025044441223,0.030487805604934692,1.7999999523162842,2.25,-6.300000190734863,37.245845794677734,0,
 1185134,-0.266845703125,-0.93994140625,-0.030029296875,-0.4878048896789551,0.21341463923454285,-0.12195122241973877,0.15000000596046448,0.15000000596046448,-7.199999809265137,37.006229400634766,0,
 1185144,-0.26953125,-0.94384765625,-0.028076171875,-0.3353658616542816,0.4268292784690857,0.030487805604934692,0.15000000596046448,2.0999999046325684,-6.150000095367432,37.05415344238281,0,
 1185154,-0.271484375,-0.939453125,-0.03271484375,-0.4268292784690857,0.5487805008888245,0.3048780560493469,1.0499999523162842,2.700000047683716,-8.550000190734863,37.245845794677734,0,
 1185164,-0.273193359375,-0.941162109375,-0.03076171875,-0.4268292784690857,0.396341472864151,0.396341472864151,0.0,3.450000047683716,-6.300000190734863,37.006229400634766,0,
 1185174,-0.269775390625,-0.9423828125,-0.026611328125,-0.5182926654815674,0.396341472864151,0.18292683362960815,0.0,3.450000047683716,-6.300000190734863,36.91038513183594,0,
 1185184,-0.2763671875,-0.938720703125,-0.025634765625,-0.4878048896789551,0.4878048896789551,-0.15243902802467346,-0.30000001192092896,2.700000047683716,-7.800000190734863,37.006229400634766,0,
 1185194,-0.26708984375,-0.938232421875,-0.022216796875,-1.1585365533828735,0.3353658616542816,-0.15243902802467346,-0.44999998807907104,1.350000023841858,-7.199999809265137,37.05415344238281,0,
 1185204,-0.26904296875,-0.943115234375,-0.032958984375,-1.3719512224197388,0.7012194991111755,0.060975611209869385,2.0999999046325684,1.350000023841858,-7.199999809265137,37.19792175292969,0,
 1185214,-0.27490234375,-0.941162109375,-0.031494140625,-1.3109756708145142,0.792682945728302,0.21341463923454285,2.0999999046325684,1.350000023841858,-7.199999809265137,37.006229400634766,0,
 1185224,-0.275146484375,-0.943115234375,-0.0322265625,-0.7621951103210449,0.3048780560493469,0.6707317233085632,0.30000001192092896,1.5,-8.25,37.006229400634766,0,
 1185234,-0.2734375,-0.939208984375,-0.0400390625,-0.4878048896789551,0.5487805008888245,0.6707317233085632,0.75,2.25,-7.050000190734863,36.718692779541016,0,
 1185244,-0.2685546875,-0.93701171875,-0.029296875,-0.3658536672592163,0.3353658616542816,0.4878048896789551,0.30000001192092896,1.0499999523162842,-9.0,37.05415344238281,0,
 1185254,-0.27197265625,-0.94140625,-0.032958984375,-0.4268292784690857,0.3048780560493469,0.4268292784690857,-0.15000000596046448,2.549999952316284,-7.650000095367432,37.34169006347656,0,
 1185264,-0.2734375,-0.9404296875,-0.029052734375,-0.6707317233085632,0.27439025044441223,0.5487805008888245,-0.15000000596046448,2.549999952316284,-7.650000095367432,36.86246109008789,0,
 1185274,-0.273193359375,-0.94189453125,-0.03076171875,-0.7012194991111755,0.5182926654815674,0.6707317233085632,2.25,2.25,-10.050000190734863,37.19792175292969,0,
 1185284,-0.272216796875,-0.939697265625,-0.029052734375,-0.6097561120986938,0.6097561120986938,0.18292683362960815,1.649999976158142,1.350000023841858,-6.900000095367432,36.86246109008789,0,
 1185294,-0.267333984375,-0.9375,-0.0283203125,-0.7317073345184326,0.09146341681480408,0.060975611209869385,-0.30000001192092896,0.75,-6.75,37.006229400634766,0,
 1185304,-0.274169921875,-0.941162109375,-0.033203125,-0.6707317233085632,0.4268292784690857,-0.3658536672592163,-0.30000001192092896,0.75,-6.75,37.10207748413086,0,
 1185314,-0.27392578125,-0.944580078125,-0.031494140625,-0.8841463327407837,0.4268292784690857,-0.5182926654815674,0.44999998807907104,1.649999976158142,-7.650000095367432,36.91038513183594,0,
 1185324,-0.2744140625,-0.94091796875,-0.031982421875,-0.6707317233085632,0.4878048896789551,-0.3353658616542816,0.15000000596046448,2.0999999046325684,-7.949999809265137,36.86246109008789,0,
 1185334,-0.2685546875,-0.939453125,-0.02783203125,-1.1890244483947754,0.7317073345184326,-0.4878048896789551,0.8999999761581421,1.350000023841858,-7.949999809265137,37.006229400634766,0,
 1185344,-0.26708984375,-0.9423828125,-0.026123046875,-1.1280487775802612,0.5487805008888245,-0.3048780560493469,0.44999998807907104,3.75,-7.949999809265137,37.006229400634766,0,
 1185354,-0.27099609375,-0.9443359375,-0.029296875,-1.1585365533828735,0.5487805008888245,0.5487805008888245,0.44999998807907104,3.75,-7.949999809265137,37.34169006347656,0,
 1185364,-0.27685546875,-0.943115234375,-0.032958984375,-0.7012194991111755,0.4573170840740204,0.5487805008888245,0.0,0.75,-7.800000190734863,37.006229400634766,0,
 1185374,-0.267578125,-0.939453125,-0.03466796875,-0.24390244483947754,0.396341472864151,0.5487805008888245,-0.44999998807907104,3.75,-8.699999809265137,37.006229400634766,0,
 1185384,-0.2744140625,-0.938232421875,-0.02978515625,-0.3353658616542816,0.060975611209869385,0.27439025044441223,3.1500000953674316,2.0999999046325684,-6.900000095367432,37.05415344238281,0,
 1185394,-0.273193359375,-0.942626953125,-0.026123046875,-0.12195122241973877,0.396341472864151,0.3658536672592163,3.1500000953674316,2.0999999046325684,-6.900000095367432,37.006229400634766,0,
 1185404,-0.27490234375,-0.945068359375,-0.024658203125,-0.5792682766914368,0.5182926654815674,0.396341472864151,0.44999998807907104,2.549999952316284,-8.399999618530273,36.91038513183594,0,
 1185414,-0.280517578125,-0.937744140625,-0.030029296875,-0.6402438879013062,0.4268292784690857,0.21341463923454285,-1.0499999523162842,1.0499999523162842,-7.800000190734863,37.05415344238281,0,
 1185424,-0.26708984375,-0.9404296875,-0.025390625,-0.9451219439506531,0.4268292784690857,0.15243902802467346,0.8999999761581421,1.350000023841858,-6.449999809265137,36.86246109008789,0,
 1185434,-0.27197265625,-0.94287109375,-0.032958984375,-0.7012194991111755,0.4878048896789551,0.5487805008888245,0.8999999761581421,1.350000023841858,-6.449999809265137,36.814537048339844,0,
 1185444,-0.2744140625,-0.9375,-0.030029296875,-0.4878048896789551,0.12195122241973877,0.3048780560493469,0.8999999761581421,1.350000023841858,-6.449999809265137,37.006229400634766,0,
 1185454,-0.26904296875,-0.941650390625,-0.0244140625,-0.4573170840740204,0.3353658616542816,-0.060975611209869385,-0.75,1.0499999523162842,-7.5,37.05415344238281,0,
 1185464,-0.268798828125,-0.937255859375,-0.032470703125,-0.18292683362960815,0.15243902802467346,0.060975611209869385,1.649999976158142,1.350000023841858,-6.449999809265137,37.245845794677734,0,
 1185474,-0.270751953125,-0.94580078125,-0.029052734375,-0.7317073345184326,0.0,0.0,0.44999998807907104,-2.0999999046325684,-9.899999618530273,36.91038513183594,0,
 1185484,-0.275390625,-0.941162109375,-0.025146484375,-0.24390244483947754,0.3658536672592163,0.3658536672592163,0.44999998807907104,-2.0999999046325684,-9.899999618530273,37.05415344238281,0,
 1185494,-0.272705078125,-0.93994140625,-0.026123046875,-0.3353658616542816,0.4573170840740204,0.09146341681480408,0.44999998807907104,-2.0999999046325684,-9.899999618530273,37.006229400634766,0,
 1185504,-0.268310546875,-0.93994140625,-0.029296875,-0.396341472864151,0.4268292784690857,0.0,0.30000001192092896,0.30000001192092896,-7.199999809265137,37.05415344238281,0,
 1185514,-0.267333984375,-0.942626953125,-0.03271484375,-0.3658536672592163,0.12195122241973877,0.15243902802467346,0.8999999761581421,0.44999998807907104,-7.650000095367432,37.006229400634766,0,
 1185524,-0.272216796875,-0.9453125,-0.029296875,-0.09146341681480408,0.18292683362960815,0.5487805008888245,0.8999999761581421,0.44999998807907104,-7.650000095367432,37.006229400634766,0,
 1185534,-0.270751953125,-0.932861328125,-0.03662109375,-0.18292683362960815,0.18292683362960815,0.5487805008888245,0.8999999761581421,0.44999998807907104,-7.650000095367432,37.245845794677734,0,
 1185544,-0.27099609375,-0.93359375,-0.034912109375,0.27439025044441223,0.060975611209869385,0.4878048896789551,37.349998474121094,0.15000000596046448,-6.900000095367432,37.006229400634766,0,
 1185554,-0.269287109375,-0.9423828125,-0.031494140625,-0.27439025044441223,0.030487805604934692,0.3048780560493469,-0.30000001192092896,1.9500000476837158,-7.800000190734863,36.86246109008789,0,
 1185564,-0.274169921875,-0.939208984375,-0.030517578125,-0.3048780560493469,0.12195122241973877,0.3353658616542816,1.5,2.25,-7.050000190734863,37.05415344238281,0,
 1185574,-0.27587890625,-0.9375,-0.026611328125,-0.396341472864151,0.18292683362960815,0.18292683362960815,1.5,2.25,-7.050000190734863,36.86246109008789,0,
 1185584,-0.2724609375,-0.94189453125,-0.032958984375,-0.792682945728302,0.15243902802467346,0.030487805604934692,1.5,2.25,-7.050000190734863,36.91038513183594,0,
 1185594,-0.27001953125,-0.93994140625,-0.0302734375,-1.0060975551605225,0.6097561120986938,-0.030487805604934692,-0.30000001192092896,0.75,-8.550000190734863,37.245845794677734,0,
 1185604,-0.26171875,-0.944580078125,-0.030029296875,-0.7621951103210449,0.6402438879013062,0.12195122241973877,-0.44999998807907104,1.649999976158142,-8.399999618530273,37.006229400634766,0,
 1185614,-0.273681640625,-0.941650390625,-0.029052734375,-0.4878048896789551,0.396341472864151,0.6097561120986938,-0.44999998807907104,1.649999976158142,-8.399999618530273,37.10207748413086,0,
 1185624,-0.267333984375,-0.940673828125,-0.0302734375,-0.3658536672592163,0.09146341681480408,0.9146341681480408,-0.44999998807907104,1.649999976158142,-8.399999618530273,36.718692779541016,0,
 1185634,-0.2685546875,-0.943603515625,-0.02978515625,0.12195122241973877,0.09146341681480408,0.8536585569381714,1.7999999523162842,0.30000001192092896,-7.800000190734863,37.006229400634766,0,
 1185644,-0.275634765625,-0.939453125,-0.0283203125,0.15243902802467346,0.12195122241973877,0.7012194991111755,0.75,1.9500000476837158,-6.75,37.10207748413086,0,
 1185654,-0.273193359375,-0.94140625,-0.02734375,-0.12195122241973877,0.18292683362960815,0.6402438879013062,1.2000000476837158,2.0999999046325684,-7.650000095367432,36.86246109008789,0,
 1185664,-0.27197265625,-0.94091796875,-0.022705078125,-0.12195122241973877,0.4268292784690857,0.27439025044441223,1.2000000476837158,2.0999999046325684,-7.650000095367432,37.34169006347656,0,
 1185674,-0.2783203125,-0.942138671875,-0.032958984375,-0.792682945728302,0.4878048896789551,0.0,1.649999976158142,2.8499999046325684,-11.399999618530273,36.718692779541016,0,
 1185684,-0.27001953125,-0.939453125,-0.032958984375,-1.097561001777649,0.5487805008888245,-0.6707317233085632,1.649999976158142,0.44999998807907104,-7.199999809265137,36.91038513183594,0,
 1185694,-0.27392578125,-0.9404296875,-0.02734375,-0.9756097793579102,0.6402438879013062,-0.4573170840740204,1.649999976158142,1.649999976158142,-6.449999809265137,37.05415344238281,0,
 1185704,-0.2724609375,-0.941162109375,-0.035400390625,-1.432926893234253,0.8231707215309143,-0.5487805008888245,1.649999976158142,1.649999976158142,-6.449999809265137,36.91038513183594,0,
 1185714,-0.273681640625,-0.94189453125,-0.029052734375,-1.0060975551605225,0.4573170840740204,-0.7317073345184326,1.5,0.75,-7.800000190734863,37.245845794677734,0,
 1185724,-0.266845703125,-0.943359375,-0.03076171875,-0.8536585569381714,0.6402438879013062,-0.060975611209869385,-1.0499999523162842,1.0499999523162842,-6.75,36.91038513183594,0,
 1185734,-0.268798828125,-0.94482421875,-0.0302734375,-0.9756097793579102,0.5792682766914368,-0.030487805604934692,0.75,3.1500000953674316,-6.0,37.05415344238281,0,
 1185744,-0.271240234375,-0.93896484375,-0.03125,-0.6402438879013062,0.15243902802467346,0.6402438879013062,0.75,1.5,-8.25,37.05415344238281,0,
 1185754,-0.27001953125,-0.939208984375,-0.029541015625,-0.3048780560493469,0.15243902802467346,0.8841463327407837,0.75,1.5,-8.25,37.006229400634766,0,
 1185764,-0.271728515625,-0.93896484375,-0.0244140625,-0.27439025044441223,0.3353658616542816,0.9146341681480408,1.2000000476837158,1.350000023841858,-7.650000095367432,37.19792175292969,0,
 1185774,-0.27392578125,-0.94287109375,-0.029296875,-0.27439025044441223,0.09146341681480408,0.6402438879013062,-1.2000000476837158,3.75,-8.699999809265137,36.86246109008789,0,
 1185784,-0.27392578125,-0.942626953125,-0.028076171875,-0.4878048896789551,0.21341463923454285,0.15243902802467346,-0.44999998807907104,0.15000000596046448,-7.949999809265137,37.006229400634766,0,
 1185795,-0.271240234375,-0.93994140625,-0.0244140625,-0.5487805008888245,0.3658536672592163,-0.09146341681480408,-0.44999998807907104,0.15000000596046448,-7.949999809265137,37.05415344238281,0,
 1185805,-0.27392578125,-0.941650390625,-0.025634765625,-0.4878048896789551,0.6707317233085632,0.030487805604934692,0.15000000596046448,2.0999999046325684,-8.699999809265137,36.86246109008789,0,
 1185815,-0.2666015625,-0.943359375,-0.0302734375,-0.9146341681480408,0.6707317233085632,-0.18292683362960815,0.44999998807907104,2.549999952316284,-6.900000095367432,37.19792175292969,0,
 1185825,-0.271484375,-0.943115234375,-0.029052734375,-0.8536585569381714,0.5182926654815674,-0.15243902802467346,0.44999998807907104,0.8999999761581421,-7.949999809265137,37.10207748413086,0,
 1185835,-0.26806640625,-0.9345703125,-0.03466796875,-1.2195122241973877,0.4573170840740204,-0.15243902802467346,1.0499999523162842,1.5,-7.5,36.86246109008789,0,
 1185845,-0.271728515625,-0.941650390625,-0.03271484375,-0.3353658616542816,-0.060975611209869385,0.6707317233085632,1.0499999523162842,1.5,-7.5,37.006229400634766,0,
 1185855,-0.27392578125,-0.940673828125,-0.029541015625,-0.09146341681480408,-0.12195122241973877,0.6097561120986938,-0.30000001192092896,1.9500000476837158,-7.5,36.86246109008789,0,
 1185865,-0.265869140625,-0.940673828125,-0.025390625,0.5487805008888245,-0.030487805604934692,0.6707317233085632,0.44999998807907104,0.44999998807907104,-8.399999618530273,36.527000427246094,0,
 1185875,-0.27392578125,-0.942138671875,-0.0263671875,-0.12195122241973877,0.3048780560493469,0.3353658616542816,0.8999999761581421,0.44999998807907104,-7.650000095367432,37.10207748413086,0,
 1185885,-0.277099609375,-0.942626953125,-0.0263671875,0.030487805604934692,0.15243902802467346,0.18292683362960815,0.75,0.30000001192092896,-9.0,37.245845794677734,0,
 1185895,-0.27783203125,-0.94091796875,-0.0283203125,-0.09146341681480408,0.396341472864151,0.0,-0.30000001192092896,0.75,-9.75,37.19792175292969,0,
 1185905,-0.2744140625,-0.943359375,-0.0263671875,-0.792682945728302,0.4573170840740204,-0.5487805008888245,0.44999998807907104,0.44999998807907104,-6.150000095367432,37.006229400634766,0,
 1185915,-0.279052734375,-0.9443359375,-0.02587890625,-0.4573170840740204,0.4878048896789551,-0.4268292784690857,2.25,1.0499999523162842,-8.550000190734863,36.86246109008789,0,
 1185925,-0.271484375,-0.940673828125,-0.02490234375,-0.7012194991111755,0.3658536672592163,-0.3353658616542816,2.0999999046325684,1.649999976158142,-7.199999809265137,37.006229400634766,0,
 1185935,-0.271728515625,-0.9453125,-0.031005859375,-0.7621951103210449,0.4573170840740204,-0.12195122241973877,2.0999999046325684,1.649999976158142,-7.199999809265137,37.006229400634766,0,
 1185945,-0.271240234375,-0.9404296875,-0.0322265625,-0.6707317233085632,0.3353658616542816,0.24390244483947754,0.15000000596046448,1.649999976158142,-6.150000095367432,37.05415344238281,0,
 1185955,-0.268310546875,-0.941650390625,-0.032470703125,-0.18292683362960815,0.3048780560493469,0.7012194991111755,0.75,0.75,-7.800000190734863,37.19792175292969,0,
 1185965,-0.2685546875,-0.945556640625,-0.0361328125,-0.060975611209869385,0.15243902802467346,0.8841463327407837,0.15000000596046448,4.050000190734863,-7.949999809265137,36.86246109008789,0,
 1185975,-0.271484375,-0.942138671875,-0.0302734375,0.0,0.030487805604934692,0.8841463327407837,0.15000000596046448,2.0999999046325684,-7.949999809265137,37.05415344238281,0,
 1185985,-0.2783203125,-0.9375,-0.033203125,0.27439025044441223,0.060975611209869385,0.6097561120986938,0.15000000596046448,2.0999999046325684,-7.949999809265137,37.006229400634766,0,
 1185995,-0.275146484375,-0.941650390625,-0.02880859375,0.030487805604934692,0.15243902802467346,0.5182926654815674,-0.44999998807907104,0.44999998807907104,-6.900000095367432,36.814537048339844,0,
 1186005,-0.27490234375,-0.936279296875,-0.031005859375,-0.6097561120986938,0.18292683362960815,0.3658536672592163,0.8999999761581421,0.8999999761581421,-6.900000095367432,37.245845794677734,0,
 1186015,-0.270751953125,-0.941650390625,-0.031005859375,-0.6402438879013062,0.24390244483947754,0.24390244483947754,-0.75,1.0499999523162842,-8.25,36.718692779541016,0,
 1186025,-0.27001953125,-0.942138671875,-0.028564453125,-0.5487805008888245,0.4878048896789551,0.3658536672592163,-0.75,1.0499999523162842,-8.25,37.006229400634766,0,
 1186035,-0.266357421875,-0.94091796875,-0.0341796875,-0.9146341681480408,0.792682945728302,-0.15243902802467346,0.15000000596046448,0.8999999761581421,-7.650000095367432,37.19792175292969,0,
 1186045,-0.268310546875,-0.94482421875,-0.024658203125,-0.6707317233085632,0.6707317233085632,0.12195122241973877,1.2000000476837158,0.15000000596046448,-7.650000095367432,37.006229400634766,0,
 1186055,-0.269775390625,-0.940673828125,-0.03173828125,-0.6097561120986938,0.4878048896789551,0.18292683362960815,-1.5,0.75,-7.800000190734863,36.86246109008789,0,
 1186065,-0.26708984375,-0.938720703125,-0.02880859375,-0.4878048896789551,0.12195122241973877,0.5792682766914368,-1.2000000476837158,0.8999999761581421,-7.199999809265137,36.814537048339844,0,
 1186075,-0.27392578125,-0.942626953125,-0.03271484375,-0.3048780560493469,0.3658536672592163,0.4878048896789551,-1.2000000476837158,0.8999999761581421,-7.199999809265137,37.006229400634766,0,
 1186085,-0.281982421875,-0.939208984375,-0.0322265625,-0.060975611209869385,0.09146341681480408,0.8841463327407837,1.5,1.5,-10.5,36.91038513183594,0,
 1186095,-0.27490234375,-0.940673828125,-0.02880859375,-0.18292683362960815,0.3658536672592163,0.4573170840740204,1.0499999523162842,0.30000001192092896,-7.800000190734863,37.006229400634766,0,
 1186105,-0.273681640625,-0.93798828125,-0.029052734375,-0.4268292784690857,0.3048780560493469,0.0,0.44999998807907104,1.350000023841858,-7.949999809265137,36.86246109008789,0,
 1186115,-0.274658203125,-0.93798828125,-0.022216796875,-0.8231707215309143,0.3658536672592163,-0.3353658616542816,0.44999998807907104,1.350000023841858,-7.949999809265137,36.718692779541016,0,
 1186125,-0.263671875,-0.939697265625,-0.030517578125,-0.5182926654815674,0.396341472864151,0.15243902802467346,1.2000000476837158,2.549999952316284,-7.949999809265137,36.86246109008789,0,
 1186135,-0.263671875,-0.940185546875,-0.031982421875,-0.5182926654815674,0.27439025044441223,0.0,0.44999998807907104,0.15000000596046448,-7.650000095367432,37.19792175292969,0,
 1186145,-0.2705078125,-0.939453125,-0.03076171875,-0.21341463923454285,0.3658536672592163,0.7012194991111755,0.0,1.5,-7.5,37.05415344238281,0,
 1186155,-0.2734375,-0.938232421875,-0.02392578125,-0.5182926654815674,0.12195122241973877,0.4878048896789551,0.30000001192092896,1.5,-9.0,37.006229400634766,0,
 1186165,-0.2666015625,-0.94384765625,-0.028076171875,-0.09146341681480408,0.15243902802467346,0.6707317233085632,0.30000001192092896,1.5,-9.0,36.86246109008789,0,
 1186175,-0.270263671875,-0.94482421875,-0.02978515625,-0.15243902802467346,0.396341472864151,0.4878048896789551,-0.44999998807907104,0.44999998807907104,-6.900000095367432,37.006229400634766,0,
 1186185,-0.271728515625,-0.9423828125,-0.021484375,-0.6402438879013062,0.09146341681480408,0.7317073345184326,-1.2000000476837158,2.8499999046325684,-9.449999809265137,37.10207748413086,0,
 1186195,-0.2705078125,-0.944091796875,-0.02734375,-0.6402438879013062,0.18292683362960815,0.6402438879013062,0.75,1.5,-7.800000190734863,36.91038513183594,0,
 1186205,-0.272705078125,-0.939453125,-0.024658203125,-0.4878048896789551,0.396341472864151,0.24390244483947754,0.75,1.5,-7.800000190734863,37.05415344238281,0,
 1186215,-0.27001953125,-0.9462890625,-0.029541015625,-0.6707317233085632,0.396341472864151,-0.030487805604934692,0.8999999761581421,2.8499999046325684,-7.650000095367432,37.006229400634766,0,
 1186225,-0.275390625,-0.94287109375,-0.030029296875,-1.0060975551605225,0.27439025044441223,-0.3048780560493469,1.0499999523162842,1.5,-8.550000190734863,37.05415344238281,0,
 1186235,-0.27197265625,-0.937255859375,-0.029541015625,-1.3109756708145142,0.4878048896789551,-0.18292683362960815,0.75,2.25,-10.800000190734863,37.19792175292969,0,
 1186245,-0.26806640625,-0.944580078125,-0.0263671875,-1.1585365533828735,0.4878048896789551,-0.060975611209869385,0.15000000596046448,-0.8999999761581421,-10.649999618530273,36.718692779541016,0,
 1186255,-0.272216796875,-0.935791015625,-0.0302734375,-1.4939024448394775,0.5487805008888245,0.4878048896789551,0.15000000596046448,-0.8999999761581421,-10.649999618530273,37.006229400634766,0,
 1186265,-0.271728515625,-0.938720703125,-0.03271484375,-1.0365853309631348,0.3658536672592163,0.5182926654815674,0.75,1.0499999523162842,-7.050000190734863,37.10207748413086,0,
 1186275,-0.267822265625,-0.942138671875,-0.03125,-0.7621951103210449,0.6097561120986938,0.7621951103210449,1.2000000476837158,2.0999999046325684,-8.399999618530273,36.86246109008789,0,
 1186285,-0.2705078125,-0.937255859375,-0.02978515625,-0.24390244483947754,0.15243902802467346,0.792682945728302,1.0499999523162842,0.0,-8.550000190734863,36.814537048339844,0,
 1186295,-0.272705078125,-0.943603515625,-0.033447265625,-0.6707317233085632,0.4268292784690857,0.6402438879013062,0.75,1.5,-7.5,37.05415344238281,0,
 1186305,-0.27001953125,-0.93896484375,-0.024658203125,-0.7621951103210449,0.24390244483947754,0.24390244483947754,0.75,1.5,-7.5,36.86246109008789,0,
 1186315,-0.27197265625,-0.9404296875,-0.031005859375,-1.0060975551605225,0.4878048896789551,-0.15243902802467346,0.15000000596046448,0.8999999761581421,-8.399999618530273,37.19792175292969,0,
 1186325,-0.26611328125,-0.938232421875,-0.021240234375,-1.097561001777649,0.6707317233085632,-0.09146341681480408,-0.44999998807907104,0.15000000596046448,-9.899999618530273,37.10207748413086,0,
 1186335,-0.2744140625,-0.93505859375,-0.03271484375,-0.8536585569381714,0.5182926654815674,-0.4268292784690857,0.0,1.5,-7.5,37.05415344238281,0,
 1186345,-0.268310546875,-0.940185546875,-0.0341796875,-0.792682945728302,0.5792682766914368,-1.0365853309631348,0.0,1.5,-7.5,37.19792175292969,0,
 1186355,-0.26708984375,-0.937744140625,-0.030029296875,-1.2195122241973877,0.5792682766914368,-0.27439025044441223,1.0499999523162842,1.5,-7.800000190734863,36.91038513183594,0,
 1186365,-0.268798828125,-0.93896484375,-0.025146484375,-1.25,0.5182926654815674,-0.3048780560493469,0.0,2.25,-7.800000190734863,37.006229400634766,0,
 1186375,-0.267333984375,-0.938720703125,-0.037353515625,-0.7621951103210449,0.27439025044441223,0.4573170840740204,0.8999999761581421,1.350000023841858,-8.699999809265137,37.05415344238281,0,
 1186385,-0.264404296875,-0.945556640625,-0.0302734375,-0.4878048896789551,0.396341472864151,0.7621951103210449,1.649999976158142,1.649999976158142,-7.949999809265137,37.245845794677734,0,
 1186395,-0.27197265625,-0.942138671875,-0.03466796875,-0.09146341681480408,-0.060975611209869385,1.0060975551605225,1.649999976158142,1.649999976158142,-7.949999809265137,37.10207748413086,0,
 1186405,-0.275146484375,-0.941650390625,-0.03271484375,0.0,-0.030487805604934692,0.9146341681480408,2.0999999046325684,2.549999952316284,-7.949999809265137,36.814537048339844,0,
 1186415,-0.278564453125,-0.93798828125,-0.032958984375,-0.21341463923454285,0.09146341681480408,1.0060975551605225,0.44999998807907104,0.44999998807907104,-8.399999618530273,36.91038513183594,0,
 1186425,-0.277099609375,-0.939208984375,-0.022216796875,-0.09146341681480408,0.27439025044441223,0.5487805008888245,0.75,1.5,-9.300000190734863,37.05415344238281,0,
 1186435,-0.26953125,-0.938232421875,-0.02587890625,-0.3353658616542816,0.4878048896789551,0.4573170840740204,0.75,1.5,-9.300000190734863,36.91038513183594,0,
 1186445,-0.2705078125,-0.935302734375,-0.031005859375,-0.6097561120986938,0.3048780560493469,0.18292683362960815,-0.15000000596046448,0.8999999761581421,-7.199999809265137,37.006229400634766,0,
 1186455,-0.268310546875,-0.9365234375,-0.0302734375,-0.7317073345184326,0.6402438879013062,0.0,0.75,1.5,-7.5,37.006229400634766,0,
 1186465,-0.271728515625,-0.941650390625,-0.035400390625,-0.3658536672592163,0.396341472864151,-0.4878048896789551,0.44999998807907104,0.8999999761581421,-6.150000095367432,37.006229400634766,0,
 1186475,-0.272216796875,-0.940185546875,-0.030029296875,-0.7317073345184326,0.3658536672592163,-0.18292683362960815,0.75,2.25,-7.050000190734863,37.245845794677734,0,
 1186485,-0.26904296875,-0.942138671875,-0.031005859375,-0.7317073345184326,0.24390244483947754,0.060975611209869385,0.75,2.25,-7.050000190734863,37.10207748413086,0,
 1186505,-0.27099609375,-0.939453125,-0.0341796875,-0.6707317233085632,0.09146341681480408,1.1585365533828735,-0.15000000596046448,0.8999999761581421,-6.449999809265137,37.006229400634766,0,
 1186516,-0.263671875,-0.9375,-0.035400390625,0.3658536672592163,-0.060975611209869385,1.2195122241973877,2.0999999046325684,1.649999976158142,-7.199999809265137,37.05415344238281,0,
 1186526,-0.27197265625,-0.9365234375,-0.03173828125,0.7317073345184326,-0.3658536672592163,1.3719512224197388,2.0999999046325684,1.649999976158142,-7.199999809265137,37.006229400634766,0,
 1186536,-0.269287109375,-0.938720703125,-0.0283203125,0.8231707215309143,0.030487805604934692,1.2195122241973877,-0.8999999761581421,0.44999998807907104,-8.699999809265137,36.91038513183594,0,
 1186546,-0.276611328125,-0.939208984375,-0.025146484375,0.4268292784690857,-0.09146341681480408,1.1280487775802612,1.0499999523162842,3.1500000953674316,-7.800000190734863,37.10207748413086,0,
 1186556,-0.2783203125,-0.939697265625,-0.028564453125,-0.030487805604934692,0.27439025044441223,0.396341472864151,-0.30000001192092896,1.0499999523162842,-7.5,36.91038513183594,0,
 1186566,-0.275146484375,-0.937255859375,-0.02978515625,-0.4268292784690857,0.18292683362960815,0.09146341681480408,-0.44999998807907104,0.8999999761581421,-7.199999809265137,37.10207748413086,0,
 1186576,-0.275634765625,-0.939453125,-0.0322265625,-0.5182926654815674,0.396341472864151,-0.4878048896789551,-0.44999998807907104,0.8999999761581421,-7.199999809265137,37.10207748413086,0,
 1186586,-0.2763671875,-0.94091796875,-0.029296875,-0.6402438879013062,0.7012194991111755,-0.6707317233085632,2.0999999046325684,1.350000023841858,-7.949999809265137,37.006229400634766,0,
 1186596,-0.271728515625,-0.938720703125,-0.026611328125,-0.9146341681480408,0.5487805008888245,-0.9146341681480408,0.8999999761581421,2.549999952316284,-10.199999809265137,37.05415344238281,0,
 1186606,-0.269287109375,-0.945068359375,-0.034912109375,-0.7317073345184326,0.5182926654815674,-0.4573170840740204,0.44999998807907104,1.350000023841858,-7.199999809265137,36.718692779541016,0,
 1186616,-0.271728515625,-0.94091796875,-0.0322265625,-0.792682945728302,0.4878048896789551,0.09146341681480408,1.7999999523162842,1.5,-7.050000190734863,37.10207748413086,0,
 1186626,-0.2685546875,-0.9404296875,-0.035888671875,-0.3353658616542816,0.27439025044441223,0.8231707215309143,-0.75,1.5,-6.75,37.19792175292969,0,
 1186636,-0.264404296875,-0.94091796875,-0.034912109375,0.24390244483947754,-0.030487805604934692,0.9451219439506531,1.0499999523162842,1.5,-6.300000190734863,36.86246109008789,0,
 1186646,-0.271240234375,-0.9345703125,-0.02783203125,0.21341463923454285,-0.21341463923454285,1.402438998222351,-0.75,1.0499999523162842,-7.800000190734863,37.006229400634766,0,
 1186656,-0.276123046875,-0.9365234375,-0.02587890625,0.4268292784690857,-0.27439025044441223,1.097561001777649,-0.15000000596046448,1.350000023841858,-7.650000095367432,37.006229400634766,0,
 1186666,-0.268798828125,-0.94287109375,-0.02490234375,0.24390244483947754,0.030487805604934692,0.9756097793579102,-0.15000000596046448,1.350000023841858,-7.650000095367432,37.245845794677734,0,
 1186676,-0.272216796875,-0.942626953125,-0.024169921875,-0.7621951103210449,0.4268292784690857,0.6707317233085632,0.8999999761581421,0.8999999761581421,-7.650000095367432,36.86246109008789,0,
 1186686,-0.27734375,-0.94091796875,-0.0234375,-0.7317073345184326,0.4268292784690857,0.3048780560493469,0.75,2.25,-6.75,36.814537048339844,0,
 1186696,-0.2783203125,-0.93798828125,-0.024658203125,-1.1585365533828735,0.6402438879013062,0.15243902802467346,0.44999998807907104,1.649999976158142,-7.199999809265137,37.10207748413086,0,
 1186706,-0.272705078125,-0.939208984375,-0.0283203125,-1.3719512224197388,0.8841463327407837,-0.5182926654815674,1.0499999523162842,-1.0499999523162842,-10.800000190734863,37.006229400634766,0,
 1186716,-0.27001953125,-0.94189453125,-0.027099609375,-0.8841463327407837,0.7621951103210449,-0.7621951103210449,1.0499999523162842,-1.0499999523162842,-10.800000190734863,37.05415344238281,0,
 1186726,-0.265380859375,-0.940673828125,-0.028076171875,-1.2804877758026123,0.7317073345184326,-0.5792682766914368,1.5,1.0499999523162842,-7.800000190734863,37.19792175292969,0,
 1186736,-0.2685546875,-0.9384765625,-0.02783203125,-1.2195122241973877,0.5487805008888245,-0.21341463923454285,1.649999976158142,2.8499999046325684,-7.650000095367432,37.05415344238281,0,
 1186746,-0.2724609375,-0.941650390625,-0.029541015625,-1.097561001777649,0.3658536672592163,0.18292683362960815,-0.44999998807907104,2.0999999046325684,-5.699999809265137,37.19792175292969,0,
 1186756,-0.27587890625,-0.93896484375,-0.030029296875,-0.7317073345184326,0.3048780560493469,1.25,-0.44999998807907104,2.0999999046325684,-5.699999809265137,37.006229400634766,0,
 1186766,-0.2724609375,-0.94091796875,-0.0322265625,-0.21341463923454285,0.3353658616542816,1.2804877758026123,0.75,1.0499999523162842,-6.300000190734863,36.91038513183594,0,
 1186776,-0.275634765625,-0.934814453125,-0.0322265625,0.030487805604934692,0.0,1.1585365533828735,0.8999999761581421,1.350000023841858,-7.650000095367432,36.814537048339844,0,
 1186786,-0.27294921875,-0.938720703125,-0.033447265625,0.21341463923454285,-0.030487805604934692,0.6402438879013062,1.5,1.9500000476837158,-7.050000190734863,37.245845794677734,0,
 1186796,-0.276123046875,-0.934814453125,-0.02880859375,-0.12195122241973877,0.12195122241973877,0.6097561120986938,0.75,0.30000001192092896,-8.25,36.86246109008789,0,
 1186806,-0.27197265625,-0.939697265625,-0.022705078125,-0.4268292784690857,0.24390244483947754,0.15243902802467346,0.75,0.30000001192092896,-8.25,37.19792175292969,0,
 1186816,-0.281494140625,-0.93798828125,-0.025146484375,-0.5182926654815674,0.396341472864151,0.12195122241973877,1.0499999523162842,1.9500000476837158,-7.5,37.19792175292969,0,
 1186826,-0.273193359375,-0.9384765625,-0.0283203125,-0.8536585569381714,0.4878048896789551,-0.3353658616542816,2.0999999046325684,1.649999976158142,-7.650000095367432,37.19792175292969,0,
 1186836,-0.26904296875,-0.935546875,-0.0302734375,-0.7012194991111755,0.4878048896789551,-0.7012194991111755,0.75,1.0499999523162842,-7.800000190734863,37.05415344238281,0,
 1186846,-0.2724609375,-0.9404296875,-0.029052734375,-0.792682945728302,0.18292683362960815,-0.6097561120986938,0.75,1.0499999523162842,-7.800000190734863,36.86246109008789,0,
 1186856,-0.270751953125,-0.936279296875,-0.031494140625,-0.6402438879013062,0.396341472864151,-0.21341463923454285,1.649999976158142,1.350000023841858,-6.150000095367432,37.006229400634766,0,
 1186866,-0.271484375,-0.947509765625,-0.030517578125,-0.7012194991111755,0.4268292784690857,0.15243902802467346,-0.30000001192092896,1.5,-7.800000190734863,37.006229400634766,0,
 1186876,-0.27490234375,-0.9423828125,-0.036865234375,-0.4573170840740204,0.060975611209869385,0.6707317233085632,1.2000000476837158,2.0999999046325684,-6.150000095367432,36.91038513183594,0,
 1186886,-0.273193359375,-0.939208984375,-0.03515625,-0.030487805604934692,0.3658536672592163,0.6097561120986938,1.0499999523162842,0.75,-7.800000190734863,37.006229400634766,0,
 1186896,-0.27294921875,-0.943603515625,-0.034912109375,-0.18292683362960815,0.030487805604934692,0.8536585569381714,1.0499999523162842,0.75,-7.800000190734863,36.814537048339844,0,
 1186906,-0.27099609375,-0.937255859375,-0.0244140625,0.21341463923454285,-0.060975611209869385,0.7012194991111755,1.2000000476837158,2.549999952316284,-10.199999809265137,37.05415344238281,0,
 1186916,-0.26904296875,-0.93896484375,-0.025390625,-0.09146341681480408,0.15243902802467346,0.396341472864151,2.0999999046325684,1.350000023841858,-8.699999809265137,37.05415344238281,0,
 1186926,-0.273193359375,-0.939208984375,-0.0263671875,-0.6707317233085632,0.27439025044441223,-0.09146341681480408,0.0,1.0499999523162842,-7.800000190734863,36.91038513183594,0,
 1186936,-0.269775390625,-0.941162109375,-0.029541015625,-0.7317073345184326,0.396341472864151,-0.15243902802467346,0.0,1.0499999523162842,-7.800000190734863,37.006229400634766,0,
 1186946,-0.2734375,-0.938720703125,-0.029541015625,-0.8536585569381714,0.5182926654815674,-0.3048780560493469,0.75,0.30000001192092896,-7.5,36.86246109008789,0,
 1186956,-0.2685546875,-0.93994140625,-0.0302734375,-1.0060975551605225,0.5792682766914368,-0.060975611209869385,1.649999976158142,2.0999999046325684,-7.949999809265137,37.10207748413086,0,
 1186966,-0.271728515625,-0.939208984375,-0.031494140625,-0.5487805008888245,0.24390244483947754,0.4573170840740204,1.5,0.75,-7.5,37.006229400634766,0,
 1186976,-0.270751953125,-0.942138671875,-0.03369140625,-0.6097561120986938,0.4573170840740204,0.3353658616542816,-0.44999998807907104,1.350000023841858,-7.650000095367432,37.19792175292969,0,
 1186986,-0.27099609375,-0.93603515625,-0.034912109375,-0.18292683362960815,0.396341472864151,0.7012194991111755,-0.44999998807907104,1.350000023841858,-7.650000095367432,37.245845794677734,0,
 1186996,-0.270751953125,-0.943359375,-0.02880859375,-0.15243902802467346,0.27439025044441223,0.8536585569381714,-1.5,1.0499999523162842,-8.550000190734863,36.67076873779297,0,
 1187006,-0.273193359375,-0.937255859375,-0.031494140625,-0.3658536672592163,0.24390244483947754,0.5182926654815674,-0.30000001192092896,1.9500000476837158,-9.0,37.19792175292969,0,
 1187016,-0.279052734375,-0.9375,-0.02490234375,-0.3048780560493469,0.12195122241973877,0.3658536672592163,0.75,0.0,-7.5,37.19792175292969,0,
 1187026,-0.275146484375,-0.93896484375,-0.021728515625,-0.4878048896789551,-0.030487805604934692,0.24390244483947754,0.75,0.75,-8.550000190734863,37.05415344238281,0,
 1187036,-0.271484375,-0.940185546875,-0.022705078125,-0.8841463327407837,0.3353658616542816,-0.18292683362960815,2.0999999046325684,1.350000023841858,-6.900000095367432,37.245845794677734,0,
 1187046,-0.26904296875,-0.93994140625,-0.03076171875,-1.0670732259750366,0.396341472864151,-0.3353658616542816,0.0,-1.0499999523162842,-7.800000190734863,36.86246109008789,0,
 1187056,-0.27587890625,-0.93994140625,-0.027099609375,-1.0365853309631348,0.6707317233085632,-0.5182926654815674,1.5,1.9500000476837158,-7.800000190734863,36.814537048339844,0,
 1187066,-0.27099609375,-0.93798828125,-0.02197265625,-1.0670732259750366,0.4878048896789551,-0.5182926654815674,0.30000001192092896,1.9500000476837158,-7.800000190734863,37.006229400634766,0,
 1187076,-0.26171875,-0.940673828125,-0.034912109375,-0.8841463327407837,0.3048780560493469,0.09146341681480408,0.30000001192092896,1.9500000476837158,-7.800000190734863,37.006229400634766,0,
 1187086,-0.27001953125,-0.939208984375,-0.038330078125,-0.8841463327407837,0.6097561120986938,0.5182926654815674,0.30000001192092896,2.25,-7.050000190734863,37.006229400634766,0,
 1187096,-0.264892578125,-0.940185546875,-0.030517578125,-0.4268292784690857,0.21341463923454285,0.5792682766914368,-0.75,1.5,-7.800000190734863,36.91038513183594,0,
 1187106,-0.27001953125,-0.938232421875,-0.025390625,-0.3353658616542816,0.15243902802467346,0.7012194991111755,-0.15000000596046448,1.350000023841858,-8.399999618530273,37.006229400634766,0,
 1187116,-0.2763671875,-0.942138671875,-0.032470703125,-0.6097561120986938,0.030487805604934692,0.9451219439506531,0.0,0.75,-9.300000190734863,36.814537048339844,0,
 1187126,-0.266845703125,-0.93701171875,-0.028564453125,-0.5792682766914368,0.3048780560493469,0.6402438879013062,0.0,0.75,-9.300000190734863,36.86246109008789,0,
 1187136,-0.2734375,-0.940673828125,-0.02783203125,-1.0365853309631348,0.18292683362960815,0.24390244483947754,1.0499999523162842,1.5,-9.0,36.91038513183594,0,
 1187146,-0.27490234375,-0.9345703125,-0.027587890625,-1.25,0.8536585569381714,-0.4878048896789551,-0.30000001192092896,2.700000047683716,-7.050000190734863,37.10207748413086,0,
 1187156,-0.267578125,-0.936767578125,-0.026123046875,-1.5548781156539917,0.9146341681480408,-0.396341472864151,2.8499999046325684,2.8499999046325684,-7.949999809265137,36.86246109008789,0,
 1187166,-0.27001953125,-0.936279296875,-0.029052734375,-1.737804889678955,0.8231707215309143,-0.4878048896789551,2.8499999046325684,2.8499999046325684,-7.949999809265137,37.19792175292969,0,
 1187176,-0.269287109375,-0.9365234375,-0.03466796875,-1.3719512224197388,0.6707317233085632,-0.6402438879013062,1.649999976158142,0.44999998807907104,-8.399999618530273,36.86246109008789,0,
 1187186,-0.265625,-0.94384765625,-0.0302734375,-1.6768293380737305,0.8841463327407837,-0.4268292784690857,0.15000000596046448,-0.44999998807907104,-7.650000095367432,37.05415344238281,0,
 1187196,-0.27001953125,-0.943115234375,-0.0322265625,-1.4939024448394775,0.6707317233085632,0.18292683362960815,0.30000001192092896,1.5,-7.800000190734863,37.05415344238281,0,
 1187206,-0.263671875,-0.94287109375,-0.036865234375,-0.8536585569381714,0.4268292784690857,0.8536585569381714,0.75,1.0499999523162842,-7.5,37.10207748413086,0,
 1187216,-0.26953125,-0.932373046875,-0.03125,-0.12195122241973877,0.3353658616542816,0.9146341681480408,0.75,1.0499999523162842,-7.5,37.05415344238281,0,
 1187226,-0.28125,-0.9365234375,-0.032958984375,-0.27439025044441223,0.21341463923454285,0.9756097793579102,1.2000000476837158,2.0999999046325684,-8.399999618530273,36.86246109008789,0,
 1187236,-0.269775390625,-0.939208984375,-0.034912109375,-0.060975611209869385,0.0,1.1280487775802612,1.2000000476837158,1.350000023841858,-6.150000095367432,36.814537048339844,0,
 1187246,-0.272216796875,-0.935302734375,-0.025146484375,-0.12195122241973877,0.3658536672592163,0.6402438879013062,1.649999976158142,1.649999976158142,-8.399999618530273,37.05415344238281,0,
 1187256,-0.274169921875,-0.938232421875,-0.030029296875,-0.7012194991111755,0.27439025044441223,0.4573170840740204,1.649999976158142,1.649999976158142,-8.399999618530273,37.10207748413086,0,
 1187266,-0.270751953125,-0.9365234375,-0.029296875,-0.5487805008888245,0.396341472864151,-0.12195122241973877,0.0,1.5,-7.800000190734863,37.05415344238281,0,
 1187276,-0.26904296875,-0.941162109375,-0.032470703125,-0.8536585569381714,0.4573170840740204,-0.396341472864151,0.44999998807907104,0.44999998807907104,-7.949999809265137,37.006229400634766,0,
 1187286,-0.268310546875,-0.939208984375,-0.0341796875,-0.7621951103210449,0.27439025044441223,-0.4573170840740204,0.0,1.5,-7.5,37.006229400634766,0,
 1187297,-0.2646484375,-0.940673828125,-0.02783203125,-0.7012194991111755,0.5792682766914368,-0.3658536672592163,1.5,1.5,-7.5,37.19792175292969,0,
 1187307,-0.267822265625,-0.9384765625,-0.033203125,-0.12195122241973877,0.3048780560493469,-0.030487805604934692,1.5,1.5,-7.5,37.10207748413086,0,
 1187317,-0.270751953125,-0.944091796875,-0.035400390625,-0.5792682766914368,0.18292683362960815,0.7012194991111755,3.9000000953674316,0.44999998807907104,-9.449999809265137,37.006229400634766,0,
 1187327,-0.265625,-0.946533203125,-0.036376953125,0.030487805604934692,-0.12195122241973877,1.0060975551605225,-0.15000000596046448,2.0999999046325684,-7.199999809265137,36.86246109008789,0,
 1187337,-0.27099609375,-0.94140625,-0.03515625,0.396341472864151,-0.15243902802467346,0.7621951103210449,1.5,2.25,-7.800000190734863,36.814537048339844,0,
 1187347,-0.27099609375,-0.937744140625,-0.031982421875,0.9451219439506531,-0.12195122241973877,0.7317073345184326,1.5,2.25,-7.800000190734863,37.006229400634766,0,
 1187357,-0.27490234375,-0.9404296875,-0.029052734375,0.5792682766914368,0.0,0.5792682766914368,-1.0499999523162842,2.25,-7.5,37.05415344238281,0,
 1187367,-0.2734375,-0.9404296875,-0.03271484375,0.060975611209869385,0.15243902802467346,-0.030487805604934692,-0.44999998807907104,3.299999952316284,-6.449999809265137,36.91038513183594,0,
 1187377,-0.271240234375,-0.94384765625,-0.02734375,-0.12195122241973877,0.4268292784690857,-0.27439025044441223,0.8999999761581421,0.44999998807907104,-6.150000095367432,36.86246109008789,0,
 1187387,-0.270751953125,-0.93994140625,-0.02685546875,-0.3353658616542816,0.4878048896789551,-0.7012194991111755,0.44999998807907104,0.8999999761581421,-6.900000095367432,36.718692779541016,0,
 1187397,-0.26806640625,-0.94482421875,-0.026123046875,-0.3048780560493469,0.24390244483947754,-0.4573170840740204,0.44999998807907104,0.8999999761581421,-6.900000095367432,37.10207748413086,0,
 1187407,-0.26611328125,-0.9443359375,-0.037109375,-0.396341472864151,0.3353658616542816,-0.030487805604934692,0.8999999761581421,0.8999999761581421,-7.949999809265137,36.86246109008789,0,
 1187417,-0.26611328125,-0.93603515625,-0.035888671875,-0.030487805604934692,0.24390244483947754,0.5487805008888245,1.0499999523162842,3.450000047683716,-9.75,37.10207748413086,0,
 1187427,-0.266357421875,-0.943359375,-0.032470703125,0.4268292784690857,-0.060975611209869385,0.8536585569381714,1.5,2.700000047683716,-7.050000190734863,37.10207748413086,0,
 1187437,-0.26953125,-0.9384765625,-0.031494140625,0.7621951103210449,-0.24390244483947754,0.6707317233085632,1.5,2.700000047683716,-7.050000190734863,36.86246109008789,0,
 1187447,-0.2744140625,-0.937255859375,-0.03564453125,0.9451219439506531,-0.3353658616542816,0.9146341681480408,1.5,1.9500000476837158,-6.75,37.006229400634766,0,
 1187457,-0.2705078125,-0.9375,-0.01904296875,1.097561001777649,-0.4878048896789551,0.8231707215309143,1.649999976158142,0.44999998807907104,-7.199999809265137,37.006229400634766,0,
 1187467,-0.27490234375,-0.940185546875,-0.021728515625,0.9146341681480408,0.0,0.3658536672592163,0.44999998807907104,2.0999999046325684,-7.949999809265137,37.05415344238281,0,
 1187477,-0.26953125,-0.94140625,-0.02294921875,0.5487805008888245,0.060975611209869385,0.12195122241973877,1.7999999523162842,2.25,-7.800000190734863,37.10207748413086,0,
 1187487,-0.269775390625,-0.93896484375,-0.025146484375,-0.3048780560493469,0.4573170840740204,0.030487805604934692,1.7999999523162842,2.25,-7.800000190734863,37.006229400634766,0,
 1187497,-0.2734375,-0.943115234375,-0.0244140625,-0.4573170840740204,0.6097561120986938,-0.060975611209869385,1.2000000476837158,0.8999999761581421,-7.199999809265137,37.006229400634766,0,
 1187507,-0.2705078125,-0.942138671875,-0.0263671875,-0.6707317233085632,0.4573170840740204,-0.396341472864151,1.649999976158142,0.8999999761581421,-7.199999809265137,37.245845794677734,0,
 1187517,-0.270263671875,-0.939697265625,-0.029052734375,-0.6707317233085632,0.24390244483947754,-0.21341463923454285,0.30000001192092896,2.25,-7.5,37.10207748413086,0,
 1187527,-0.270263671875,-0.94580078125,-0.02783203125,-0.8231707215309143,0.12195122241973877,0.4268292784690857,0.30000001192092896,2.25,-7.5,37.006229400634766,0,
 1187537,-0.270751953125,-0.9404296875,-0.03173828125,-0.9146341681480408,0.4878048896789551,0.6707317233085632,0.75,1.0499999523162842,-7.800000190734863,36.814537048339844,0,
 1187547,-0.271728515625,-0.9443359375,-0.035400390625,-0.7012194991111755,0.21341463923454285,1.0060975551605225,1.0499999523162842,1.0499999523162842,-7.800000190734863,37.006229400634766,0,
 1187557,-0.268798828125,-0.937744140625,-0.0283203125,-0.6097561120986938,0.21341463923454285,1.2195122241973877,0.75,2.700000047683716,-7.050000190734863,37.245845794677734,0,
 1187567,-0.271728515625,-0.936767578125,-0.028564453125,-0.396341472864151,0.060975611209869385,1.25,-0.44999998807907104,1.649999976158142,-7.650000095367432,37.34169006347656,0,
 1187577,-0.277587890625,-0.94775390625,-0.02734375,-0.5792682766914368,0.3353658616542816,1.2195122241973877,-0.44999998807907104,1.649999976158142,-7.650000095367432,37.19792175292969,0,
 1187587,-0.274658203125,-0.9453125,-0.025146484375,-1.1585365533828735,0.4878048896789551,0.5792682766914368,1.649999976158142,0.8999999761581421,-7.949999809265137,37.006229400634766,0,
 1187597,-0.2744140625,-0.93994140625,-0.024169921875,-1.3109756708145142,0.7012194991111755,0.9756097793579102,0.44999998807907104,2.0999999046325684,-7.650000095367432,37.05415344238281,0,
 1187607,-0.2734375,-0.942138671875,-0.026611328125,-1.6158536672592163,0.7317073345184326,-0.060975611209869385,-0.75,0.30000001192092896,-6.300000190734863,37.19792175292969,0,
 1187617,-0.27880859375,-0.9384765625,-0.030517578125,-1.8292683362960815,0.4268292784690857,-0.3353658616542816,-1.0499999523162842,2.25,-8.550000190734863,36.814537048339844,0,
 1187627,-0.2685546875,-0.934814453125,-0.029296875,-1.7987805604934692,1.0670732259750366,-0.8536585569381714,-1.0499999523162842,2.25,-8.550000190734863,36.86246109008789,0,
 1187637,-0.269287109375,-0.938232421875,-0.024658203125,-2.012195110321045,1.0365853309631348,-0.3658536672592163,0.8999999761581421,1.649999976158142,-8.699999809265137,37.245845794677734,0,
 1187647,-0.26953125,-0.944580078125,-0.025634765625,-1.6463414430618286,0.8231707215309143,0.12195122241973877,0.44999998807907104,0.15000000596046448,-7.949999809265137,37.19792175292969,0,
 1187657,-0.269287109375,-0.944091796875,-0.03466796875,-0.9756097793579102,0.3353658616542816,0.7317073345184326,0.8999999761581421,2.0999999046325684,-7.949999809265137,36.814537048339844,0,
 1187667,-0.2724609375,-0.936767578125,-0.040771484375,-0.9451219439506531,0.27439025044441223,1.3719512224197388,0.8999999761581421,2.0999999046325684,-7.949999809265137,37.19792175292969,0,
 1187677,-0.276123046875,-0.940673828125,-0.03466796875,-0.24390244483947754,0.4573170840740204,1.402438998222351,0.44999998807907104,0.8999999761581421,-6.150000095367432,36.86246109008789,0,
 1187687,-0.279296875,-0.935546875,-0.035400390625,-0.396341472864151,0.18292683362960815,1.4939024448394775,0.8999999761581421,1.350000023841858,-7.199999809265137,37.19792175292969,0,
 1187697,-0.278564453125,-0.93603515625,-0.031005859375,-0.6097561120986938,0.09146341681480408,0.3353658616542816,0.0,0.30000001192092896,-6.75,37.245845794677734,0,
 1187707,-0.27587890625,-0.935546875,-0.02734375,-0.8536585569381714,0.09146341681480408,-0.12195122241973877,0.0,1.5,-8.550000190734863,37.10207748413086,0,
 1187717,-0.275634765625,-0.93994140625,-0.02685546875,-1.3414634466171265,0.27439025044441223,-0.6097561120986938,0.0,1.5,-8.550000190734863,37.006229400634766,0,
 1187727,-0.273193359375,-0.936279296875,-0.02294921875,-1.8292683362960815,0.9146341681480408,-1.1585365533828735,1.0499999523162842,3.450000047683716,-9.75,36.57492446899414,0,
 1187737,-0.2724609375,-0.933349609375,-0.024169921875,-1.7682926654815674,0.7621951103210449,-1.25,1.2000000476837158,1.649999976158142,-7.199999809265137,37.006229400634766,0,
 1187747,-0.27001953125,-0.934814453125,-0.031494140625,-1.6768293380737305,0.7012194991111755,-1.1280487775802612,0.8999999761581421,0.8999999761581421,-8.699999809265137,37.05415344238281,0,
 1187757,-0.264404296875,-0.939208984375,-0.026611328125,-1.737804889678955,0.9451219439506531,-0.4268292784690857,0.8999999761581421,0.8999999761581421,-8.699999809265137,36.91038513183594,0,
 1187767,-0.2626953125,-0.943115234375,-0.043212890625,-1.097561001777649,0.792682945728302,0.5487805008888245,0.44999998807907104,2.8499999046325684,-8.399999618530273,37.245845794677734,0,
 1187777,-0.267822265625,-0.94140625,-0.036865234375,-0.18292683362960815,0.4878048896789551,1.0670732259750366,0.8999999761581421,2.549999952316284,-6.900000095367432,36.86246109008789,0,
 1187787,-0.26708984375,-0.938232421875,-0.0400390625,0.27439025044441223,0.3048780560493469,1.25,0.75,1.9500000476837158,-7.800000190734863,37.19792175292969,0,
 1187797,-0.26953125,-0.935791015625,-0.03369140625,0.3658536672592163,0.060975611209869385,1.4634146690368652,0.8999999761581421,1.649999976158142,-7.650000095367432,36.814537048339844,0,
 1187807,-0.266357421875,-0.940185546875,-0.02880859375,0.7317073345184326,0.060975611209869385,1.097561001777649,0.8999999761581421,1.649999976158142,-7.650000095367432,37.245845794677734,0,
 1187817,-0.276611328125,-0.939697265625,-0.0322265625,0.21341463923454285,0.3353658616542816,0.7621951103210449,0.75,0.0,-8.25,36.86246109008789,0,
 1187827,-0.27880859375,-0.942626953125,-0.026611328125,-0.24390244483947754,0.27439025044441223,-0.060975611209869385,0.15000000596046448,4.050000190734863,-9.149999618530273,36.814537048339844,0,
 1187837,-0.2724609375,-0.939697265625,-0.027099609375,-0.6402438879013062,0.4268292784690857,-0.3658536672592163,1.2000000476837158,1.350000023841858,-7.650000095367432,37.05415344238281,0,
 1187847,-0.274169921875,-0.939208984375,-0.030029296875,-1.3414634466171265,0.5792682766914368,-0.4573170840740204,1.2000000476837158,1.350000023841858,-7.650000095367432,36.86246109008789,0,
 1187857,-0.27392578125,-0.944091796875,-0.037841796875,-1.0670732259750366,0.5792682766914368,-0.8841463327407837,1.0499999523162842,1.0499999523162842,-8.25,37.006229400634766,0,
 1187867,-0.267333984375,-0.939453125,-0.034912109375,-1.1890244483947754,0.7012194991111755,-0.792682945728302,0.8999999761581421,0.44999998807907104,-7.650000095367432,37.006229400634766,0,
 1187877,-0.263916015625,-0.944580078125,-0.031982421875,-0.6097561120986938,0.3048780560493469,-0.09146341681480408,1.2000000476837158,1.350000023841858,-7.199999809265137,36.814537048339844,0,
 1187887,-0.271728515625,-0.942138671875,-0.0380859375,-0.5487805008888245,0.3658536672592163,0.6707317233085632,-0.30000001192092896,2.25,-9.0,37.006229400634766,0,
 1187897,-0.2734375,-0.94580078125,-0.033935546875,-0.12195122241973877,0.030487805604934692,1.402438998222351,-0.30000001192092896,2.25,-9.0,37.006229400634766,0,
 1187907,-0.272705078125,-0.937744140625,-0.037353515625,0.18292683362960815,0.060975611209869385,1.5243902206420898,1.0499999523162842,3.1500000953674316,-7.5,37.006229400634766,0,
 1187917,-0.273681640625,-0.944580078125,-0.0302734375,0.24390244483947754,-0.15243902802467346,1.3719512224197388,1.5,1.0499999523162842,-7.800000190734863,37.05415344238281,0,
 1187927,-0.271728515625,-0.939697265625,-0.02783203125,-0.030487805604934692,0.12195122241973877,1.1280487775802612,0.75,1.5,-8.25,36.814537048339844,0,
 1187937,-0.275390625,-0.942138671875,-0.0263671875,-0.060975611209869385,-0.030487805604934692,1.1585365533828735,0.75,1.5,-8.25,36.814537048339844,0,
 1187947,-0.272216796875,-0.941162109375,-0.0302734375,-0.4878048896789551,0.18292683362960815,0.6402438879013062,0.44999998807907104,2.8499999046325684,-6.150000095367432,37.006229400634766,0,
 1187957,-0.278076171875,-0.93701171875,-0.03076171875,-0.5487805008888245,0.15243902802467346,0.060975611209869385,-0.15000000596046448,1.649999976158142,-8.399999618530273,36.91038513183594,0,
 1187967,-0.27685546875,-0.937744140625,-0.0224609375,-1.0670732259750366,0.5792682766914368,-0.396341472864151,0.44999998807907104,0.44999998807907104,-6.900000095367432,37.10207748413086,0,
 1187977,-0.2744140625,-0.936767578125,-0.0341796875,-1.0060975551605225,0.4573170840740204,-0.3658536672592163,0.44999998807907104,1.350000023841858,-7.650000095367432,37.006229400634766,0,
 1187987,-0.271240234375,-0.936767578125,-0.028076171875,-1.1280487775802612,0.4878048896789551,-0.6402438879013062,0.44999998807907104,1.350000023841858,-7.650000095367432,37.245845794677734,0,
 1187997,-0.271728515625,-0.94091796875,-0.031982421875,-1.2195122241973877,0.792682945728302,-0.030487805604934692,0.30000001192092896,1.5,-7.5,37.006229400634766,0,
 1188007,-0.26611328125,-0.951416015625,-0.03564453125,-1.097561001777649,0.4268292784690857,0.3048780560493469,0.15000000596046448,2.8499999046325684,-5.699999809265137,37.10207748413086,0,
 1188017,-0.26708984375,-0.941650390625,-0.039306640625,-0.5792682766914368,0.18292683362960815,0.6402438879013062,-0.30000001192092896,0.30000001192092896,-7.5,37.006229400634766,0,
 1188027,-0.265380859375,-0.93701171875,-0.037353515625,-0.396341472864151,0.12195122241973877,1.0365853309631348,-0.30000001192092896,0.30000001192092896,-7.5,36.527000427246094,0,
 1188038,-0.276611328125,-0.939697265625,-0.031982421875,0.3353658616542816,0.21341463923454285,1.1890244483947754,1.0499999523162842,0.30000001192092896,-12.0,37.245845794677734,0,
 1188048,-0.273681640625,-0.940185546875,-0.0263671875,0.27439025044441223,0.030487805604934692,1.0365853309631348,-0.15000000596046448,1.350000023841858,-6.900000095367432,37.05415344238281,0,
 1188058,-0.2783203125,-0.934814453125,-0.031982421875,0.12195122241973877,-0.09146341681480408,0.7317073345184326,0.8999999761581421,2.8499999046325684,-6.900000095367432,36.718692779541016,0,
 1188068,-0.279296875,-0.938720703125,-0.029541015625,-0.12195122241973877,0.12195122241973877,0.5182926654815674,0.75,0.30000001192092896,-7.5,37.006229400634766,0,
 1188078,-0.26904296875,-0.937255859375,-0.027587890625,0.030487805604934692,0.24390244483947754,0.18292683362960815,0.75,0.30000001192092896,-7.5,37.006229400634766,0,
 1188088,-0.272705078125,-0.936279296875,-0.02783203125,-0.7621951103210449,0.4878048896789551,-0.5182926654815674,0.15000000596046448,2.549999952316284,-6.900000095367432,37.006229400634766,0,
 1188098,-0.270263671875,-0.933349609375,-0.02587890625,-0.792682945728302,0.5792682766914368,-0.7012194991111755,1.2000000476837158,1.350000023841858,-7.650000095367432,37.19792175292969,0,
 1188108,-0.26416015625,-0.933837890625,-0.032470703125,-1.25,0.7012194991111755,-0.9146341681480408,1.2000000476837158,2.549999952316284,-6.449999809265137,36.86246109008789,0,
 1188118,-0.272216796875,-0.94287109375,-0.03173828125,-1.25,0.5487805008888245,-0.060975611209869385,1.2000000476837158,2.549999952316284,-6.449999809265137,36.814537048339844,0,
 1188128,-0.269287109375,-0.937255859375,-0.0361328125,-0.7317073345184326,0.27439025044441223,0.5487805008888245,0.30000001192092896,0.75,-7.5,37.006229400634766,0,
 1188138,-0.274658203125,-0.941162109375,-0.033203125,-0.27439025044441223,0.5487805008888245,0.8841463327407837,2.549999952316284,2.700000047683716,-9.75,37.05415344238281,0,
 1188148,-0.270751953125,-0.94384765625,-0.036865234375,-0.4878048896789551,0.12195122241973877,1.0670732259750366,1.2000000476837158,1.649999976158142,-7.949999809265137,37.05415344238281,0,
 1188158,-0.27294921875,-0.939453125,-0.031982421875,-0.3658536672592163,0.18292683362960815,1.0365853309631348,0.75,0.0,-8.25,37.05415344238281,0,
 1188168,-0.274169921875,-0.94189453125,-0.032470703125,-0.09146341681480408,0.4268292784690857,1.0670732259750366,0.75,0.0,-8.25,36.86246109008789,0,
 1188178,-0.271728515625,-0.941162109375,-0.031005859375,-0.3658536672592163,0.21341463923454285,0.7012194991111755,1.649999976158142,0.15000000596046448,-7.199999809265137,37.006229400634766,0,
 1188188,-0.275634765625,-0.941162109375,-0.0224609375,-0.792682945728302,0.7012194991111755,0.5182926654815674,0.44999998807907104,2.8499999046325684,-7.949999809265137,37.006229400634766,0,
 1188198,-0.274658203125,-0.940673828125,-0.027099609375,-0.7012194991111755,0.18292683362960815,0.0,1.0499999523162842,2.700000047683716,-9.0,37.006229400634766,0,
 1188208,-0.27392578125,-0.94140625,-0.02685546875,-0.7012194991111755,0.8231707215309143,-0.3658536672592163,1.5,0.30000001192092896,-8.25,37.006229400634766,0,
 1188218,-0.268798828125,-0.937744140625,-0.027587890625,-1.0670732259750366,0.3353658616542816,-0.060975611209869385,1.5,0.30000001192092896,-8.25,36.814537048339844,0,
 1188228,-0.26904296875,-0.940673828125,-0.028564453125,-0.9451219439506531,0.3658536672592163,-0.4573170840740204,0.44999998807907104,2.0999999046325684,-7.949999809265137,37.006229400634766,0,
 1188238,-0.266357421875,-0.939697265625,-0.020263671875,-0.9146341681480408,0.3658536672592163,0.0,0.75,2.700000047683716,-9.300000190734863,37.006229400634766,0,
 1188248,-0.2646484375,-0.942138671875,-0.035400390625,-0.8231707215309143,0.5182926654815674,0.21341463923454285,0.75,1.9500000476837158,-7.050000190734863,37.10207748413086,0,
 1188258,-0.2666015625,-0.94189453125,-0.032958984375,-0.21341463923454285,0.3353658616542816,0.7012194991111755,0.75,1.9500000476837158,-7.050000190734863,36.86246109008789,0,
 1188268,-0.270263671875,-0.94091796875,-0.02978515625,-0.18292683362960815,0.24390244483947754,0.8536585569381714,0.44999998807907104,1.350000023841858,-6.449999809265137,36.718692779541016,0,
 1188278,-0.277587890625,-0.944091796875,-0.02734375,0.060975611209869385,0.09146341681480408,0.6402438879013062,0.44999998807907104,3.299999952316284,-8.699999809265137,36.91038513183594,0,
 1188288,-0.2724609375,-0.939208984375,-0.0244140625,0.060975611209869385,0.15243902802467346,0.4268292784690857,0.75,0.75,-7.800000190734863,37.006229400634766,0,
 1188298,-0.275634765625,-0.938720703125,-0.03564453125,-0.27439025044441223,-0.060975611209869385,0.3353658616542816,1.0499999523162842,0.75,-8.25,37.05415344238281,0,
 1188308,-0.275146484375,-0.942626953125,-0.029541015625,-0.396341472864151,0.396341472864151,0.0,1.0499999523162842,0.75,-8.25,37.006229400634766,0,
 1188318,-0.278564453125,-0.943603515625,-0.028564453125,-0.15243902802467346,0.396341472864151,0.0,0.75,2.700000047683716,-7.800000190734863,36.718692779541016,0,
 1188328,-0.2666015625,-0.94287109375,-0.032470703125,-0.7317073345184326,0.3658536672592163,-0.27439025044441223,0.75,1.9500000476837158,-8.550000190734863,37.006229400634766,0,
 1188338,-0.267333984375,-0.937744140625,-0.032470703125,-0.396341472864151,0.6402438879013062,-0.09146341681480408,0.15000000596046448,0.44999998807907104,-6.900000095367432,37.006229400634766,0,
 1188348,-0.266845703125,-0.937744140625,-0.033203125,-0.7621951103210449,0.4573170840740204,0.24390244483947754,0.15000000596046448,0.44999998807907104,-6.900000095367432,36.91038513183594,0,
 1188358,-0.2646484375,-0.9375,-0.033935546875,-0.8536585569381714,0.3658536672592163,0.060975611209869385,1.2000000476837158,1.350000023841858,-7.949999809265137,37.05415344238281,0,
 1188368,-0.271484375,-0.939453125,-0.02978515625,-0.09146341681480408,0.030487805604934692,0.7317073345184326,0.15000000596046448,1.350000023841858,-7.650000095367432,37.006229400634766,0,
 1188378,-0.27197265625,-0.941162109375,-0.031494140625,-0.09146341681480408,0.3353658616542816,0.8231707215309143,0.30000001192092896,2.25,-7.050000190734863,37.006229400634766,0,
 1188388,-0.2734375,-0.938720703125,-0.02880859375,-0.27439025044441223,-0.060975611209869385,0.8231707215309143,-1.0499999523162842,2.25,-7.050000190734863,37.05415344238281,0,
 1188398,-0.2705078125,-0.93603515625,-0.027587890625,-0.24390244483947754,0.3658536672592163,0.6402438879013062,-1.0499999523162842,2.25,-7.050000190734863,37.19792175292969,0,
 1188408,-0.273681640625,-0.939208984375,-0.0263671875,-0.6097561120986938,0.5792682766914368,0.6707317233085632,0.44999998807907104,1.350000023841858,-9.149999618530273,37.34169006347656,0,
 1188418,-0.272705078125,-0.94775390625,-0.031494140625,-0.5487805008888245,0.24390244483947754,0.060975611209869385,-2.0999999046325684,0.44999998807907104,-6.449999809265137,37.006229400634766,0,
 1188428,-0.27490234375,-0.938232421875,-0.02880859375,-0.3658536672592163,0.6402438879013062,-0.060975611209869385,-0.30000001192092896,1.9500000476837158,-7.5,37.006229400634766,0,
 1188438,-0.2734375,-0.93017578125,-0.030029296875,-1.0365853309631348,0.3048780560493469,0.09146341681480408,-0.30000001192092896,1.9500000476837158,-7.5,37.19792175292969,0,
 1188448,-0.26806640625,-0.934326171875,-0.027587890625,-1.1890244483947754,0.5182926654815674,-0.396341472864151,0.75,1.0499999523162842,-8.550000190734863,37.05415344238281,0,
 1188458,-0.26416015625,-0.93896484375,-0.027587890625,-1.0670732259750366,0.4573170840740204,-0.3658536672592163,1.649999976158142,2.0999999046325684,-7.650000095367432,36.718692779541016,0,
 1188468,-0.26806640625,-0.93896484375,-0.02880859375,-0.9756097793579102,0.7621951103210449,-0.15243902802467346,2.4000000953674316,1.350000023841858,-8.699999809265137,36.718692779541016,0,
 1188478,-0.271728515625,-0.932373046875,-0.03369140625,-0.7012194991111755,0.4268292784690857,0.5182926654815674,0.75,1.9500000476837158,-7.800000190734863,37.19792175292969,0,
 1188488,-0.274658203125,-0.942626953125,-0.027099609375,-0.5182926654815674,0.396341472864151,0.5487805008888245,0.75,1.9500000476837158,-7.800000190734863,37.05415344238281,0,
 1188498,-0.275146484375,-0.935302734375,-0.03466796875,-0.396341472864151,0.3048780560493469,0.8536585569381714,-2.0999999046325684,0.8999999761581421,-6.900000095367432,37.006229400634766,0,
 1188508,-0.27685546875,-0.9404296875,-0.029052734375,-0.3658536672592163,0.18292683362960815,0.9146341681480408,1.2000000476837158,1.350000023841858,-6.900000095367432,37.245845794677734,0,
 1188518,-0.273681640625,-0.934814453125,-0.023681640625,0.030487805604934692,0.3658536672592163,0.4268292784690857,0.8999999761581421,1.649999976158142,-7.650000095367432,36.814537048339844,0,
 1188528,-0.269287109375,-0.9365234375,-0.030029296875,-0.4878048896789551,0.12195122241973877,0.3353658616542816,0.8999999761581421,1.649999976158142,-7.650000095367432,37.10207748413086,0,
 1188538,-0.276123046875,-0.937744140625,-0.029541015625,-0.4573170840740204,0.24390244483947754,-0.27439025044441223,1.649999976158142,2.0999999046325684,-6.449999809265137,37.10207748413086,0,
 1188548,-0.268798828125,-0.936767578125,-0.03662109375,-0.7317073345184326,0.4268292784690857,-0.3658536672592163,3.299999952316284,1.5,-11.25,37.006229400634766,0,
 1188558,-0.274658203125,-0.94091796875,-0.028076171875,-1.0060975551605225,0.7317073345184326,-0.396341472864151,0.75,1.5,-7.800000190734863,36.91038513183594,0,
 1188568,-0.27197265625,-0.93896484375,-0.0380859375,-0.9451219439506531,0.3353658616542816,0.15243902802467346,0.44999998807907104,1.350000023841858,-6.449999809265137,37.006229400634766,0,
 1188578,-0.271728515625,-0.940185546875,-0.032958984375,-0.4573170840740204,0.27439025044441223,0.3658536672592163,0.44999998807907104,1.350000023841858,-6.449999809265137,36.86246109008789,0,
 1188588,-0.27001953125,-0.941162109375,-0.041259765625,-0.18292683362960815,0.15243902802467346,0.5182926654815674,0.15000000596046448,2.8499999046325684,-7.650000095367432,37.245845794677734,0,
 1188598,-0.27001953125,-0.938720703125,-0.03125,-0.24390244483947754,0.18292683362960815,0.8231707215309143,-0.44999998807907104,1.649999976158142,-7.949999809265137,37.10207748413086,0,
 1188608,-0.2705078125,-0.9365234375,-0.031005859375,0.15243902802467346,0.3658536672592163,0.7012194991111755,1.2000000476837158,2.0999999046325684,-7.949999809265137,36.91038513183594,0,
 1188618,-0.273193359375,-0.936767578125,-0.0263671875,0.12195122241973877,0.21341463923454285,0.5182926654815674,-1.649999976158142,0.8999999761581421,-7.199999809265137,37.05415344238281,0,
 1188628,-0.270751953125,-0.939453125,-0.03125,-0.3658536672592163,0.5182926654815674,0.27439025044441223,-1.649999976158142,0.8999999761581421,-7.199999809265137,37.10207748413086,0,
 1188638,-0.27392578125,-0.943603515625,-0.03076171875,-0.6707317233085632,0.3048780560493469,0.24390244483947754,-0.30000001192092896,0.0,-7.050000190734863,37.245845794677734,0,
 1188648,-0.274169921875,-0.94287109375,-0.027587890625,-0.9756097793579102,0.6097561120986938,0.4573170840740204,0.8999999761581421,3.299999952316284,-8.699999809265137,37.10207748413086,0,
 1188658,-0.267822265625,-0.936279296875,-0.0322265625,-1.1280487775802612,0.4268292784690857,0.5487805008888245,0.15000000596046448,1.649999976158142,-6.900000095367432,36.814537048339844,0,
 1188668,-0.269287109375,-0.937255859375,-0.034912109375,-0.8536585569381714,0.396341472864151,0.7621951103210449,0.15000000596046448,1.649999976158142,-6.900000095367432,36.814537048339844,0,
 1188678,-0.270751953125,-0.93359375,-0.03466796875,-0.7012194991111755,0.5487805008888245,0.6402438879013062,1.7999999523162842,1.9500000476837158,-5.550000190734863,37.006229400634766,0,
 1188688,-0.269775390625,-0.936767578125,-0.03369140625,-0.3353658616542816,0.24390244483947754,0.7621951103210449,1.0499999523162842,3.9000000953674316,-7.5,36.814537048339844,0,
 1188698,-0.269287109375,-0.942626953125,-0.03466796875,-0.5487805008888245,0.21341463923454285,0.5792682766914368,0.44999998807907104,1.350000023841858,-6.900000095367432,37.05415344238281,0,
 1188708,-0.2763671875,-0.942138671875,-0.030029296875,-0.4573170840740204,0.24390244483947754,0.7621951103210449,0.8999999761581421,1.649999976158142,-6.449999809265137,37.006229400634766,0,
 1188718,-0.2734375,-0.94140625,-0.029296875,-0.396341472864151,0.21341463923454285,0.4878048896789551,0.8999999761581421,1.649999976158142,-6.449999809265137,37.245845794677734,0,
 1188728,-0.270751953125,-0.939453125,-0.033203125,-0.5487805008888245,0.27439025044441223,-0.396341472864151,2.0999999046325684,0.8999999761581421,-7.949999809265137,37.19792175292969,0,
 1188739,-0.271728515625,-0.944580078125,-0.034912109375,-0.6097561120986938,0.24390244483947754,-0.12195122241973877,0.8999999761581421,1.350000023841858,-6.150000095367432,37.34169006347656,0,
 1188749,-0.270263671875,-0.93408203125,-0.030517578125,-0.9756097793579102,0.5487805008888245,-0.27439025044441223,0.44999998807907104,1.350000023841858,-7.949999809265137,36.91038513183594,0,
 1188759,-0.27587890625,-0.939453125,-0.030517578125,-0.7012194991111755,0.3048780560493469,-0.5487805008888245,0.44999998807907104,1.350000023841858,-7.949999809265137,36.718692779541016,0,
 1188769,-0.267822265625,-0.9462890625,-0.029296875,-1.0670732259750366,0.4878048896789551,-0.09146341681480408,0.8999999761581421,1.350000023841858,-7.650000095367432,37.05415344238281,0,
 1188779,-0.267578125,-0.936767578125,-0.035888671875,-0.8231707215309143,0.4268292784690857,0.09146341681480408,0.0,1.0499999523162842,-7.800000190734863,37.19792175292969,0,
 1188789,-0.271240234375,-0.937255859375,-0.037353515625,-0.24390244483947754,0.18292683362960815,0.4573170840740204,1.649999976158142,0.8999999761581421,-8.399999618530273,36.86246109008789,0,
 1188799,-0.275146484375,-0.93896484375,-0.038818359375,0.15243902802467346,-0.09146341681480408,0.6707317233085632,0.75,3.1500000953674316,-7.800000190734863,37.05415344238281,0,
 1188809,-0.27197265625,-0.9375,-0.02685546875,0.4268292784690857,0.060975611209869385,0.8536585569381714,0.75,3.1500000953674316,-7.800000190734863,36.86246109008789,0,
 1188819,-0.276123046875,-0.94189453125,-0.027587890625,0.4573170840740204,0.15243902802467346,0.7012194991111755,0.30000001192092896,1.9500000476837158,-6.75,37.05415344238281,0,
 1188829,-0.280029296875,-0.935546875,-0.028564453125,0.060975611209869385,-0.030487805604934692,0.12195122241973877,0.8999999761581421,-0.44999998807907104,-7.650000095367432,37.05415344238281,0,
 1188839,-0.276611328125,-0.941650390625,-0.0283203125,-0.21341463923454285,0.21341463923454285,0.0,-0.30000001192092896,1.0499999523162842,-7.5,37.006229400634766,0,
 1188849,-0.27734375,-0.93701171875,-0.03515625,-0.5792682766914368,0.4268292784690857,-0.4268292784690857,-0.30000001192092896,1.0499999523162842,-7.5,37.05415344238281,0,
 1188859,-0.27392578125,-0.938720703125,-0.028564453125,-0.3353658616542816,0.792682945728302,-0.7317073345184326,0.8999999761581421,0.15000000596046448,-11.699999809265137,36.86246109008789,0,
 1188869,-0.262939453125,-0.939208984375,-0.029296875,-0.3353658616542816,0.396341472864151,-0.8536585569381714,0.15000000596046448,0.8999999761581421,-6.900000095367432,36.86246109008789,0,
 1188879,-0.26806640625,-0.941162109375,-0.02490234375,-0.5487805008888245,0.3658536672592163,-0.8841463327407837,0.15000000596046448,0.44999998807907104,-8.399999618530273,37.006229400634766,0,
 1188889,-0.273193359375,-0.9462890625,-0.030029296875,-0.6097561120986938,0.4878048896789551,0.09146341681480408,-0.30000001192092896,1.9500000476837158,-7.050000190734863,37.10207748413086,0,
 1188899,-0.2744140625,-0.942138671875,-0.029296875,-0.9146341681480408,0.24390244483947754,0.4573170840740204,-0.30000001192092896,1.9500000476837158,-7.050000190734863,37.006229400634766,0,
 1188909,-0.2705078125,-0.939208984375,-0.03759765625,-0.5487805008888245,0.18292683362960815,0.7012194991111755,-0.15000000596046448,2.0999999046325684,-7.949999809265137,36.91038513183594,0,
 1188919,-0.270263671875,-0.94091796875,-0.033935546875,-0.24390244483947754,0.060975611209869385,0.8536585569381714,1.0499999523162842,0.75,-7.050000190734863,37.05415344238281,0,
 1188929,-0.267333984375,-0.937744140625,-0.033935546875,-0.060975611209869385,0.060975611209869385,0.6707317233085632,-0.44999998807907104,2.549999952316284,-7.199999809265137,37.05415344238281,0,
 1188939,-0.266845703125,-0.9423828125,-0.03173828125,0.0,0.15243902802467346,0.9756097793579102,-0.44999998807907104,2.549999952316284,-7.199999809265137,37.006229400634766,0,
 1188949,-0.273681640625,-0.942138671875,-0.033203125,-0.09146341681480408,0.030487805604934692,0.3353658616542816,1.7999999523162842,1.9500000476837158,-7.5,37.245845794677734,0,
 1188959,-0.2685546875,-0.942138671875,-0.029541015625,-0.6402438879013062,0.396341472864151,0.060975611209869385,2.4000000953674316,2.549999952316284,-9.899999618530273,36.814537048339844,0,
 1188969,-0.273681640625,-0.945556640625,-0.033203125,-0.7012194991111755,0.3658536672592163,0.24390244483947754,1.2000000476837158,0.15000000596046448,-7.650000095367432,37.19792175292969,0,
 1188979,-0.273681640625,-0.941162109375,-0.029052734375,-0.5792682766914368,0.5487805008888245,0.21341463923454285,-0.75,1.9500000476837158,-7.5,37.006229400634766,0,
 1188989,-0.271240234375,-0.94189453125,-0.030029296875,-0.8231707215309143,0.3658536672592163,0.396341472864151,-0.75,1.9500000476837158,-7.5,36.86246109008789,0,
 1188999,-0.265869140625,-0.939208984375,-0.03564453125,-0.4878048896789551,0.4573170840740204,0.3658536672592163,-1.2000000476837158,2.549999952316284,-5.699999809265137,37.19792175292969,0,
 1189009,-0.269775390625,-0.93798828125,-0.035400390625,-0.4878048896789551,0.24390244483947754,0.5487805008888245,1.7999999523162842,0.75,-6.75,36.86246109008789,0,
 1189019,-0.26904296875,-0.938720703125,-0.031494140625,-0.060975611209869385,0.4878048896789551,0.396341472864151,1.649999976158142,0.8999999761581421,-6.449999809265137,36.86246109008789,0,
 1189029,-0.273193359375,-0.9375,-0.029296875,0.12195122241973877,0.3353658616542816,0.3353658616542816,1.649999976158142,0.8999999761581421,-6.449999809265137,37.245845794677734,0,
 1189039,-0.271240234375,-0.93603515625,-0.031005859375,-0.4573170840740204,0.24390244483947754,0.6097561120986938,0.44999998807907104,1.350000023841858,-7.949999809265137,37.05415344238281,0,
 1189049,-0.277587890625,-0.944091796875,-0.030517578125,-0.6707317233085632,0.09146341681480408,0.3658536672592163,0.44999998807907104,1.649999976158142,-7.650000095367432,36.718692779541016,0,
 1189059,-0.27197265625,-0.9384765625,-0.02880859375,-0.5792682766914368,0.396341472864151,0.060975611209869385,-0.44999998807907104,2.0999999046325684,-9.449999809265137,37.006229400634766,0,
 1189069,-0.27587890625,-0.940185546875,-0.027099609375,-0.7012194991111755,0.6707317233085632,-0.060975611209869385,1.2000000476837158,1.649999976158142,-7.199999809265137,37.05415344238281,0,
 1189079,-0.268310546875,-0.939697265625,-0.028076171875,-1.2195122241973877,0.24390244483947754,-0.030487805604934692,1.2000000476837158,1.649999976158142,-7.199999809265137,37.006229400634766,0,
 1189089,-0.266845703125,-0.937255859375,-0.037109375,-1.25,0.3658536672592163,0.0,1.5,0.75,-7.800000190734863,37.19792175292969,0,
 1189099,-0.271240234375,-0.94189453125,-0.02880859375,-1.1280487775802612,0.6097561120986938,-0.21341463923454285,-0.8999999761581421,2.0999999046325684,-7.650000095367432,36.814537048339844,0,
 1189109,-0.271240234375,-0.9423828125,-0.033447265625,-0.8841463327407837,0.5792682766914368,0.21341463923454285,1.5,1.9500000476837158,-7.5,37.10207748413086,0,
 1189119,-0.2705078125,-0.94140625,-0.037109375,-0.5487805008888245,0.4268292784690857,0.5182926654815674,1.0499999523162842,2.700000047683716,-7.050000190734863,37.245845794677734,0,
 1189129,-0.26513671875,-0.94384765625,-0.030029296875,-0.5182926654815674,0.6707317233085632,0.6097561120986938,1.0499999523162842,2.700000047683716,-7.050000190734863,37.006229400634766,0,
 1189139,-0.271728515625,-0.942138671875,-0.03271484375,-0.5792682766914368,0.3658536672592163,0.5792682766914368,0.8999999761581421,1.649999976158142,-7.650000095367432,37.006229400634766,0,
 1189149,-0.26611328125,-0.94482421875,-0.034912109375,-0.4573170840740204,0.18292683362960815,0.24390244483947754,0.15000000596046448,0.44999998807907104,-6.449999809265137,36.86246109008789,0,
 1189159,-0.267578125,-0.933837890625,-0.027587890625,-0.7317073345184326,0.5487805008888245,0.3658536672592163,-0.15000000596046448,1.649999976158142,-7.650000095367432,37.006229400634766,0,
 1189169,-0.269287109375,-0.9443359375,-0.030029296875,-1.097561001777649,0.3048780560493469,0.060975611209869385,-0.15000000596046448,1.649999976158142,-7.650000095367432,36.86246109008789,0,
 1189179,-0.2685546875,-0.939208984375,-0.032958984375,-0.9146341681480408,0.396341472864151,0.4878048896789551,-0.75,2.25,-7.050000190734863,37.10207748413086,0,
 1189189,-0.27392578125,-0.941162109375,-0.033203125,-0.6097561120986938,0.6402438879013062,0.6402438879013062,0.44999998807907104,1.649999976158142,-6.900000095367432,37.05415344238281,0,
 1189199,-0.270263671875,-0.939697265625,-0.035888671875,-0.3353658616542816,0.5487805008888245,0.6402438879013062,-0.15000000596046448,2.8499999046325684,-6.150000095367432,36.91038513183594,0,
 1189209,-0.269287109375,-0.9365234375,-0.025634765625,-0.3353658616542816,0.030487805604934692,0.7317073345184326,0.75,0.30000001192092896,-8.25,37.10207748413086,0,
 1189219,-0.270263671875,-0.939208984375,-0.030029296875,-0.21341463923454285,0.24390244483947754,0.4878048896789551,0.75,0.30000001192092896,-8.25,37.05415344238281,0,
 1189229,-0.27880859375,-0.935546875,-0.030517578125,-0.060975611209869385,-0.15243902802467346,0.5182926654815674,0.8999999761581421,2.549999952316284,-6.900000095367432,36.814537048339844,0,
 1189239,-0.27294921875,-0.94091796875,-0.0244140625,0.12195122241973877,0.21341463923454285,0.09146341681480408,-0.75,0.75,-8.25,37.34169006347656,0,
 1189249,-0.275390625,-0.936279296875,-0.03076171875,-0.12195122241973877,0.24390244483947754,0.0,1.0499999523162842,2.700000047683716,-7.800000190734863,36.86246109008789,0,
 1189259,-0.272705078125,-0.938232421875,-0.03173828125,-0.3048780560493469,0.396341472864151,-0.5182926654815674,1.0499999523162842,2.700000047683716,-7.800000190734863,36.814537048339844,0,
 1189269,-0.264404296875,-0.9365234375,-0.025634765625,-0.5182926654815674,0.396341472864151,-0.3048780560493469,1.5,1.5,-10.5,37.38961410522461,0,
 1189279,-0.27197265625,-0.94091796875,-0.031005859375,-0.6097561120986938,0.396341472864151,-0.396341472864151,-0.75,2.700000047683716,-8.25,36.91038513183594,0,
 1189289,-0.268310546875,-0.942626953125,-0.038818359375,-0.3048780560493469,0.24390244483947754,0.060975611209869385,0.15000000596046448,0.8999999761581421,-6.150000095367432,37.245845794677734,0,
 1189299,-0.270751953125,-0.93994140625,-0.035400390625,-0.5792682766914368,0.4268292784690857,0.8231707215309143,-0.44999998807907104,1.649999976158142,-7.199999809265137,36.91038513183594,0,
 1189309,-0.271240234375,-0.93408203125,-0.033447265625,0.030487805604934692,0.396341472864151,0.8841463327407837,-0.44999998807907104,1.649999976158142,-7.199999809265137,37.05415344238281,0,
 1189319,-0.27001953125,-0.938232421875,-0.033203125,0.12195122241973877,0.09146341681480408,0.9756097793579102,-0.15000000596046448,0.8999999761581421,-7.199999809265137,37.006229400634766,0,
 1189329,-0.277587890625,-0.9404296875,-0.032958984375,0.15243902802467346,0.24390244483947754,1.2804877758026123,0.8999999761581421,0.8999999761581421,-6.150000095367432,37.19792175292969,0,
 1189339,-0.274169921875,-0.94189453125,-0.0224609375,0.12195122241973877,0.18292683362960815,0.6707317233085632,1.5,0.75,-8.550000190734863,37.006229400634766,0,
 1189349,-0.27099609375,-0.940673828125,-0.030517578125,-0.09146341681480408,0.15243902802467346,0.396341472864151,1.5,0.75,-8.550000190734863,36.814537048339844,0,
 1189359,-0.2734375,-0.94287109375,-0.0263671875,-0.7317073345184326,0.27439025044441223,0.030487805604934692,0.8999999761581421,2.8499999046325684,-8.399999618530273,37.006229400634766,0,
 1189369,-0.27392578125,-0.9404296875,-0.028076171875,-0.8841463327407837,0.5182926654815674,-0.060975611209869385,2.549999952316284,0.30000001192092896,-8.550000190734863,36.91038513183594,0,
 1189379,-0.27197265625,-0.940185546875,-0.02880859375,-1.0670732259750366,0.5182926654815674,-0.5487805008888245,1.2000000476837158,2.549999952316284,-7.650000095367432,36.67076873779297,0,
 1189389,-0.2744140625,-0.931884765625,-0.02880859375,-0.9451219439506531,0.6707317233085632,-0.5182926654815674,-0.15000000596046448,1.649999976158142,-8.699999809265137,37.10207748413086,0,
 1189399,-0.267578125,-0.943359375,-0.029296875,-1.2195122241973877,0.4573170840740204,-0.27439025044441223,-0.15000000596046448,1.649999976158142,-8.699999809265137,36.86246109008789,0,
 1189409,-0.26611328125,-0.943115234375,-0.03271484375,-1.1280487775802612,0.7012194991111755,-0.15243902802467346,1.2000000476837158,2.8499999046325684,-8.399999618530273,37.19792175292969,0,
 1189419,-0.26416015625,-0.945556640625,-0.035888671875,-0.9146341681480408,0.5792682766914368,0.5487805008888245,-0.30000001192092896,0.75,-9.0,37.19792175292969,0,
 1189429,-0.26611328125,-0.9404296875,-0.03564453125,-1.0060975551605225,0.3353658616542816,0.9146341681480408,0.15000000596046448,0.8999999761581421,-7.650000095367432,36.86246109008789,0,
 1189439,-0.2705078125,-0.933837890625,-0.036376953125,-0.4878048896789551,0.12195122241973877,1.3109756708145142,0.15000000596046448,0.8999999761581421,-7.650000095367432,37.19792175292969,0,
 1189449,-0.272216796875,-0.9384765625,-0.03466796875,0.060975611209869385,-0.15243902802467346,1.4939024448394775,0.75,2.25,-7.5,37.006229400634766,0,
 1189459,-0.274169921875,-0.940185546875,-0.02880859375,0.24390244483947754,0.09146341681480408,1.097561001777649,-0.15000000596046448,0.8999999761581421,-6.449999809265137,37.05415344238281,0,
 1189469,-0.275634765625,-0.9365234375,-0.024658203125,-0.24390244483947754,0.060975611209869385,0.4268292784690857,2.0999999046325684,4.5,-8.699999809265137,36.91038513183594,0,
 1189479,-0.275634765625,-0.942138671875,-0.02978515625,-0.6707317233085632,0.3658536672592163,0.0,0.75,1.0499999523162842,-7.5,37.10207748413086,0,
 1189489,-0.26806640625,-0.94189453125,-0.026123046875,-0.9451219439506531,0.7317073345184326,-0.21341463923454285,0.75,1.0499999523162842,-7.5,37.006229400634766,0,
 1189499,-0.275146484375,-0.942138671875,-0.030517578125,-1.25,0.7621951103210449,-0.6097561120986938,1.2000000476837158,0.44999998807907104,-8.399999618530273,37.006229400634766,0,
 1189510,-0.2734375,-0.941162109375,-0.02490234375,-1.25,0.7012194991111755,-0.7621951103210449,0.0,0.30000001192092896,-8.25,36.86246109008789,0,
 1189520,-0.26806640625,-0.940673828125,-0.030517578125,-1.0670732259750366,0.6402438879013062,-0.5792682766914368,2.25,1.9500000476837158,-7.050000190734863,37.006229400634766,0,
 1189530,-0.263427734375,-0.941650390625,-0.029296875,-1.097561001777649,0.3048780560493469,0.3658536672592163,2.25,1.9500000476837158,-7.050000190734863,37.006229400634766,0,
