timestamp,accl_x,accl_y,accl_z,gyro_x,gyro_y,gyro_z,mag_x,mag_y,mag_z,temp,emg,
 233860,-0.293212890625,-0.93603515625,-0.039794921875,-0.396341472864151,0.09146341681480408,0.5182926654815674,0.30000001192092896,0.75,-7.050000190734863,33.172401428222656,0,
 233870,-0.293212890625,-0.93798828125,-0.044921875,-0.3048780560493469,0.21341463923454285,0.15243902802467346,0.30000001192092896,0.75,-7.050000190734863,32.980712890625,0,
 233880,-0.296875,-0.927978515625,-0.038330078125,-0.5182926654815674,0.3658536672592163,0.21341463923454285,0.75,0.0,-11.25,33.50786209106445,0,
 233890,-0.291259765625,-0.93310546875,-0.039794921875,-0.6707317233085632,0.27439025044441223,0.21341463923454285,2.549999952316284,-0.30000001192092896,-6.75,33.50786209106445,0,
 233900,-0.28955078125,-0.936279296875,-0.039794921875,-0.6402438879013062,0.27439025044441223,0.030487805604934692,0.44999998807907104,-0.44999998807907104,-6.900000095367432,33.50786209106445,0,
 233910,-0.291015625,-0.934814453125,-0.037841796875,-0.7317073345184326,0.24390244483947754,0.18292683362960815,1.0499999523162842,0.30000001192092896,-7.050000190734863,33.172401428222656,0,
 233920,-0.28857421875,-0.932861328125,-0.039794921875,-0.6402438879013062,0.4268292784690857,0.396341472864151,1.0499999523162842,0.30000001192092896,-7.050000190734863,33.50786209106445,0,
 233930,-0.29541015625,-0.93603515625,-0.044921875,-0.5182926654815674,0.396341472864151,0.4878048896789551,0.15000000596046448,-0.8999999761581421,-7.650000095367432,33.50786209106445,0,
 233940,-0.294189453125,-0.93505859375,-0.041259765625,-0.24390244483947754,0.24390244483947754,0.24390244483947754,0.0,0.75,-6.75,33.31616973876953,0,
 233950,-0.29248046875,-0.934326171875,-0.04052734375,-0.4878048896789551,0.24390244483947754,0.09146341681480408,1.0499999523162842,1.9500000476837158,-7.5,33.2203254699707,0,
 233960,-0.28857421875,-0.9326171875,-0.035888671875,-0.4268292784690857,0.060975611209869385,0.3658536672592163,1.0499999523162842,1.0499999523162842,-8.550000190734863,33.172401428222656,0,
 233970,-0.297119140625,-0.93310546875,-0.04443359375,-0.3658536672592163,0.18292683362960815,0.3658536672592163,1.0499999523162842,1.0499999523162842,-8.550000190734863,33.412017822265625,0,
 233980,-0.298828125,-0.9345703125,-0.039794921875,-0.4878048896789551,0.3048780560493469,0.4878048896789551,1.649999976158142,3.299999952316284,-10.649999618530273,33.412017822265625,0,
 233990,-0.296630859375,-0.93359375,-0.038818359375,-0.9756097793579102,0.5182926654815674,0.3353658616542816,0.8999999761581421,0.15000000596046448,-6.900000095367432,33.412017822265625,0,
 234000,-0.2890625,-0.93017578125,-0.03759765625,-0.792682945728302,0.4573170840740204,0.18292683362960815,0.44999998807907104,0.8999999761581421,-6.900000095367432,33.31616973876953,0,
 234010,-0.29052734375,-0.93798828125,-0.044921875,-0.5487805008888245,0.3353658616542816,0.12195122241973877,0.30000001192092896,0.30000001192092896,-7.5,33.31616973876953,0,
 234020,-0.303466796875,-0.934814453125,-0.04296875,-0.5182926654815674,0.12195122241973877,0.09146341681480408,0.30000001192092896,0.30000001192092896,-7.5,33.412017822265625,0,
 234030,-0.29345703125,-0.932861328125,-0.04345703125,-0.27439025044441223,0.396341472864151,0.21341463923454285,0.30000001192092896,0.0,-5.550000190734863,33.50786209106445,0,
 234040,-0.302001953125,-0.93310546875,-0.039306640625,-0.6402438879013062,0.5182926654815674,0.4268292784690857,2.0999999046325684,1.350000023841858,-7.199999809265137,33.2203254699707,0,
 234050,-0.296142578125,-0.936767578125,-0.03857421875,-0.4878048896789551,0.24390244483947754,0.060975611209869385,2.549999952316284,0.30000001192092896,-7.050000190734863,33.50786209106445,0,
 234060,-0.295654296875,-0.929931640625,-0.037109375,-0.6707317233085632,0.3353658616542816,0.09146341681480408,0.8999999761581421,-0.44999998807907104,-8.399999618530273,33.124481201171875,0,
 234070,-0.29345703125,-0.93408203125,-0.040283203125,-0.3048780560493469,0.18292683362960815,0.18292683362960815,0.8999999761581421,-0.44999998807907104,-8.399999618530273,33.412017822265625,0,
 234080,-0.292236328125,-0.933837890625,-0.036865234375,-0.6097561120986938,0.3353658616542816,0.24390244483947754,-0.30000001192092896,1.9500000476837158,-8.550000190734863,33.50786209106445,0,
 234090,-0.295166015625,-0.932861328125,-0.038330078125,-0.6402438879013062,0.5487805008888245,0.24390244483947754,1.2000000476837158,0.8999999761581421,-6.900000095367432,33.124481201171875,0,
 234100,-0.297607421875,-0.936279296875,-0.043701171875,-0.3048780560493469,0.27439025044441223,0.15243902802467346,-0.15000000596046448,0.44999998807907104,-6.900000095367432,33.31616973876953,0,
 234110,-0.295654296875,-0.939208984375,-0.046630859375,-0.7317073345184326,0.3048780560493469,0.09146341681480408,0.30000001192092896,0.30000001192092896,-6.75,33.36409378051758,0,
 234120,-0.296630859375,-0.93359375,-0.0380859375,-0.792682945728302,0.21341463923454285,0.3048780560493469,0.30000001192092896,0.30000001192092896,-6.75,33.36409378051758,0,
 234130,-0.29248046875,-0.93701171875,-0.046142578125,-0.4268292784690857,0.24390244483947754,0.27439025044441223,-0.15000000596046448,-0.15000000596046448,-7.199999809265137,33.412017822265625,0,
 234140,-0.29248046875,-0.933837890625,-0.0390625,-0.7317073345184326,0.18292683362960815,0.21341463923454285,1.649999976158142,2.0999999046325684,-6.150000095367432,33.50786209106445,0,
 234150,-0.29443359375,-0.938720703125,-0.040283203125,-0.4878048896789551,0.3353658616542816,0.3048780560493469,0.15000000596046448,0.44999998807907104,-7.650000095367432,33.412017822265625,0,
 234160,-0.291748046875,-0.929443359375,-0.04248046875,-0.4573170840740204,0.3048780560493469,0.3658536672592163,1.2000000476837158,0.44999998807907104,-5.699999809265137,33.2203254699707,0,
 234170,-0.291015625,-0.939208984375,-0.04150390625,-0.6402438879013062,0.3353658616542816,0.27439025044441223,1.2000000476837158,0.44999998807907104,-5.699999809265137,33.412017822265625,0,
 234180,-0.294677734375,-0.9384765625,-0.037841796875,-0.24390244483947754,0.27439025044441223,0.5792682766914368,0.15000000596046448,0.15000000596046448,-7.650000095367432,33.50786209106445,0,
 234190,-0.295654296875,-0.93603515625,-0.04150390625,0.15243902802467346,0.3658536672592163,0.4573170840740204,1.5,-0.75,-10.5,33.412017822265625,0,
 234200,-0.2978515625,-0.931396484375,-0.04248046875,-0.396341472864151,0.12195122241973877,0.3048780560493469,0.75,0.30000001192092896,-6.300000190734863,33.412017822265625,0,
 234210,-0.29296875,-0.934814453125,-0.040283203125,-0.24390244483947754,0.3048780560493469,0.6402438879013062,0.75,0.30000001192092896,-6.300000190734863,33.36409378051758,0,
 234220,-0.29443359375,-0.9326171875,-0.0439453125,-0.396341472864151,0.3658536672592163,0.12195122241973877,0.75,0.30000001192092896,-6.300000190734863,33.31616973876953,0,
 234230,-0.2919921875,-0.935546875,-0.03857421875,-0.3658536672592163,0.3658536672592163,0.24390244483947754,0.15000000596046448,0.8999999761581421,-7.949999809265137,33.5557861328125,0,
 234240,-0.294189453125,-0.931884765625,-0.04345703125,-0.4573170840740204,0.18292683362960815,-0.030487805604934692,1.0499999523162842,1.0499999523162842,-7.050000190734863,33.412017822265625,0,
 234250,-0.295654296875,-0.932373046875,-0.0400390625,-0.4878048896789551,0.27439025044441223,0.3048780560493469,0.15000000596046448,1.350000023841858,-6.449999809265137,33.412017822265625,0,
 234260,-0.294677734375,-0.934814453125,-0.044921875,-0.792682945728302,0.4573170840740204,0.18292683362960815,0.15000000596046448,1.350000023841858,-6.449999809265137,33.2203254699707,0,
 234270,-0.296875,-0.929443359375,-0.041259765625,-0.5487805008888245,0.3353658616542816,0.24390244483947754,0.44999998807907104,0.15000000596046448,-7.949999809265137,33.31616973876953,0,
 234280,-0.2919921875,-0.932861328125,-0.04052734375,-0.4573170840740204,0.3658536672592163,0.3658536672592163,1.2000000476837158,1.350000023841858,-7.199999809265137,33.65163040161133,0,
 234290,-0.294677734375,-0.93310546875,-0.0439453125,-0.6097561120986938,-0.030487805604934692,0.3353658616542816,0.8999999761581421,-0.15000000596046448,-10.949999809265137,33.50786209106445,0,
 234300,-0.288818359375,-0.931396484375,-0.043701171875,-0.3353658616542816,0.4878048896789551,0.3048780560493469,1.7999999523162842,1.9500000476837158,-6.75,33.36409378051758,0,
 234310,-0.294189453125,-0.935546875,-0.03857421875,-0.27439025044441223,0.3048780560493469,0.5487805008888245,1.7999999523162842,1.9500000476837158,-6.75,33.172401428222656,0,
 234320,-0.287841796875,-0.930419921875,-0.03857421875,-0.3048780560493469,0.15243902802467346,0.4878048896789551,1.2000000476837158,1.350000023841858,-7.949999809265137,33.50786209106445,0,
 234330,-0.296142578125,-0.936279296875,-0.0400390625,-0.4878048896789551,0.27439025044441223,0.0,1.649999976158142,1.350000023841858,-7.199999809265137,33.412017822265625,0,
 234340,-0.296630859375,-0.9365234375,-0.044677734375,-0.3658536672592163,0.15243902802467346,0.3353658616542816,-0.15000000596046448,1.350000023841858,-7.650000095367432,33.124481201171875,0,
 234350,-0.28857421875,-0.931396484375,-0.04296875,-0.6097561120986938,0.3658536672592163,0.3048780560493469,0.8999999761581421,1.649999976158142,-8.699999809265137,33.36409378051758,0,
 234360,-0.290283203125,-0.93359375,-0.044189453125,-0.7012194991111755,0.3048780560493469,0.18292683362960815,0.8999999761581421,1.649999976158142,-8.699999809265137,33.31616973876953,0,
 234370,-0.294677734375,-0.931884765625,-0.04931640625,-0.060975611209869385,0.4573170840740204,0.21341463923454285,3.1500000953674316,0.8999999761581421,-7.650000095367432,33.172401428222656,0,
 234380,-0.291259765625,-0.93359375,-0.044189453125,-0.21341463923454285,0.21341463923454285,0.4268292784690857,0.30000001192092896,2.700000047683716,-6.0,32.980712890625,0,
 234390,-0.29248046875,-0.933837890625,-0.038330078125,-0.6402438879013062,0.6097561120986938,0.060975611209869385,2.0999999046325684,3.299999952316284,-7.949999809265137,33.50786209106445,0,
 234400,-0.296875,-0.939208984375,-0.0341796875,-0.5792682766914368,0.27439025044441223,0.3048780560493469,2.4000000953674316,1.350000023841858,-8.399999618530273,33.2203254699707,0,
 234410,-0.297119140625,-0.934326171875,-0.039794921875,-0.7621951103210449,0.21341463923454285,0.27439025044441223,2.4000000953674316,1.350000023841858,-8.399999618530273,33.31616973876953,0,
 234420,-0.294921875,-0.935302734375,-0.03759765625,-0.7621951103210449,0.3048780560493469,0.24390244483947754,0.15000000596046448,1.350000023841858,-6.900000095367432,33.36409378051758,0,
 234430,-0.292724609375,-0.929931640625,-0.043701171875,-0.7621951103210449,0.09146341681480408,0.09146341681480408,1.5,2.25,-8.25,33.36409378051758,0,
 234440,-0.29150390625,-0.9306640625,-0.046142578125,-0.5182926654815674,0.27439025044441223,0.4268292784690857,0.15000000596046448,0.8999999761581421,-7.199999809265137,33.412017822265625,0,
 234450,-0.291015625,-0.93408203125,-0.04052734375,-0.060975611209869385,0.3658536672592163,0.3353658616542816,0.8999999761581421,-0.15000000596046448,-8.399999618530273,33.124481201171875,0,
 234460,-0.29150390625,-0.932861328125,-0.031982421875,-0.12195122241973877,0.4268292784690857,0.18292683362960815,0.8999999761581421,-0.15000000596046448,-8.399999618530273,33.31616973876953,0,
 234471,-0.288818359375,-0.936767578125,-0.040283203125,-0.060975611209869385,0.15243902802467346,0.3353658616542816,-0.44999998807907104,0.8999999761581421,-7.199999809265137,33.412017822265625,0,
 234481,-0.292236328125,-0.937744140625,-0.040283203125,-0.5182926654815674,0.4268292784690857,0.4878048896789551,0.44999998807907104,1.350000023841858,-8.399999618530273,33.36409378051758,0,
 234491,-0.292724609375,-0.936279296875,-0.037353515625,-0.8536585569381714,0.5792682766914368,0.12195122241973877,0.0,1.9500000476837158,-8.550000190734863,33.36409378051758,0,
 234501,-0.294189453125,-0.932861328125,-0.037109375,-0.9451219439506531,0.396341472864151,0.18292683362960815,0.15000000596046448,-0.44999998807907104,-7.650000095367432,33.124481201171875,0,
 234511,-0.2978515625,-0.936279296875,-0.041748046875,-0.9451219439506531,0.4268292784690857,0.060975611209869385,0.15000000596046448,-0.44999998807907104,-7.650000095367432,33.412017822265625,0,
 234521,-0.295166015625,-0.9306640625,-0.04345703125,-0.8536585569381714,0.3658536672592163,0.4878048896789551,1.2000000476837158,1.350000023841858,-6.150000095367432,33.412017822265625,0,
 234531,-0.2939453125,-0.935791015625,-0.041748046875,-0.8536585569381714,0.27439025044441223,0.060975611209869385,0.0,1.5,-7.5,33.412017822265625,0,
 234541,-0.292236328125,-0.9384765625,-0.043212890625,-0.5792682766914368,0.3353658616542816,0.4573170840740204,1.5,1.0499999523162842,-6.75,33.172401428222656,0,
 234551,-0.292236328125,-0.931884765625,-0.042724609375,-0.396341472864151,0.5792682766914368,0.3658536672592163,0.15000000596046448,0.44999998807907104,-7.199999809265137,33.124481201171875,0,
 234561,-0.28857421875,-0.93359375,-0.042236328125,-0.4268292784690857,0.27439025044441223,0.6707317233085632,0.15000000596046448,0.44999998807907104,-7.199999809265137,33.31616973876953,0,
 234571,-0.294189453125,-0.937255859375,-0.03955078125,-0.4878048896789551,0.060975611209869385,0.5792682766914368,1.7999999523162842,0.75,-7.050000190734863,33.50786209106445,0,
 234581,-0.29150390625,-0.9287109375,-0.036376953125,-0.24390244483947754,0.060975611209869385,0.6707317233085632,0.0,1.0499999523162842,-6.300000190734863,33.412017822265625,0,
 234591,-0.302734375,-0.9345703125,-0.04296875,-0.6097561120986938,0.24390244483947754,0.6707317233085632,1.0499999523162842,0.75,-7.5,33.65163040161133,0,
 234601,-0.294921875,-0.9345703125,-0.0439453125,-0.4573170840740204,0.24390244483947754,0.3353658616542816,0.30000001192092896,0.30000001192092896,-7.800000190734863,33.124481201171875,0,
 234611,-0.294189453125,-0.9326171875,-0.041748046875,-0.396341472864151,0.4573170840740204,0.4268292784690857,0.30000001192092896,0.30000001192092896,-7.800000190734863,33.412017822265625,0,
 234621,-0.29541015625,-0.933349609375,-0.044677734375,-0.4268292784690857,0.18292683362960815,0.5487805008888245,0.30000001192092896,1.9500000476837158,-7.050000190734863,33.31616973876953,0,
 234631,-0.28857421875,-0.93115234375,-0.0419921875,-0.396341472864151,0.27439025044441223,0.3658536672592163,0.30000001192092896,0.0,-7.800000190734863,33.36409378051758,0,
 234641,-0.292236328125,-0.935546875,-0.037841796875,-0.3048780560493469,0.4268292784690857,0.3048780560493469,-0.44999998807907104,1.350000023841858,-7.199999809265137,33.50786209106445,0,
 234651,-0.295654296875,-0.937255859375,-0.039794921875,-0.4573170840740204,0.21341463923454285,0.4268292784690857,0.30000001192092896,-0.30000001192092896,-6.0,33.172401428222656,0,
 234661,-0.296630859375,-0.93505859375,-0.040283203125,0.3353658616542816,0.3353658616542816,0.4268292784690857,0.30000001192092896,-0.30000001192092896,-6.0,33.2203254699707,0,
 234671,-0.29150390625,-0.93408203125,-0.04150390625,-0.15243902802467346,0.3048780560493469,0.3048780560493469,0.75,1.5,-7.5,33.5557861328125,0,
 234681,-0.30126953125,-0.93603515625,-0.0390625,0.060975611209869385,-0.12195122241973877,0.5182926654815674,1.7999999523162842,0.30000001192092896,-7.050000190734863,33.50786209106445,0,
 234691,-0.28759765625,-0.93212890625,-0.04150390625,-0.4268292784690857,0.18292683362960815,0.396341472864151,1.0499999523162842,0.75,-8.25,33.412017822265625,0,
 234701,-0.292724609375,-0.93310546875,-0.0400390625,-0.7012194991111755,0.7317073345184326,0.3048780560493469,1.649999976158142,-0.15000000596046448,-10.649999618530273,33.2203254699707,0,
 234711,-0.294921875,-0.933837890625,-0.046142578125,-0.15243902802467346,0.060975611209869385,0.3353658616542816,1.649999976158142,-0.15000000596046448,-10.649999618530273,33.412017822265625,0,
 234721,-0.296875,-0.931884765625,-0.0439453125,-0.396341472864151,0.7317073345184326,0.6402438879013062,0.30000001192092896,0.30000001192092896,-7.050000190734863,33.2203254699707,0,
 234731,-0.29150390625,-0.9345703125,-0.040283203125,-0.24390244483947754,0.12195122241973877,0.5792682766914368,-0.75,0.75,-9.75,33.412017822265625,0,
 234741,-0.29052734375,-0.934814453125,-0.043212890625,-0.21341463923454285,0.18292683362960815,0.3353658616542816,0.8999999761581421,1.649999976158142,-6.449999809265137,33.2203254699707,0,
 234751,-0.29345703125,-0.936279296875,-0.048583984375,-0.3048780560493469,0.030487805604934692,0.4573170840740204,0.30000001192092896,0.75,-7.5,33.2203254699707,0,
 234761,-0.291015625,-0.929931640625,-0.039794921875,-0.3658536672592163,0.4573170840740204,0.3048780560493469,0.30000001192092896,0.75,-7.5,33.31616973876953,0,
 234771,-0.29443359375,-0.936279296875,-0.0439453125,-0.21341463923454285,0.27439025044441223,0.27439025044441223,0.44999998807907104,0.44999998807907104,-8.399999618530273,33.412017822265625,0,
 234781,-0.293701171875,-0.933837890625,-0.0400390625,-0.4573170840740204,0.24390244483947754,0.3658536672592163,1.0499999523162842,1.9500000476837158,-7.050000190734863,33.36409378051758,0,
 234791,-0.29052734375,-0.933349609375,-0.040771484375,-0.6402438879013062,0.24390244483947754,0.3658536672592163,0.44999998807907104,0.44999998807907104,-7.949999809265137,33.124481201171875,0,
 234801,-0.29248046875,-0.93408203125,-0.041748046875,-0.792682945728302,0.15243902802467346,0.4573170840740204,2.549999952316284,3.450000047683716,-9.0,33.2203254699707,0,
 234811,-0.295166015625,-0.932373046875,-0.040771484375,-0.27439025044441223,0.21341463923454285,0.15243902802467346,2.549999952316284,3.450000047683716,-9.0,33.2203254699707,0,
 234821,-0.292724609375,-0.933837890625,-0.04345703125,-0.6707317233085632,0.5182926654815674,0.3048780560493469,-0.44999998807907104,2.549999952316284,-6.449999809265137,33.412017822265625,0,
 234831,-0.292724609375,-0.935791015625,-0.0390625,-0.7012194991111755,0.15243902802467346,0.12195122241973877,2.25,1.0499999523162842,-8.25,33.2203254699707,0,
 234841,-0.292236328125,-0.936279296875,-0.042724609375,-0.21341463923454285,0.5182926654815674,0.030487805604934692,0.8999999761581421,1.350000023841858,-5.400000095367432,33.36409378051758,0,
 234851,-0.29296875,-0.939697265625,-0.04248046875,-0.4268292784690857,0.21341463923454285,0.396341472864151,1.7999999523162842,1.9500000476837158,-7.050000190734863,33.412017822265625,0,
 234861,-0.29052734375,-0.935546875,-0.0380859375,-0.7317073345184326,0.4268292784690857,0.09146341681480408,1.7999999523162842,1.9500000476837158,-7.050000190734863,33.172401428222656,0,
 234871,-0.298583984375,-0.93359375,-0.045654296875,-0.3658536672592163,0.3353658616542816,0.27439025044441223,-0.30000001192092896,0.30000001192092896,-7.050000190734863,33.5557861328125,0,
 234881,-0.294921875,-0.93212890625,-0.04248046875,-0.3048780560493469,0.4268292784690857,0.4573170840740204,1.7999999523162842,0.0,-7.5,33.412017822265625,0,
 234891,-0.293212890625,-0.934326171875,-0.03369140625,-0.15243902802467346,0.030487805604934692,0.27439025044441223,2.0999999046325684,0.44999998807907104,-6.150000095367432,33.124481201171875,0,
 234901,-0.2939453125,-0.93701171875,-0.038330078125,-0.18292683362960815,0.24390244483947754,-0.060975611209869385,1.0499999523162842,0.0,-8.25,33.36409378051758,0,
 234911,-0.291259765625,-0.936767578125,-0.041748046875,-0.5487805008888245,0.396341472864151,0.24390244483947754,1.0499999523162842,0.0,-8.25,33.31616973876953,0,
 234921,-0.293212890625,-0.93603515625,-0.042724609375,-0.4878048896789551,0.15243902802467346,0.24390244483947754,1.0499999523162842,-0.30000001192092896,-6.300000190734863,33.50786209106445,0,
 234931,-0.295654296875,-0.931396484375,-0.040771484375,-0.6402438879013062,0.3353658616542816,0.15243902802467346,1.2000000476837158,2.0999999046325684,-7.199999809265137,33.412017822265625,0,
 234941,-0.2919921875,-0.936767578125,-0.04150390625,-0.7012194991111755,0.4573170840740204,0.3048780560493469,0.44999998807907104,1.649999976158142,-6.900000095367432,33.31616973876953,0,
 234951,-0.296142578125,-0.937255859375,-0.042724609375,-0.7621951103210449,0.27439025044441223,0.5487805008888245,0.0,0.75,-6.300000190734863,33.31616973876953,0,
 234961,-0.295166015625,-0.929931640625,-0.039794921875,-0.24390244483947754,0.4268292784690857,-0.060975611209869385,0.0,0.75,-6.300000190734863,33.412017822265625,0,
 234971,-0.296875,-0.93310546875,-0.040283203125,-0.7012194991111755,0.12195122241973877,0.4573170840740204,-0.30000001192092896,-1.0499999523162842,-7.050000190734863,33.50786209106445,0,
 234981,-0.297607421875,-0.93017578125,-0.038330078125,-0.4878048896789551,0.3353658616542816,0.15243902802467346,0.44999998807907104,0.44999998807907104,-8.399999618530273,33.36409378051758,0,
 234991,-0.294189453125,-0.93603515625,-0.041015625,-0.24390244483947754,0.396341472864151,0.12195122241973877,1.2000000476837158,-0.15000000596046448,-6.150000095367432,33.36409378051758,0,
 235001,-0.294677734375,-0.933837890625,-0.039794921875,-0.3353658616542816,0.27439025044441223,0.7317073345184326,0.8999999761581421,1.649999976158142,-7.650000095367432,33.412017822265625,0,
 235011,-0.294921875,-0.9375,-0.043212890625,-0.4573170840740204,0.4573170840740204,0.5182926654815674,0.8999999761581421,1.649999976158142,-7.650000095367432,33.50786209106445,0,
 235021,-0.29541015625,-0.931396484375,-0.03955078125,-0.5792682766914368,0.15243902802467346,0.3048780560493469,0.30000001192092896,0.75,-6.75,33.36409378051758,0,
 235031,-0.297607421875,-0.935546875,-0.042724609375,-0.18292683362960815,0.5487805008888245,0.4268292784690857,1.5,2.25,-6.75,33.31616973876953,0,
 235041,-0.29248046875,-0.933837890625,-0.04931640625,-0.4268292784690857,0.09146341681480408,0.4268292784690857,1.2000000476837158,0.15000000596046448,-7.199999809265137,33.172401428222656,0,
 235051,-0.291259765625,-0.93798828125,-0.04736328125,-0.4878048896789551,0.5487805008888245,0.3658536672592163,0.8999999761581421,-0.15000000596046448,-6.900000095367432,33.412017822265625,0,
 235061,-0.296142578125,-0.93603515625,-0.038818359375,-0.3658536672592163,0.12195122241973877,0.3048780560493469,0.8999999761581421,-0.15000000596046448,-6.900000095367432,33.5557861328125,0,
 235071,-0.291015625,-0.93212890625,-0.039794921875,-0.7317073345184326,0.27439025044441223,0.0,0.75,0.30000001192092896,-8.25,33.412017822265625,0,
 235081,-0.296142578125,-0.9365234375,-0.040283203125,-0.4878048896789551,0.0,0.060975611209869385,0.30000001192092896,1.9500000476837158,-7.5,33.36409378051758,0,
 235091,-0.29443359375,-0.93505859375,-0.04296875,-0.7621951103210449,0.27439025044441223,0.0,1.0499999523162842,0.75,-8.25,33.2203254699707,0,
 235101,-0.290283203125,-0.933349609375,-0.036376953125,-0.7317073345184326,0.4268292784690857,0.09146341681480408,1.0499999523162842,1.0499999523162842,-7.800000190734863,33.31616973876953,0,
 235111,-0.28564453125,-0.934326171875,-0.045166015625,-0.6402438879013062,0.396341472864151,-0.15243902802467346,1.0499999523162842,1.0499999523162842,-7.800000190734863,33.5557861328125,0,
 235121,-0.293701171875,-0.9345703125,-0.04248046875,-0.6707317233085632,0.3353658616542816,0.21341463923454285,1.5,-0.30000001192092896,-7.800000190734863,33.2203254699707,0,
 235131,-0.2900390625,-0.941650390625,-0.041748046875,-0.4573170840740204,0.3658536672592163,-0.15243902802467346,0.8999999761581421,1.649999976158142,-8.699999809265137,33.412017822265625,0,
 235141,-0.293212890625,-0.936767578125,-0.041748046875,-0.4573170840740204,0.24390244483947754,0.3353658616542816,0.30000001192092896,0.30000001192092896,-6.300000190734863,33.172401428222656,0,
 235151,-0.297119140625,-0.935302734375,-0.041259765625,-0.6097561120986938,0.21341463923454285,0.4878048896789551,2.549999952316284,0.75,-6.75,33.2203254699707,0,
 235161,-0.2978515625,-0.93212890625,-0.04052734375,-0.4268292784690857,0.3353658616542816,0.5792682766914368,2.549999952316284,0.75,-6.75,33.412017822265625,0,
 235171,-0.297119140625,-0.931640625,-0.0390625,-0.4878048896789551,0.27439025044441223,0.7621951103210449,1.5,2.700000047683716,-7.050000190734863,33.31616973876953,0,
 235181,-0.296630859375,-0.935791015625,-0.041259765625,-0.396341472864151,-0.060975611209869385,0.7012194991111755,1.5,0.0,-7.800000190734863,33.31616973876953,0,
 235191,-0.291748046875,-0.936279296875,-0.04052734375,-0.4573170840740204,0.3048780560493469,0.18292683362960815,1.5,0.0,-7.800000190734863,33.02863311767578,0,
 235201,-0.29443359375,-0.93408203125,-0.04150390625,-0.7621951103210449,0.21341463923454285,0.4573170840740204,0.8999999761581421,1.350000023841858,-6.900000095367432,33.412017822265625,0,
 235211,-0.296875,-0.9306640625,-0.0361328125,-0.8536585569381714,0.27439025044441223,0.0,0.8999999761581421,1.350000023841858,-6.900000095367432,33.2203254699707,0,
 235221,-0.29345703125,-0.9326171875,-0.04638671875,-0.792682945728302,0.4268292784690857,0.0,0.15000000596046448,-0.44999998807907104,-5.699999809265137,33.5557861328125,0,
 235232,-0.295166015625,-0.931396484375,-0.0419921875,-0.5182926654815674,0.15243902802467346,0.15243902802467346,-0.30000001192092896,0.30000001192092896,-7.800000190734863,33.412017822265625,0,
 235242,-0.292236328125,-0.938720703125,-0.039794921875,-0.6707317233085632,0.3048780560493469,-0.15243902802467346,0.75,-1.5,-6.300000190734863,33.36409378051758,0,
 235252,-0.2939453125,-0.937744140625,-0.04052734375,-0.27439025044441223,0.396341472864151,-0.21341463923454285,-0.44999998807907104,-0.15000000596046448,-6.900000095367432,33.65163040161133,0,
 235262,-0.294677734375,-0.9345703125,-0.041259765625,-0.6097561120986938,0.3353658616542816,0.030487805604934692,-0.44999998807907104,-0.15000000596046448,-6.900000095367432,33.31616973876953,0,
 235272,-0.29638671875,-0.939453125,-0.042724609375,-0.27439025044441223,0.3658536672592163,0.21341463923454285,1.5,0.30000001192092896,-7.800000190734863,33.31616973876953,0,
 235282,-0.290283203125,-0.9296875,-0.04443359375,-0.792682945728302,0.0,0.3353658616542816,1.7999999523162842,2.25,-7.5,33.172401428222656,0,
 235292,-0.292724609375,-0.93603515625,-0.04296875,-0.4878048896789551,0.4573170840740204,0.3353658616542816,1.649999976158142,0.8999999761581421,-7.949999809265137,33.172401428222656,0,
 235302,-0.293212890625,-0.93505859375,-0.04345703125,-0.4878048896789551,0.3658536672592163,0.3353658616542816,0.75,0.0,-7.5,33.412017822265625,0,
 235312,-0.29345703125,-0.94287109375,-0.0419921875,-0.6402438879013062,0.3658536672592163,0.27439025044441223,0.75,0.0,-7.5,33.412017822265625,0,
 235322,-0.291748046875,-0.9345703125,-0.043212890625,-0.4878048896789551,0.4878048896789551,0.4268292784690857,-0.44999998807907104,1.350000023841858,-7.650000095367432,33.412017822265625,0,
 235332,-0.293701171875,-0.932373046875,-0.037353515625,-0.6402438879013062,0.3658536672592163,0.4268292784690857,0.30000001192092896,0.0,-7.5,33.172401428222656,0,
 235342,-0.28857421875,-0.93798828125,-0.048828125,-0.7621951103210449,0.18292683362960815,0.5792682766914368,2.4000000953674316,1.649999976158142,-7.650000095367432,33.412017822265625,0,
 235352,-0.296142578125,-0.933837890625,-0.040771484375,-0.4878048896789551,0.24390244483947754,0.4268292784690857,2.4000000953674316,1.649999976158142,-7.650000095367432,33.412017822265625,0,
 235362,-0.29052734375,-0.93603515625,-0.044921875,-0.24390244483947754,0.15243902802467346,0.15243902802467346,2.4000000953674316,1.649999976158142,-7.650000095367432,33.31616973876953,0,
 235372,-0.2978515625,-0.931884765625,-0.03955078125,-0.6402438879013062,0.3658536672592163,0.3048780560493469,1.5,0.75,-7.5,33.2203254699707,0,
 235382,-0.29345703125,-0.9365234375,-0.04248046875,-0.6707317233085632,0.4268292784690857,0.4268292784690857,0.75,1.0499999523162842,-7.800000190734863,33.124481201171875,0,
 235392,-0.296142578125,-0.93310546875,-0.042236328125,-0.396341472864151,0.4573170840740204,0.27439025044441223,1.649999976158142,1.350000023841858,-7.199999809265137,33.31616973876953,0,
 235402,-0.29248046875,-0.9365234375,-0.037841796875,-0.4878048896789551,0.5182926654815674,0.18292683362960815,1.649999976158142,1.350000023841858,-7.199999809265137,33.50786209106445,0,
 235412,-0.292236328125,-0.93798828125,-0.0390625,-0.4878048896789551,0.5792682766914368,0.3048780560493469,0.75,1.0499999523162842,-6.300000190734863,33.172401428222656,0,
 235422,-0.2939453125,-0.933837890625,-0.041748046875,-0.4268292784690857,0.12195122241973877,0.060975611209869385,1.0499999523162842,0.30000001192092896,-10.800000190734863,33.412017822265625,0,
 235432,-0.296630859375,-0.929443359375,-0.038330078125,-0.4878048896789551,0.12195122241973877,0.5792682766914368,0.8999999761581421,0.8999999761581421,-8.399999618530273,33.2203254699707,0,
 235442,-0.292724609375,-0.93798828125,-0.046630859375,-0.4878048896789551,0.27439025044441223,0.3353658616542816,0.8999999761581421,0.8999999761581421,-6.900000095367432,33.2203254699707,0,
 235452,-0.2919921875,-0.939208984375,-0.041748046875,-0.12195122241973877,0.4268292784690857,0.12195122241973877,0.8999999761581421,0.8999999761581421,-6.900000095367432,33.412017822265625,0,
 235462,-0.29345703125,-0.934326171875,-0.041259765625,-0.4573170840740204,0.4573170840740204,0.396341472864151,0.0,0.30000001192092896,-7.800000190734863,33.412017822265625,0,
 235472,-0.2900390625,-0.935546875,-0.03955078125,-0.24390244483947754,0.21341463923454285,0.396341472864151,1.5,2.700000047683716,-7.5,33.412017822265625,0,
 235482,-0.295654296875,-0.937255859375,-0.039306640625,-0.6707317233085632,0.21341463923454285,0.24390244483947754,1.2000000476837158,-0.44999998807907104,-7.650000095367432,33.2203254699707,0,
 235492,-0.299560546875,-0.934814453125,-0.041015625,-1.0670732259750366,0.24390244483947754,0.3048780560493469,-0.75,1.0499999523162842,-7.800000190734863,33.412017822265625,0,
 235502,-0.295654296875,-0.93505859375,-0.04296875,-0.6097561120986938,0.396341472864151,0.18292683362960815,-0.75,1.0499999523162842,-7.800000190734863,33.5557861328125,0,
 235512,-0.293212890625,-0.931884765625,-0.0419921875,-1.1280487775802612,0.3658536672592163,0.4878048896789551,1.649999976158142,0.44999998807907104,-5.400000095367432,33.412017822265625,0,
 235522,-0.292236328125,-0.93408203125,-0.0400390625,-0.5182926654815674,0.6097561120986938,0.030487805604934692,3.9000000953674316,0.44999998807907104,-9.899999618530273,33.50786209106445,0,
 235532,-0.291259765625,-0.930419921875,-0.04052734375,-1.0060975551605225,0.12195122241973877,0.24390244483947754,0.8999999761581421,37.5,-7.050000190734863,33.172401428222656,0,
 235542,-0.291748046875,-0.932373046875,-0.044921875,-0.5792682766914368,0.15243902802467346,0.21341463923454285,0.8999999761581421,-0.8999999761581421,-6.449999809265137,33.31616973876953,0,
 235552,-0.29052734375,-0.93212890625,-0.04296875,-0.5487805008888245,0.4573170840740204,0.12195122241973877,0.8999999761581421,-0.8999999761581421,-6.449999809265137,33.172401428222656,0,
 235562,-0.29248046875,-0.9365234375,-0.0458984375,-0.396341472864151,0.6707317233085632,0.3353658616542816,0.75,0.0,-8.550000190734863,33.31616973876953,0,
 235572,-0.298583984375,-0.932373046875,-0.040283203125,-0.4878048896789551,0.4268292784690857,0.18292683362960815,0.44999998807907104,0.8999999761581421,-6.300000190734863,33.412017822265625,0,
 235582,-0.299072265625,-0.939208984375,-0.04248046875,-0.24390244483947754,0.060975611209869385,0.4268292784690857,1.0499999523162842,1.5,-8.25,33.172401428222656,0,
 235592,-0.288330078125,-0.93603515625,-0.044677734375,-0.4573170840740204,0.18292683362960815,0.6707317233085632,1.0499999523162842,1.5,-8.25,33.412017822265625,0,
 235602,-0.292236328125,-0.9384765625,-0.038818359375,-0.24390244483947754,0.18292683362960815,0.6097561120986938,1.0499999523162842,1.5,-8.25,33.31616973876953,0,
 235612,-0.298095703125,-0.93505859375,-0.042724609375,-0.27439025044441223,0.12195122241973877,0.3658536672592163,-0.30000001192092896,2.25,-7.050000190734863,33.412017822265625,0,
 235622,-0.295654296875,-0.93603515625,-0.0361328125,-0.3048780560493469,0.21341463923454285,0.4878048896789551,0.30000001192092896,0.0,-7.5,33.412017822265625,0,
 235632,-0.297607421875,-0.935302734375,-0.04443359375,-0.21341463923454285,0.3353658616542816,0.4573170840740204,1.0499999523162842,0.75,-7.800000190734863,33.172401428222656,0,
 235642,-0.293212890625,-0.937255859375,-0.04052734375,-0.4268292784690857,0.09146341681480408,0.15243902802467346,1.0499999523162842,0.75,-7.800000190734863,33.412017822265625,0,
 235652,-0.2939453125,-0.936279296875,-0.0400390625,-0.27439025044441223,0.4268292784690857,0.060975611209869385,38.25,0.75,-7.800000190734863,33.412017822265625,0,
 235662,-0.295166015625,-0.9345703125,-0.035888671875,-0.4268292784690857,0.3658536672592163,0.12195122241973877,0.8999999761581421,0.15000000596046448,-7.199999809265137,33.31616973876953,0,
 235672,-0.29296875,-0.933349609375,-0.04296875,-0.5182926654815674,0.3353658616542816,0.15243902802467346,2.4000000953674316,1.350000023841858,-5.400000095367432,33.412017822265625,0,
 235682,-0.2890625,-0.936279296875,-0.046142578125,-0.396341472864151,0.7317073345184326,0.030487805604934692,1.7999999523162842,1.0499999523162842,-7.5,33.2203254699707,0,
 235692,-0.294921875,-0.93359375,-0.037353515625,-0.6097561120986938,0.5487805008888245,0.09146341681480408,1.7999999523162842,1.0499999523162842,-7.5,33.36409378051758,0,
 235712,-0.290771484375,-0.93798828125,-0.04638671875,0.030487805604934692,0.3353658616542816,0.21341463923454285,1.2000000476837158,-0.15000000596046448,-7.199999809265137,33.412017822265625,0,
 235722,-0.294189453125,-0.937744140625,-0.041015625,-0.6097561120986938,0.27439025044441223,0.24390244483947754,1.649999976158142,-2.0999999046325684,-8.699999809265137,33.412017822265625,0,
 235732,-0.301025390625,-0.935302734375,-0.03857421875,-0.09146341681480408,0.3353658616542816,0.396341472864151,0.75,1.5,-7.050000190734863,33.172401428222656,0,
 235742,-0.298583984375,-0.937255859375,-0.0400390625,-0.396341472864151,0.4268292784690857,0.24390244483947754,0.75,1.5,-7.050000190734863,33.50786209106445,0,
 235752,-0.295654296875,-0.93505859375,-0.040283203125,-0.9756097793579102,0.4268292784690857,0.3658536672592163,0.30000001192092896,1.9500000476837158,-6.75,33.412017822265625,0,
 235762,-0.295166015625,-0.933837890625,-0.03857421875,-0.5487805008888245,0.27439025044441223,0.4878048896789551,0.0,0.75,-7.5,33.65163040161133,0,
 235772,-0.30078125,-0.9326171875,-0.038330078125,-0.4878048896789551,0.4878048896789551,0.396341472864151,1.2000000476837158,0.15000000596046448,-8.399999618530273,33.172401428222656,0,
 235782,-0.291259765625,-0.935791015625,-0.038330078125,-0.5792682766914368,0.27439025044441223,0.060975611209869385,-0.15000000596046448,0.44999998807907104,-7.949999809265137,33.31616973876953,0,
 235792,-0.291015625,-0.934814453125,-0.041748046875,-0.6402438879013062,0.3048780560493469,-0.030487805604934692,-0.15000000596046448,0.44999998807907104,-7.949999809265137,33.50786209106445,0,
 235802,-0.293212890625,-0.93603515625,-0.041015625,-0.6097561120986938,0.12195122241973877,0.030487805604934692,0.44999998807907104,-0.15000000596046448,-9.899999618530273,33.36409378051758,0,
 235812,-0.294189453125,-0.932861328125,-0.04345703125,-0.4573170840740204,0.4268292784690857,0.3658536672592163,1.0499999523162842,0.30000001192092896,-8.25,33.36409378051758,0,
 235822,-0.2919921875,-0.9345703125,-0.0390625,-0.5487805008888245,0.3353658616542816,0.27439025044441223,-0.44999998807907104,0.44999998807907104,-7.650000095367432,33.172401428222656,0,
 235832,-0.299560546875,-0.931884765625,-0.041748046875,-0.09146341681480408,0.18292683362960815,0.5487805008888245,-0.44999998807907104,0.44999998807907104,-6.900000095367432,33.31616973876953,0,
 235842,-0.29052734375,-0.934326171875,-0.042236328125,-0.6402438879013062,0.4268292784690857,0.3353658616542816,-0.44999998807907104,0.44999998807907104,-6.900000095367432,33.5557861328125,0,
 235852,-0.294677734375,-0.93310546875,-0.04296875,-0.18292683362960815,0.3353658616542816,0.3048780560493469,0.75,0.30000001192092896,-7.5,33.36409378051758,0,
 235862,-0.298583984375,-0.93359375,-0.0439453125,-0.3048780560493469,0.060975611209869385,0.18292683362960815,1.0499999523162842,2.25,-7.800000190734863,33.31616973876953,0,
 235872,-0.29736328125,-0.930419921875,-0.04052734375,-0.7317073345184326,0.09146341681480408,0.18292683362960815,0.30000001192092896,1.0499999523162842,-8.550000190734863,33.172401428222656,0,
 235882,-0.2919921875,-0.940673828125,-0.04248046875,-0.4878048896789551,0.27439025044441223,0.5487805008888245,1.0499999523162842,-0.30000001192092896,-7.5,33.412017822265625,0,
 235892,-0.29345703125,-0.935546875,-0.04345703125,-0.4573170840740204,0.396341472864151,0.21341463923454285,1.0499999523162842,-0.30000001192092896,-7.5,33.31616973876953,0,
 235902,-0.294921875,-0.935546875,-0.044677734375,-0.7317073345184326,0.27439025044441223,0.18292683362960815,2.0999999046325684,1.350000023841858,-6.449999809265137,33.5557861328125,0,
 235912,-0.293212890625,-0.939453125,-0.04443359375,-0.792682945728302,0.21341463923454285,0.030487805604934692,1.649999976158142,1.350000023841858,-6.900000095367432,33.50786209106445,0,
 235922,-0.29150390625,-0.935546875,-0.042236328125,-0.792682945728302,0.060975611209869385,0.6097561120986938,2.549999952316284,0.75,-10.5,33.172401428222656,0,
 235932,-0.296630859375,-0.934814453125,-0.03564453125,-0.18292683362960815,0.24390244483947754,0.3658536672592163,-0.30000001192092896,0.75,-8.25,33.5557861328125,0,
 235942,-0.2890625,-0.93212890625,-0.041259765625,-0.6402438879013062,0.18292683362960815,0.21341463923454285,-0.30000001192092896,0.75,-8.25,33.36409378051758,0,
 235952,-0.293701171875,-0.9345703125,-0.04150390625,-0.6402438879013062,0.27439025044441223,0.21341463923454285,1.649999976158142,0.15000000596046448,-8.399999618530273,33.412017822265625,0,
 235962,-0.291259765625,-0.935546875,-0.04443359375,-0.24390244483947754,0.3353658616542816,0.3658536672592163,-0.15000000596046448,0.15000000596046448,-7.199999809265137,33.31616973876953,0,
 235973,-0.29638671875,-0.93505859375,-0.03955078125,-0.18292683362960815,0.3353658616542816,0.27439025044441223,0.8999999761581421,1.350000023841858,-8.399999618530273,32.980712890625,0,
 235983,-0.2919921875,-0.932373046875,-0.043212890625,-0.4573170840740204,0.27439025044441223,0.09146341681480408,1.5,0.30000001192092896,-8.550000190734863,33.50786209106445,0,
 235993,-0.291748046875,-0.9345703125,-0.04052734375,-0.396341472864151,0.15243902802467346,0.21341463923454285,1.5,0.30000001192092896,-8.550000190734863,33.5557861328125,0,
 236003,-0.292724609375,-0.935546875,-0.04296875,-0.6402438879013062,0.4268292784690857,0.5792682766914368,-0.15000000596046448,-0.8999999761581421,-7.199999809265137,33.172401428222656,0,
 236013,-0.299072265625,-0.93603515625,-0.0478515625,-0.3658536672592163,0.4573170840740204,0.3048780560493469,0.75,0.0,-7.050000190734863,33.412017822265625,0,
 236023,-0.292724609375,-0.929931640625,-0.034912109375,-0.060975611209869385,0.4878048896789551,0.3048780560493469,-0.15000000596046448,0.8999999761581421,-9.449999809265137,33.2203254699707,0,
 236033,-0.29541015625,-0.933349609375,-0.04296875,-0.4878048896789551,0.3353658616542816,0.396341472864151,1.0499999523162842,-0.30000001192092896,-7.5,33.36409378051758,0,
 236043,-0.29150390625,-0.936279296875,-0.036865234375,-0.27439025044441223,0.3353658616542816,0.4878048896789551,1.0499999523162842,-0.30000001192092896,-7.5,33.412017822265625,0,
 236053,-0.291015625,-0.93359375,-0.03759765625,-0.5792682766914368,0.0,0.21341463923454285,0.30000001192092896,1.5,-8.25,33.36409378051758,0,
 236063,-0.293701171875,-0.933349609375,-0.039794921875,-0.4878048896789551,0.27439025044441223,0.15243902802467346,0.30000001192092896,0.75,-7.5,33.65163040161133,0,
 236073,-0.29248046875,-0.93603515625,-0.036376953125,-0.4268292784690857,-0.030487805604934692,-0.030487805604934692,-1.0499999523162842,0.75,-5.550000190734863,33.124481201171875,0,
 236083,-0.296142578125,-0.93505859375,-0.038330078125,-0.27439025044441223,0.12195122241973877,0.060975611209869385,1.2000000476837158,0.44999998807907104,-8.399999618530273,33.50786209106445,0,
 236093,-0.298095703125,-0.931640625,-0.041015625,-0.6097561120986938,0.3658536672592163,0.15243902802467346,1.2000000476837158,0.44999998807907104,-8.399999618530273,33.412017822265625,0,
 236103,-0.29345703125,-0.932373046875,-0.040283203125,-0.4573170840740204,0.4878048896789551,0.15243902802467346,0.75,0.30000001192092896,-7.800000190734863,33.2203254699707,0,
 236113,-0.298583984375,-0.9326171875,-0.0380859375,-0.5487805008888245,0.4573170840740204,0.060975611209869385,0.30000001192092896,0.0,-6.75,33.50786209106445,0,
 236123,-0.2890625,-0.9326171875,-0.043701171875,-0.7012194991111755,0.3048780560493469,0.12195122241973877,1.649999976158142,0.15000000596046448,-7.949999809265137,33.36409378051758,0,
 236133,-0.2939453125,-0.932861328125,-0.04248046875,-0.7317073345184326,0.09146341681480408,0.15243902802467346,0.30000001192092896,1.0499999523162842,-6.75,33.2203254699707,0,
 236143,-0.296875,-0.931640625,-0.044921875,-0.6707317233085632,0.18292683362960815,0.3658536672592163,0.30000001192092896,1.0499999523162842,-6.75,33.50786209106445,0,
 236153,-0.2939453125,-0.931640625,-0.039794921875,-0.4268292784690857,0.3658536672592163,0.4573170840740204,0.15000000596046448,-0.15000000596046448,-7.199999809265137,33.02863311767578,0,
 236163,-0.298095703125,-0.93408203125,-0.036865234375,-0.5792682766914368,0.396341472864151,0.27439025044441223,1.0499999523162842,-0.30000001192092896,-9.0,33.5557861328125,0,
 236173,-0.2919921875,-0.93603515625,-0.03662109375,-0.3048780560493469,0.0,0.18292683362960815,0.15000000596046448,0.15000000596046448,-7.949999809265137,33.5557861328125,0,
 236183,-0.291015625,-0.933837890625,-0.041259765625,-0.5487805008888245,0.030487805604934692,0.24390244483947754,1.2000000476837158,1.350000023841858,-7.949999809265137,33.36409378051758,0,
 236193,-0.28955078125,-0.9287109375,-0.040283203125,-0.6097561120986938,0.18292683362960815,0.0,1.2000000476837158,1.350000023841858,-7.949999809265137,33.412017822265625,0,
 236203,-0.296142578125,-0.931640625,-0.04052734375,-0.6097561120986938,0.21341463923454285,0.3048780560493469,0.8999999761581421,1.649999976158142,-6.900000095367432,33.5557861328125,0,
 236213,-0.29052734375,-0.941162109375,-0.041259765625,-0.4573170840740204,0.5182926654815674,0.060975611209869385,0.30000001192092896,-1.0499999523162842,-9.0,33.172401428222656,0,
 236223,-0.2919921875,-0.933837890625,-0.036865234375,-0.5182926654815674,0.3353658616542816,0.5182926654815674,1.649999976158142,1.350000023841858,-5.699999809265137,33.412017822265625,0,
 236233,-0.293212890625,-0.935791015625,-0.03759765625,-0.8231707215309143,0.3048780560493469,0.3048780560493469,1.649999976158142,-2.0999999046325684,-9.149999618530273,33.50786209106445,0,
 236243,-0.296142578125,-0.93408203125,-0.039794921875,-0.21341463923454285,0.4268292784690857,0.15243902802467346,1.649999976158142,-2.0999999046325684,-9.149999618530273,33.2203254699707,0,
 236253,-0.30029296875,-0.9384765625,-0.036865234375,-0.15243902802467346,0.4878048896789551,0.060975611209869385,0.30000001192092896,1.5,-8.25,33.412017822265625,0,
 236263,-0.295654296875,-0.934814453125,-0.042724609375,-0.5487805008888245,0.3658536672592163,0.09146341681480408,0.44999998807907104,0.8999999761581421,-7.650000095367432,33.172401428222656,0,
 236273,-0.298828125,-0.93359375,-0.046142578125,-0.6402438879013062,0.3658536672592163,0.21341463923454285,1.7999999523162842,0.30000001192092896,-8.550000190734863,33.36409378051758,0,
 236283,-0.2939453125,-0.9296875,-0.04541015625,-0.396341472864151,0.3658536672592163,0.4268292784690857,1.7999999523162842,0.30000001192092896,-8.550000190734863,33.5557861328125,0,
 236293,-0.292724609375,-0.93359375,-0.038818359375,-0.396341472864151,0.3658536672592163,0.21341463923454285,1.7999999523162842,0.30000001192092896,-8.550000190734863,33.412017822265625,0,
 236303,-0.291748046875,-0.935302734375,-0.046875,-0.060975611209869385,0.396341472864151,0.7012194991111755,-0.15000000596046448,0.15000000596046448,-6.449999809265137,33.31616973876953,0,
 236313,-0.291748046875,-0.931396484375,-0.045654296875,-0.4573170840740204,0.3048780560493469,0.09146341681480408,0.75,-0.30000001192092896,-7.5,33.31616973876953,0,
 236323,-0.29931640625,-0.930908203125,-0.041015625,-0.6707317233085632,0.4268292784690857,0.3353658616542816,0.30000001192092896,1.9500000476837158,-7.050000190734863,33.50786209106445,0,
 236333,-0.29638671875,-0.936767578125,-0.0400390625,-0.27439025044441223,0.4878048896789551,0.15243902802467346,0.30000001192092896,1.9500000476837158,-7.050000190734863,33.2203254699707,0,
 236343,-0.290771484375,-0.937744140625,-0.036865234375,-0.4268292784690857,0.060975611209869385,0.4268292784690857,0.30000001192092896,0.75,-7.050000190734863,33.412017822265625,0,
 236353,-0.291259765625,-0.936767578125,-0.03857421875,-0.4878048896789551,0.18292683362960815,0.5792682766914368,2.4000000953674316,-0.44999998807907104,-7.650000095367432,33.36409378051758,0,
 236363,-0.28955078125,-0.93994140625,-0.04541015625,-0.4878048896789551,0.3048780560493469,0.18292683362960815,0.8999999761581421,1.649999976158142,-6.900000095367432,33.172401428222656,0,
 236373,-0.29541015625,-0.932861328125,-0.039794921875,-0.6097561120986938,0.4878048896789551,0.27439025044441223,0.44999998807907104,-0.8999999761581421,-7.949999809265137,33.5557861328125,0,
 236383,-0.291748046875,-0.931884765625,-0.04833984375,-0.5487805008888245,0.18292683362960815,0.21341463923454285,0.44999998807907104,-0.8999999761581421,-7.949999809265137,33.50786209106445,0,
 236393,-0.29443359375,-0.93359375,-0.041259765625,-0.3353658616542816,0.396341472864151,0.21341463923454285,1.0499999523162842,2.25,-7.5,33.50786209106445,0,
 236403,-0.297607421875,-0.934814453125,-0.039306640625,-0.7621951103210449,0.4268292784690857,0.12195122241973877,1.2000000476837158,1.350000023841858,-7.199999809265137,33.50786209106445,0,
 236413,-0.2958984375,-0.935791015625,-0.037841796875,-0.6097561120986938,0.5182926654815674,0.0,0.44999998807907104,1.350000023841858,-7.199999809265137,33.36409378051758,0,
 236423,-0.293212890625,-0.936767578125,-0.038818359375,-0.4573170840740204,0.4268292784690857,0.3658536672592163,2.25,1.0499999523162842,-7.5,33.5557861328125,0,
 236433,-0.295166015625,-0.9365234375,-0.035400390625,-0.5182926654815674,0.3048780560493469,0.18292683362960815,2.25,1.0499999523162842,-7.5,33.412017822265625,0,
 236443,-0.292724609375,-0.93212890625,-0.04248046875,-0.4878048896789551,0.6402438879013062,0.3048780560493469,-1.0499999523162842,-1.5,-7.800000190734863,33.412017822265625,0,
 236453,-0.297607421875,-0.93994140625,-0.04345703125,-0.5792682766914368,0.4268292784690857,0.4878048896789551,1.649999976158142,2.8499999046325684,-7.650000095367432,33.412017822265625,0,
 236463,-0.287841796875,-0.931640625,-0.037841796875,-0.792682945728302,-0.09146341681480408,0.4573170840740204,1.649999976158142,0.15000000596046448,-8.399999618530273,33.124481201171875,0,
 236473,-0.292236328125,-0.932373046875,-0.042724609375,-0.27439025044441223,0.3658536672592163,0.24390244483947754,0.44999998807907104,0.8999999761581421,-6.900000095367432,33.412017822265625,0,
 236483,-0.291748046875,-0.930908203125,-0.03759765625,-0.12195122241973877,0.15243902802467346,0.3048780560493469,0.44999998807907104,0.8999999761581421,-6.900000095367432,33.412017822265625,0,
 236493,-0.293212890625,-0.935302734375,-0.041748046875,-0.4878048896789551,0.5182926654815674,0.21341463923454285,0.30000001192092896,1.5,-7.800000190734863,33.31616973876953,0,
 236503,-0.300048828125,-0.93017578125,-0.04052734375,-0.21341463923454285,0.0,0.396341472864151,1.2000000476837158,1.649999976158142,-7.199999809265137,33.2203254699707,0,
 236513,-0.29833984375,-0.93505859375,-0.048095703125,-0.18292683362960815,0.3353658616542816,0.24390244483947754,1.2000000476837158,0.8999999761581421,-7.949999809265137,32.980712890625,0,
 236523,-0.2890625,-0.9345703125,-0.038818359375,-0.3658536672592163,0.12195122241973877,0.18292683362960815,1.0499999523162842,-1.0499999523162842,-6.75,33.36409378051758,0,
 236533,-0.29443359375,-0.9326171875,-0.04296875,-0.3658536672592163,0.15243902802467346,0.4268292784690857,1.0499999523162842,-1.0499999523162842,-6.75,33.31616973876953,0,
 236543,-0.294189453125,-0.9345703125,-0.040771484375,-0.6097561120986938,0.3353658616542816,0.5792682766914368,1.5,0.0,-9.300000190734863,33.2203254699707,0,
 236553,-0.294677734375,-0.933837890625,-0.041259765625,-0.9451219439506531,0.4268292784690857,0.24390244483947754,0.44999998807907104,0.8999999761581421,-7.199999809265137,33.65163040161133,0,
 236563,-0.29345703125,-0.93359375,-0.038818359375,-0.7012194991111755,0.3353658616542816,0.3658536672592163,0.75,0.0,-7.050000190734863,33.412017822265625,0,
 236573,-0.298583984375,-0.935546875,-0.033203125,-0.4268292784690857,0.18292683362960815,0.12195122241973877,0.75,1.0499999523162842,-7.5,33.2203254699707,0,
 236583,-0.285888671875,-0.933837890625,-0.040283203125,-0.5792682766914368,0.4268292784690857,0.3658536672592163,0.75,1.0499999523162842,-7.5,33.2203254699707,0,
 236593,-0.29052734375,-0.92919921875,-0.04443359375,-0.8231707215309143,0.21341463923454285,0.4268292784690857,0.75,0.75,-8.550000190734863,33.36409378051758,0,
 236603,-0.291015625,-0.9384765625,-0.044921875,-0.7012194991111755,0.3353658616542816,0.3658536672592163,0.44999998807907104,0.8999999761581421,-7.650000095367432,33.31616973876953,0,
 236613,-0.298583984375,-0.934814453125,-0.0341796875,-0.6707317233085632,0.3048780560493469,0.396341472864151,1.0499999523162842,1.9500000476837158,-7.800000190734863,33.50786209106445,0,
 236623,-0.290771484375,-0.93408203125,-0.046142578125,-0.4573170840740204,0.6402438879013062,-0.030487805604934692,-0.8999999761581421,0.44999998807907104,-6.150000095367432,33.02863311767578,0,
 236633,-0.294677734375,-0.93505859375,-0.038818359375,-0.5487805008888245,0.3048780560493469,0.3353658616542816,-0.8999999761581421,0.44999998807907104,-6.150000095367432,33.124481201171875,0,
 236643,-0.300537109375,-0.937744140625,-0.041015625,-0.792682945728302,0.396341472864151,0.27439025044441223,2.0999999046325684,0.15000000596046448,-9.449999809265137,33.124481201171875,0,
 236653,-0.29248046875,-0.936279296875,-0.04150390625,-0.5487805008888245,0.27439025044441223,0.21341463923454285,-0.8999999761581421,1.350000023841858,-7.650000095367432,33.412017822265625,0,
 236663,-0.29931640625,-0.938232421875,-0.038818359375,-0.5792682766914368,0.15243902802467346,0.4268292784690857,0.30000001192092896,0.75,-7.050000190734863,33.5557861328125,0,
 236673,-0.28759765625,-0.9345703125,-0.0400390625,-0.4573170840740204,0.18292683362960815,0.15243902802467346,-0.15000000596046448,-0.15000000596046448,-7.949999809265137,33.412017822265625,0,
 236683,-0.29443359375,-0.93994140625,-0.04052734375,-0.4878048896789551,0.3048780560493469,0.4573170840740204,-0.15000000596046448,-0.15000000596046448,-7.949999809265137,33.2203254699707,0,
 236693,-0.29296875,-0.93359375,-0.039794921875,-0.5487805008888245,0.4573170840740204,0.3658536672592163,0.15000000596046448,1.350000023841858,-7.199999809265137,33.2203254699707,0,
 236703,-0.29736328125,-0.934814453125,-0.040283203125,-0.5182926654815674,0.3353658616542816,0.27439025044441223,1.0499999523162842,1.5,-5.550000190734863,33.2203254699707,0,
 236713,-0.29541015625,-0.9345703125,-0.03466796875,-0.21341463923454285,0.24390244483947754,0.15243902802467346,-0.15000000596046448,-0.15000000596046448,-7.199999809265137,33.36409378051758,0,
 236724,-0.300048828125,-0.934326171875,-0.038818359375,-0.27439025044441223,-0.030487805604934692,0.12195122241973877,1.2000000476837158,0.15000000596046448,-7.650000095367432,33.412017822265625,0,
 236734,-0.2939453125,-0.93310546875,-0.042724609375,-0.4268292784690857,0.3658536672592163,0.4268292784690857,1.2000000476837158,0.15000000596046448,-7.650000095367432,33.31616973876953,0,
 236744,-0.2939453125,-0.932861328125,-0.04150390625,-0.18292683362960815,0.3048780560493469,0.396341472864151,0.0,3.9000000953674316,-9.300000190734863,33.36409378051758,0,
 236754,-0.298095703125,-0.934326171875,-0.039306640625,-0.3658536672592163,0.27439025044441223,0.4268292784690857,1.0499999523162842,0.75,-7.5,33.172401428222656,0,
 236764,-0.292724609375,-0.93115234375,-0.0400390625,-0.21341463923454285,0.5182926654815674,0.3658536672592163,0.75,0.0,-7.800000190734863,33.412017822265625,0,
 236774,-0.291259765625,-0.9375,-0.0390625,-0.5182926654815674,0.27439025044441223,0.3658536672592163,1.649999976158142,0.15000000596046448,-6.150000095367432,33.2203254699707,0,
 236784,-0.2978515625,-0.933837890625,-0.041748046875,-0.3048780560493469,0.4878048896789551,0.4573170840740204,1.649999976158142,0.15000000596046448,-6.150000095367432,33.412017822265625,0,
 236794,-0.293212890625,-0.9326171875,-0.04052734375,-0.5487805008888245,0.7012194991111755,0.396341472864151,1.5,1.5,-7.050000190734863,33.412017822265625,0,
 236804,-0.298095703125,-0.931396484375,-0.04052734375,-0.5487805008888245,0.15243902802467346,0.21341463923454285,1.5,2.25,-7.800000190734863,33.172401428222656,0,
 236814,-0.29296875,-0.93359375,-0.043212890625,-0.7317073345184326,0.5792682766914368,0.3353658616542816,0.0,0.30000001192092896,-6.300000190734863,33.36409378051758,0,
 236824,-0.29443359375,-0.93115234375,-0.04443359375,-0.8841463327407837,0.27439025044441223,0.396341472864151,1.7999999523162842,1.0499999523162842,-7.800000190734863,33.50786209106445,0,
 236834,-0.287109375,-0.93359375,-0.039794921875,-0.27439025044441223,0.3353658616542816,0.21341463923454285,1.7999999523162842,1.0499999523162842,-7.800000190734863,33.50786209106445,0,
 236844,-0.29052734375,-0.93505859375,-0.035888671875,-0.24390244483947754,0.4268292784690857,-0.030487805604934692,0.15000000596046448,2.0999999046325684,-7.199999809265137,33.31616973876953,0,
 236854,-0.296875,-0.933349609375,-0.036865234375,-0.3048780560493469,0.396341472864151,-0.060975611209869385,0.0,-0.75,-8.550000190734863,33.31616973876953,0,
 236864,-0.30078125,-0.93603515625,-0.040283203125,-0.4573170840740204,0.3658536672592163,0.12195122241973877,0.8999999761581421,2.0999999046325684,-7.199999809265137,33.36409378051758,0,
 236874,-0.296142578125,-0.935791015625,-0.036865234375,-0.6707317233085632,0.27439025044441223,0.18292683362960815,-2.549999952316284,1.9500000476837158,-6.75,33.65163040161133,0,
 236884,-0.2880859375,-0.93701171875,-0.043701171875,-0.6097561120986938,0.4573170840740204,0.3658536672592163,-2.549999952316284,1.9500000476837158,-6.75,33.50786209106445,0,
 236894,-0.29443359375,-0.93505859375,-0.042236328125,-0.792682945728302,0.5182926654815674,0.3048780560493469,0.75,0.75,-8.25,33.31616973876953,0,
 236904,-0.291015625,-0.933349609375,-0.041748046875,-0.7621951103210449,0.5792682766914368,0.5182926654815674,0.30000001192092896,1.5,-7.050000190734863,33.412017822265625,0,
 236914,-0.292724609375,-0.93408203125,-0.042724609375,-0.5182926654815674,0.3353658616542816,0.3353658616542816,0.30000001192092896,0.75,-8.550000190734863,33.31616973876953,0,
 236924,-0.2900390625,-0.937255859375,-0.04150390625,-0.3353658616542816,0.27439025044441223,0.6402438879013062,0.8999999761581421,1.649999976158142,-7.199999809265137,33.412017822265625,0,
 236934,-0.296875,-0.939453125,-0.040283203125,-0.3658536672592163,0.3353658616542816,0.5792682766914368,0.8999999761581421,1.649999976158142,-7.199999809265137,33.412017822265625,0,
 236944,-0.291015625,-0.933837890625,-0.03955078125,-0.5792682766914368,0.21341463923454285,0.3353658616542816,0.75,0.75,-7.5,33.412017822265625,0,
 236954,-0.298583984375,-0.93310546875,-0.041015625,-0.5792682766914368,0.3658536672592163,0.5182926654815674,1.649999976158142,0.15000000596046448,-10.949999809265137,33.02863311767578,0,
 236964,-0.295654296875,-0.931884765625,-0.0400390625,-0.6402438879013062,0.21341463923454285,0.27439025044441223,1.649999976158142,0.44999998807907104,-8.399999618530273,33.2203254699707,0,
 236984,-0.292724609375,-0.93896484375,-0.041015625,-0.6402438879013062,0.09146341681480408,0.7621951103210449,0.8999999761581421,0.44999998807907104,-7.199999809265137,33.36409378051758,0,
 236994,-0.296875,-0.933837890625,-0.03759765625,-0.5792682766914368,0.4268292784690857,0.3353658616542816,0.0,1.5,-6.0,33.412017822265625,0,
 237004,-0.302001953125,-0.93896484375,-0.045166015625,-0.6097561120986938,0.5182926654815674,0.396341472864151,-0.15000000596046448,0.15000000596046448,-7.650000095367432,33.172401428222656,0,
 237014,-0.2919921875,-0.93212890625,-0.04248046875,-0.5182926654815674,0.24390244483947754,0.15243902802467346,1.649999976158142,-0.15000000596046448,-6.900000095367432,33.31616973876953,0,
 237024,-0.291015625,-0.939697265625,-0.037841796875,-0.7012194991111755,0.21341463923454285,0.4573170840740204,-0.75,0.30000001192092896,-7.5,33.412017822265625,0,
 237034,-0.291748046875,-0.937744140625,-0.043701171875,-0.5487805008888245,0.3658536672592163,0.3658536672592163,-0.75,0.30000001192092896,-7.5,33.50786209106445,0,
 237044,-0.2998046875,-0.935546875,-0.04150390625,-0.396341472864151,-0.18292683362960815,0.27439025044441223,1.649999976158142,0.8999999761581421,-7.650000095367432,33.412017822265625,0,
 237054,-0.294921875,-0.93701171875,-0.043701171875,-0.4878048896789551,0.4573170840740204,0.18292683362960815,3.75,1.0499999523162842,-9.75,33.172401428222656,0,
 237064,-0.295654296875,-0.931640625,-0.0390625,-0.792682945728302,0.396341472864151,0.27439025044441223,1.0499999523162842,1.5,-7.800000190734863,33.412017822265625,0,
 237074,-0.28759765625,-0.938232421875,-0.040771484375,-0.6707317233085632,0.12195122241973877,0.060975611209869385,1.5,0.75,-7.800000190734863,33.412017822265625,0,
 237084,-0.291748046875,-0.931884765625,-0.049072265625,-0.4878048896789551,0.3658536672592163,0.21341463923454285,1.5,0.75,-7.800000190734863,33.412017822265625,0,
 237094,-0.297607421875,-0.9384765625,-0.039306640625,-0.7317073345184326,0.5182926654815674,0.21341463923454285,0.8999999761581421,0.8999999761581421,-7.949999809265137,33.50786209106445,0,
 237104,-0.291015625,-0.929931640625,-0.044677734375,-0.3048780560493469,0.060975611209869385,0.18292683362960815,0.30000001192092896,-0.30000001192092896,-7.800000190734863,33.412017822265625,0,
 237114,-0.286376953125,-0.934814453125,-0.044189453125,-0.4573170840740204,0.396341472864151,0.15243902802467346,0.8999999761581421,0.8999999761581421,-7.199999809265137,33.412017822265625,0,
 237124,-0.29248046875,-0.934326171875,-0.03955078125,-0.27439025044441223,0.4268292784690857,-0.09146341681480408,0.8999999761581421,0.8999999761581421,-7.199999809265137,33.31616973876953,0,
 237134,-0.297119140625,-0.936279296875,-0.04296875,-0.6097561120986938,0.27439025044441223,-0.09146341681480408,0.8999999761581421,0.8999999761581421,-7.199999809265137,33.65163040161133,0,
 237144,-0.293212890625,-0.930908203125,-0.04150390625,-0.8231707215309143,0.27439025044441223,0.21341463923454285,1.2000000476837158,0.44999998807907104,-6.900000095367432,33.2203254699707,0,
 237154,-0.294677734375,-0.931884765625,-0.041259765625,-0.4878048896789551,0.18292683362960815,0.15243902802467346,1.5,1.0499999523162842,-8.550000190734863,33.50786209106445,0,
 237164,-0.296630859375,-0.935791015625,-0.04638671875,-0.6707317233085632,0.4878048896789551,0.4268292784690857,1.0499999523162842,0.0,-7.800000190734863,33.65163040161133,0,
 237174,-0.291748046875,-0.934814453125,-0.040771484375,-0.4573170840740204,0.27439025044441223,0.4268292784690857,1.0499999523162842,0.0,-7.800000190734863,33.31616973876953,0,
 237184,-0.293701171875,-0.935546875,-0.041259765625,-0.060975611209869385,0.24390244483947754,0.3353658616542816,1.0499999523162842,2.25,-9.0,33.412017822265625,0,
 237194,-0.294921875,-0.930908203125,-0.04052734375,-0.18292683362960815,0.24390244483947754,0.24390244483947754,1.2000000476837158,2.0999999046325684,-7.949999809265137,33.36409378051758,0,
 237204,-0.29833984375,-0.93701171875,-0.040283203125,0.030487805604934692,0.3353658616542816,0.396341472864151,0.75,1.0499999523162842,-7.5,33.412017822265625,0,
 237214,-0.29541015625,-0.931884765625,-0.039794921875,-0.15243902802467346,0.15243902802467346,0.396341472864151,0.44999998807907104,0.44999998807907104,-7.650000095367432,33.31616973876953,0,
 237224,-0.29638671875,-0.9375,-0.039306640625,-0.6097561120986938,0.3353658616542816,0.3048780560493469,0.44999998807907104,0.44999998807907104,-7.650000095367432,33.5557861328125,0,
 237234,-0.2939453125,-0.936767578125,-0.043212890625,-0.5487805008888245,0.4573170840740204,0.27439025044441223,0.15000000596046448,2.549999952316284,-6.900000095367432,33.412017822265625,0,
 237244,-0.29833984375,-0.93212890625,-0.0390625,-0.7012194991111755,0.5487805008888245,0.5487805008888245,1.5,0.0,-7.5,33.172401428222656,0,
 237254,-0.29833984375,-0.9326171875,-0.04150390625,-0.5487805008888245,0.4573170840740204,0.09146341681480408,0.0,0.75,-8.550000190734863,33.5557861328125,0,
 237264,-0.2890625,-0.9345703125,-0.04052734375,-0.9756097793579102,0.27439025044441223,0.3353658616542816,1.5,0.30000001192092896,-7.800000190734863,33.31616973876953,0,
 237274,-0.296875,-0.935302734375,-0.04052734375,-0.7317073345184326,0.24390244483947754,0.12195122241973877,1.5,0.30000001192092896,-7.800000190734863,33.412017822265625,0,
 237284,-0.296142578125,-0.93798828125,-0.036865234375,-0.4878048896789551,0.3048780560493469,0.21341463923454285,1.649999976158142,0.44999998807907104,-6.150000095367432,33.412017822265625,0,
 237294,-0.299560546875,-0.9326171875,-0.0390625,-0.3658536672592163,0.18292683362960815,0.0,0.0,0.75,-6.75,33.172401428222656,0,
 237304,-0.2958984375,-0.93359375,-0.03857421875,-0.7012194991111755,0.24390244483947754,0.3353658616542816,1.0499999523162842,0.0,-7.050000190734863,33.65163040161133,0,
 237314,-0.296142578125,-0.935302734375,-0.0419921875,-0.24390244483947754,0.5487805008888245,0.4268292784690857,-0.15000000596046448,-0.15000000596046448,-6.900000095367432,33.31616973876953,0,
 237324,-0.29443359375,-0.937255859375,-0.0390625,-0.5487805008888245,0.396341472864151,-0.030487805604934692,-0.15000000596046448,-0.15000000596046448,-6.900000095367432,33.2203254699707,0,
 237334,-0.3017578125,-0.935302734375,-0.037841796875,-0.6097561120986938,0.3048780560493469,0.0,1.0499999523162842,1.0499999523162842,-7.050000190734863,33.412017822265625,0,
 237344,-0.2939453125,-0.938232421875,-0.037109375,-0.7621951103210449,0.27439025044441223,0.18292683362960815,1.0499999523162842,-0.30000001192092896,-7.5,33.2203254699707,0,
 237364,-0.301513671875,-0.930908203125,-0.03955078125,-0.5182926654815674,0.27439025044441223,0.3658536672592163,-0.75,0.0,-9.0,33.36409378051758,0,
 237374,-0.29150390625,-0.9326171875,-0.0439453125,-0.4268292784690857,0.396341472864151,0.18292683362960815,-0.75,0.0,-9.0,33.31616973876953,0,
 237384,-0.291259765625,-0.932373046875,-0.041259765625,-0.5487805008888245,0.3658536672592163,0.4573170840740204,0.30000001192092896,1.0499999523162842,-6.300000190734863,33.50786209106445,0,
 237394,-0.296875,-0.931640625,-0.0380859375,-0.5487805008888245,0.060975611209869385,0.24390244483947754,2.4000000953674316,1.350000023841858,-7.199999809265137,33.172401428222656,0,
 237404,-0.29638671875,-0.929931640625,-0.04248046875,-0.6097561120986938,0.24390244483947754,0.3353658616542816,0.30000001192092896,1.0499999523162842,-7.800000190734863,33.36409378051758,0,
 237414,-0.294921875,-0.93359375,-0.03857421875,-0.5792682766914368,0.3658536672592163,0.18292683362960815,0.30000001192092896,0.75,-6.75,33.5557861328125,0,
 237424,-0.295166015625,-0.932373046875,-0.036376953125,-0.4573170840740204,0.5487805008888245,0.3048780560493469,0.30000001192092896,0.75,-6.75,33.412017822265625,0,
 237434,-0.296875,-0.934326171875,-0.040283203125,-0.3658536672592163,0.030487805604934692,0.21341463923454285,0.15000000596046448,0.44999998807907104,-6.900000095367432,33.31616973876953,0,
 237444,-0.29248046875,-0.931884765625,-0.038818359375,-0.5487805008888245,0.21341463923454285,0.4268292784690857,0.15000000596046448,-0.8999999761581421,-6.900000095367432,33.124481201171875,0,
 237454,-0.29833984375,-0.935546875,-0.041259765625,-0.4573170840740204,0.3048780560493469,0.18292683362960815,0.15000000596046448,0.8999999761581421,-7.199999809265137,33.412017822265625,0,
 237464,-0.300537109375,-0.93408203125,-0.045166015625,-0.3658536672592163,0.3353658616542816,0.5182926654815674,2.4000000953674316,1.350000023841858,-9.899999618530273,33.412017822265625,0,
 237474,-0.295166015625,-0.93994140625,-0.042724609375,-0.18292683362960815,0.27439025044441223,0.3658536672592163,2.4000000953674316,1.350000023841858,-9.899999618530273,33.412017822265625,0,
 237484,-0.29833984375,-0.942138671875,-0.049560546875,-0.3658536672592163,0.3658536672592163,0.27439025044441223,-0.8999999761581421,1.649999976158142,-7.650000095367432,33.172401428222656,0,
 237494,-0.299560546875,-0.937255859375,-0.03759765625,-0.4573170840740204,0.09146341681480408,0.3048780560493469,0.44999998807907104,0.8999999761581421,-6.150000095367432,33.5557861328125,0,
 237505,-0.295166015625,-0.934814453125,-0.0419921875,-0.3353658616542816,0.4268292784690857,0.27439025044441223,0.15000000596046448,2.0999999046325684,-7.650000095367432,33.31616973876953,0,
 237515,-0.29736328125,-0.9375,-0.037109375,-0.5182926654815674,0.3353658616542816,0.27439025044441223,0.8999999761581421,1.350000023841858,-7.650000095367432,33.31616973876953,0,
 237525,-0.296142578125,-0.93359375,-0.041748046875,-0.7012194991111755,0.15243902802467346,0.4268292784690857,0.8999999761581421,1.350000023841858,-7.650000095367432,33.172401428222656,0,
 237535,-0.29052734375,-0.934814453125,-0.041015625,-0.3353658616542816,0.4268292784690857,0.4268292784690857,1.5,0.75,-7.800000190734863,33.31616973876953,0,
 237545,-0.29248046875,-0.937255859375,-0.042724609375,-0.6402438879013062,0.6097561120986938,0.27439025044441223,0.75,0.0,-6.75,33.31616973876953,0,
 237555,-0.294677734375,-0.93603515625,-0.040283203125,-0.5792682766914368,0.3658536672592163,0.24390244483947754,0.30000001192092896,1.0499999523162842,-7.800000190734863,33.412017822265625,0,
 237565,-0.290283203125,-0.929931640625,-0.042724609375,-0.7012194991111755,0.12195122241973877,-0.060975611209869385,1.2000000476837158,1.350000023841858,-7.949999809265137,33.2203254699707,0,
 237575,-0.291748046875,-0.933837890625,-0.043701171875,-0.5792682766914368,0.396341472864151,0.18292683362960815,1.2000000476837158,1.350000023841858,-7.949999809265137,33.50786209106445,0,
 237585,-0.291259765625,-0.93359375,-0.0400390625,-0.6402438879013062,0.27439025044441223,0.27439025044441223,0.30000001192092896,0.75,-7.5,33.124481201171875,0,
 237595,-0.296142578125,-0.937255859375,-0.041259765625,-0.8231707215309143,0.4268292784690857,0.5182926654815674,2.0999999046325684,1.350000023841858,-6.449999809265137,33.2203254699707,0,
 237605,-0.29052734375,-0.939208984375,-0.03955078125,-0.7317073345184326,0.15243902802467346,0.4573170840740204,0.8999999761581421,0.44999998807907104,-7.199999809265137,33.31616973876953,0,
 237615,-0.295166015625,-0.934326171875,-0.03662109375,-0.4878048896789551,0.5487805008888245,0.4878048896789551,0.15000000596046448,0.44999998807907104,-7.199999809265137,33.5557861328125,0,
 237625,-0.2890625,-0.93115234375,-0.03662109375,-0.8231707215309143,0.27439025044441223,0.7317073345184326,0.15000000596046448,0.44999998807907104,-7.199999809265137,33.36409378051758,0,
 237635,-0.2998046875,-0.930908203125,-0.038818359375,-0.4878048896789551,0.18292683362960815,0.5487805008888245,1.649999976158142,1.649999976158142,-7.949999809265137,33.31616973876953,0,
 237645,-0.29638671875,-0.9326171875,-0.03955078125,-0.4878048896789551,0.27439025044441223,0.6097561120986938,0.15000000596046448,1.649999976158142,-7.650000095367432,33.412017822265625,0,
 237655,-0.298583984375,-0.9345703125,-0.04052734375,-0.4268292784690857,0.396341472864151,0.24390244483947754,1.0499999523162842,0.75,-7.050000190734863,33.412017822265625,0,
 237665,-0.292236328125,-0.931640625,-0.042724609375,-0.5792682766914368,-0.060975611209869385,0.3048780560493469,1.5,1.5,-8.25,33.50786209106445,0,
 237675,-0.2978515625,-0.933349609375,-0.036865234375,-0.6402438879013062,0.3658536672592163,0.18292683362960815,1.5,1.5,-8.25,33.2203254699707,0,
 237685,-0.29150390625,-0.93603515625,-0.0400390625,-0.7012194991111755,0.3658536672592163,0.09146341681480408,0.8999999761581421,1.649999976158142,-6.449999809265137,33.172401428222656,0,
 237695,-0.291748046875,-0.935791015625,-0.041015625,-0.4268292784690857,0.396341472864151,-0.15243902802467346,0.30000001192092896,1.0499999523162842,-6.75,33.412017822265625,0,
 237705,-0.286865234375,-0.93408203125,-0.04248046875,-0.7012194991111755,0.4573170840740204,0.0,0.75,1.5,-8.25,33.412017822265625,0,
 237715,-0.292724609375,-0.9384765625,-0.04345703125,-0.4268292784690857,0.4573170840740204,0.7317073345184326,2.4000000953674316,-0.8999999761581421,-6.900000095367432,33.31616973876953,0,
 237725,-0.298095703125,-0.9345703125,-0.045166015625,-0.5487805008888245,0.18292683362960815,0.3048780560493469,2.4000000953674316,-0.8999999761581421,-6.900000095367432,33.2203254699707,0,
 237735,-0.292236328125,-0.93359375,-0.03857421875,-0.7317073345184326,0.4878048896789551,0.6097561120986938,0.0,0.0,-6.75,33.172401428222656,0,
 237745,-0.293212890625,-0.938720703125,-0.043212890625,-0.7012194991111755,0.24390244483947754,0.3353658616542816,1.5,0.0,-6.300000190734863,33.412017822265625,0,
 237755,-0.294189453125,-0.93603515625,-0.0390625,-0.4878048896789551,0.396341472864151,0.4268292784690857,0.8999999761581421,-0.15000000596046448,-6.449999809265137,33.412017822265625,0,
 237765,-0.295166015625,-0.937255859375,-0.042724609375,-0.6097561120986938,0.15243902802467346,0.4268292784690857,1.5,0.30000001192092896,-7.5,33.172401428222656,0,
 237775,-0.29541015625,-0.937744140625,-0.0419921875,-0.7317073345184326,0.12195122241973877,0.4268292784690857,1.5,0.30000001192092896,-7.5,33.5557861328125,0,
 237785,-0.297607421875,-0.932861328125,-0.042236328125,-0.4878048896789551,0.24390244483947754,0.18292683362960815,-0.30000001192092896,-0.30000001192092896,-7.050000190734863,33.124481201171875,0,
 237795,-0.29541015625,-0.933837890625,-0.0439453125,-0.5182926654815674,0.396341472864151,0.15243902802467346,0.44999998807907104,0.8999999761581421,-7.650000095367432,33.412017822265625,0,
 237805,-0.289306640625,-0.93408203125,-0.039306640625,-0.3048780560493469,0.18292683362960815,0.4268292784690857,-0.30000001192092896,0.75,-7.5,33.412017822265625,0,
 237815,-0.2958984375,-0.931640625,-0.03955078125,-0.27439025044441223,0.5792682766914368,0.3353658616542816,0.75,-0.30000001192092896,-7.050000190734863,33.412017822265625,0,
 237825,-0.298828125,-0.93408203125,-0.038330078125,-0.7012194991111755,0.4573170840740204,0.4878048896789551,0.75,-0.30000001192092896,-7.050000190734863,33.31616973876953,0,
 237835,-0.293212890625,-0.932373046875,-0.042724609375,-0.6402438879013062,0.27439025044441223,0.18292683362960815,2.25,1.5,-7.5,33.172401428222656,0,
 237845,-0.29296875,-0.931396484375,-0.03759765625,-0.4268292784690857,0.4268292784690857,0.0,1.5,1.5,-7.050000190734863,33.50786209106445,0,
 237855,-0.297119140625,-0.941162109375,-0.0439453125,-0.4878048896789551,0.18292683362960815,0.18292683362960815,0.30000001192092896,0.30000001192092896,-7.050000190734863,33.31616973876953,0,
 237865,-0.295166015625,-0.936767578125,-0.039306640625,-0.792682945728302,0.5182926654815674,0.3353658616542816,0.30000001192092896,0.30000001192092896,-7.050000190734863,33.50786209106445,0,
 237875,-0.294921875,-0.9287109375,-0.043701171875,-0.7621951103210449,0.4268292784690857,-0.12195122241973877,0.30000001192092896,0.30000001192092896,-7.050000190734863,33.5557861328125,0,
 237885,-0.296142578125,-0.937255859375,-0.044189453125,-0.6097561120986938,0.24390244483947754,0.27439025044441223,0.0,0.75,-6.75,33.2203254699707,0,
 237895,-0.297119140625,-0.92822265625,-0.040771484375,-0.5487805008888245,0.7012194991111755,0.4268292784690857,0.0,1.9500000476837158,-8.25,33.2203254699707,0,
 237915,-0.28955078125,-0.930419921875,-0.036376953125,-0.9451219439506531,0.24390244483947754,0.18292683362960815,0.8999999761581421,-0.15000000596046448,-6.449999809265137,33.50786209106445,0,
 237925,-0.291259765625,-0.93408203125,-0.037109375,-0.7317073345184326,0.24390244483947754,0.5487805008888245,1.7999999523162842,0.75,-6.75,33.412017822265625,0,
 237935,-0.29248046875,-0.934326171875,-0.041015625,-0.27439025044441223,0.4268292784690857,0.3353658616542816,0.44999998807907104,0.15000000596046448,-6.449999809265137,33.2203254699707,0,
 237945,-0.295654296875,-0.93408203125,-0.035888671875,-0.5487805008888245,0.396341472864151,0.4878048896789551,-0.15000000596046448,0.15000000596046448,-6.900000095367432,33.412017822265625,0,
 237955,-0.2900390625,-0.93359375,-0.04248046875,-0.6097561120986938,0.15243902802467346,0.4268292784690857,-0.30000001192092896,0.30000001192092896,-7.5,33.5557861328125,0,
 237965,-0.29638671875,-0.93359375,-0.041748046875,-0.6707317233085632,0.27439025044441223,0.27439025044441223,-0.30000001192092896,0.30000001192092896,-7.5,33.2203254699707,0,
 238045,-0.295654296875,-0.941162109375,-0.037841796875,-0.5792682766914368,0.3353658616542816,0.09146341681480408,0.30000001192092896,1.5,-8.550000190734863,33.5557861328125,0,
 238055,-0.289306640625,-0.9384765625,-0.03955078125,-0.15243902802467346,0.3048780560493469,0.09146341681480408,0.44999998807907104,-0.15000000596046448,-9.449999809265137,33.2203254699707,0,
 238065,-0.29833984375,-0.93359375,-0.04150390625,-0.8841463327407837,0.15243902802467346,0.27439025044441223,0.44999998807907104,-0.15000000596046448,-9.449999809265137,33.36409378051758,0,
 238075,-0.300537109375,-0.936279296875,-0.03955078125,-0.4878048896789551,0.4268292784690857,0.4878048896789551,0.8999999761581421,-0.8999999761581421,-7.949999809265137,33.124481201171875,0,
 238085,-0.296875,-0.931640625,-0.039306640625,-0.3353658616542816,0.21341463923454285,0.5182926654815674,-1.0499999523162842,0.0,-6.300000190734863,33.412017822265625,0,
 238095,-0.2939453125,-0.9296875,-0.039306640625,-0.6402438879013062,0.15243902802467346,0.396341472864151,0.0,0.75,-8.25,33.412017822265625,0,
 238105,-0.299560546875,-0.9384765625,-0.043701171875,-0.4268292784690857,0.09146341681480408,0.4573170840740204,2.549999952316284,1.9500000476837158,-7.050000190734863,33.36409378051758,0,
 238115,-0.295654296875,-0.934814453125,-0.043701171875,-0.060975611209869385,0.21341463923454285,0.24390244483947754,2.549999952316284,1.9500000476837158,-7.050000190734863,33.412017822265625,0,
 238125,-0.28955078125,-0.93701171875,-0.043212890625,-0.5182926654815674,0.27439025044441223,0.0,1.649999976158142,1.350000023841858,-6.449999809265137,33.31616973876953,0,
 238135,-0.29931640625,-0.92919921875,-0.03955078125,-0.8231707215309143,0.4573170840740204,0.24390244483947754,0.8999999761581421,0.44999998807907104,-7.949999809265137,33.31616973876953,0,
 238145,-0.293212890625,-0.932373046875,-0.040771484375,-0.6097561120986938,0.27439025044441223,0.24390244483947754,0.75,0.0,-7.800000190734863,33.36409378051758,0,
 238155,-0.29248046875,-0.934814453125,-0.041015625,-1.0670732259750366,0.4878048896789551,0.15243902802467346,-0.44999998807907104,1.649999976158142,-6.900000095367432,33.31616973876953,0,
 238165,-0.2919921875,-0.927001953125,-0.048095703125,-0.792682945728302,0.3048780560493469,0.18292683362960815,-0.44999998807907104,1.649999976158142,-6.900000095367432,33.699554443359375,0,
 238175,-0.29443359375,-0.93603515625,-0.04541015625,-0.8841463327407837,0.3658536672592163,0.060975611209869385,0.15000000596046448,2.549999952316284,-7.199999809265137,33.2203254699707,0,
 238185,-0.2958984375,-0.93505859375,-0.03515625,-0.4268292784690857,0.24390244483947754,0.3048780560493469,2.0999999046325684,0.15000000596046448,-7.199999809265137,33.50786209106445,0,
 238195,-0.29541015625,-0.938232421875,-0.037109375,-0.9756097793579102,0.24390244483947754,0.3048780560493469,0.8999999761581421,0.44999998807907104,-7.650000095367432,33.412017822265625,0,
 238205,-0.2919921875,-0.9384765625,-0.041748046875,-0.4573170840740204,0.3353658616542816,0.27439025044441223,-0.75,0.0,-8.25,33.412017822265625,0,
 238215,-0.298828125,-0.93310546875,-0.0400390625,-0.4268292784690857,0.3658536672592163,0.030487805604934692,-0.75,0.0,-8.25,33.412017822265625,0,
 238225,-0.28857421875,-0.932373046875,-0.04052734375,-0.792682945728302,0.6402438879013062,0.6707317233085632,0.44999998807907104,0.8999999761581421,-7.199999809265137,33.412017822265625,0,
 238236,-0.291015625,-0.932861328125,-0.043701171875,-0.8231707215309143,0.4268292784690857,0.21341463923454285,0.30000001192092896,0.75,-7.5,33.65163040161133,0,
 238246,-0.28857421875,-0.9384765625,-0.040283203125,-0.3658536672592163,0.060975611209869385,0.6402438879013062,0.30000001192092896,0.75,-6.0,33.412017822265625,0,
 238256,-0.2958984375,-0.934326171875,-0.041748046875,0.09146341681480408,0.12195122241973877,0.5487805008888245,0.30000001192092896,0.75,-6.0,33.412017822265625,0,
 238266,-0.291748046875,-0.937255859375,-0.037109375,0.030487805604934692,0.396341472864151,0.4878048896789551,0.30000001192092896,0.75,-6.0,33.50786209106445,0,
 238276,-0.3017578125,-0.9384765625,-0.043701171875,-0.6097561120986938,0.15243902802467346,0.5487805008888245,1.649999976158142,1.649999976158142,-6.449999809265137,33.172401428222656,0,
 238286,-0.29345703125,-0.931884765625,-0.037109375,-0.4878048896789551,0.4878048896789551,0.6707317233085632,0.30000001192092896,1.5,-6.300000190734863,33.5557861328125,0,
 238296,-0.289794921875,-0.931640625,-0.04541015625,-0.6402438879013062,0.18292683362960815,0.09146341681480408,0.0,0.75,-7.800000190734863,33.412017822265625,0,
 238306,-0.2919921875,-0.928955078125,-0.039306640625,-0.3353658616542816,0.21341463923454285,0.27439025044441223,0.0,0.75,-7.800000190734863,33.2203254699707,0,
 238316,-0.29638671875,-0.930908203125,-0.042236328125,-0.4573170840740204,0.27439025044441223,0.27439025044441223,0.0,0.75,-7.800000190734863,33.412017822265625,0,
 238326,-0.29248046875,-0.931640625,-0.04736328125,-0.7317073345184326,0.15243902802467346,0.5182926654815674,1.2000000476837158,0.8999999761581421,-8.399999618530273,33.31616973876953,0,
 238336,-0.291748046875,-0.933837890625,-0.04296875,-0.27439025044441223,0.4268292784690857,0.3658536672592163,2.25,1.9500000476837158,-7.5,33.412017822265625,0,
 238346,-0.29345703125,-0.935302734375,-0.036865234375,-0.6402438879013062,0.396341472864151,0.3658536672592163,0.75,0.75,-7.5,33.412017822265625,0,
 238356,-0.29052734375,-0.935302734375,-0.04443359375,-0.396341472864151,0.060975611209869385,0.15243902802467346,0.75,0.75,-7.5,33.172401428222656,0,
 238366,-0.291259765625,-0.936767578125,-0.045654296875,-0.3658536672592163,0.3048780560493469,0.27439025044441223,1.7999999523162842,0.75,-9.0,33.412017822265625,0,
 238376,-0.289794921875,-0.93310546875,-0.036376953125,-0.3658536672592163,0.0,0.3353658616542816,0.8999999761581421,1.350000023841858,-7.650000095367432,33.124481201171875,0,
 238386,-0.299560546875,-0.93359375,-0.042236328125,-0.4573170840740204,0.12195122241973877,0.27439025044441223,1.0499999523162842,0.0,-7.5,33.412017822265625,0,
 238396,-0.28857421875,-0.93310546875,-0.03955078125,-0.09146341681480408,0.0,0.3658536672592163,0.30000001192092896,1.5,-8.550000190734863,33.412017822265625,0,
 238406,-0.29443359375,-0.938720703125,-0.035888671875,-0.4268292784690857,0.3048780560493469,0.27439025044441223,0.30000001192092896,1.5,-8.550000190734863,33.172401428222656,0,
 238416,-0.29541015625,-0.939208984375,-0.042724609375,-0.4878048896789551,0.27439025044441223,0.18292683362960815,0.75,1.0499999523162842,-6.0,33.412017822265625,0,
 238426,-0.290283203125,-0.934326171875,-0.040771484375,-0.6707317233085632,0.3353658616542816,0.3658536672592163,0.15000000596046448,1.649999976158142,-7.949999809265137,33.50786209106445,0,
 238436,-0.287841796875,-0.9384765625,-0.0419921875,-0.7012194991111755,0.27439025044441223,0.060975611209869385,1.0499999523162842,1.0499999523162842,-8.550000190734863,33.412017822265625,0,
 238446,-0.29345703125,-0.935546875,-0.04296875,-0.8231707215309143,0.6097561120986938,0.12195122241973877,1.5,0.30000001192092896,-7.800000190734863,33.412017822265625,0,
 238456,-0.296875,-0.93310546875,-0.040283203125,-0.3658536672592163,0.27439025044441223,0.3353658616542816,1.5,0.30000001192092896,-7.800000190734863,33.412017822265625,0,
 238466,-0.294189453125,-0.936767578125,-0.042724609375,-0.3658536672592163,0.4573170840740204,0.396341472864151,0.8999999761581421,0.44999998807907104,-8.399999618530273,33.31616973876953,0,
 238476,-0.29541015625,-0.932861328125,-0.0390625,-0.6707317233085632,0.21341463923454285,0.27439025044441223,0.15000000596046448,2.0999999046325684,-7.199999809265137,33.412017822265625,0,
 238486,-0.29833984375,-0.93408203125,-0.04248046875,-0.6402438879013062,0.396341472864151,0.27439025044441223,1.0499999523162842,-2.25,-9.75,33.5557861328125,0,
 238496,-0.288330078125,-0.937744140625,-0.044189453125,-0.7012194991111755,0.7012194991111755,0.4268292784690857,1.5,-0.30000001192092896,-7.5,33.412017822265625,0,
 238506,-0.29541015625,-0.93505859375,-0.0458984375,-0.4573170840740204,0.8536585569381714,0.6707317233085632,1.5,-0.30000001192092896,-7.5,33.50786209106445,0,
 238516,-0.285400390625,-0.944091796875,-0.043212890625,-1.0670732259750366,0.7012194991111755,0.3658536672592163,0.75,2.25,-8.25,33.31616973876953,0,
 238526,-0.2919921875,-0.923583984375,-0.04150390625,-0.27439025044441223,0.3048780560493469,0.18292683362960815,0.8999999761581421,2.549999952316284,-7.949999809265137,33.412017822265625,0,
 238536,-0.28759765625,-0.93603515625,-0.040771484375,-0.7621951103210449,0.4573170840740204,0.18292683362960815,0.8999999761581421,-0.44999998807907104,-7.949999809265137,33.412017822265625,0,
 238546,-0.29443359375,-0.927734375,-0.050537109375,-0.396341472864151,0.09146341681480408,0.3658536672592163,1.0499999523162842,1.9500000476837158,-8.25,33.31616973876953,0,
 238556,-0.2939453125,-0.93408203125,-0.04296875,-0.5487805008888245,0.27439025044441223,0.3658536672592163,1.0499999523162842,1.9500000476837158,-8.25,33.31616973876953,0,
 238566,-0.293701171875,-0.94140625,-0.044921875,-0.3353658616542816,0.12195122241973877,0.3048780560493469,-0.44999998807907104,-0.44999998807907104,-5.699999809265137,33.31616973876953,0,
 238576,-0.2939453125,-0.936767578125,-0.04052734375,-0.3658536672592163,0.18292683362960815,0.4573170840740204,0.30000001192092896,1.0499999523162842,-7.050000190734863,33.412017822265625,0,
 238586,-0.294189453125,-0.932861328125,-0.044921875,-0.5792682766914368,0.24390244483947754,0.6707317233085632,2.25,2.700000047683716,-9.300000190734863,33.412017822265625,0,
 238596,-0.291259765625,-0.940185546875,-0.0380859375,-0.8536585569381714,0.4573170840740204,0.27439025044441223,0.15000000596046448,0.8999999761581421,-8.399999618530273,33.31616973876953,0,
 238606,-0.29296875,-0.936279296875,-0.033935546875,-0.4878048896789551,0.4573170840740204,0.396341472864151,0.15000000596046448,0.8999999761581421,-8.399999618530273,33.412017822265625,0,
 238616,-0.29150390625,-0.934326171875,-0.04052734375,-0.5487805008888245,0.4268292784690857,0.27439025044441223,0.8999999761581421,-0.44999998807907104,-7.199999809265137,33.172401428222656,0,
 238626,-0.294189453125,-0.935302734375,-0.04541015625,-0.4878048896789551,0.24390244483947754,0.396341472864151,1.649999976158142,1.350000023841858,-8.399999618530273,33.172401428222656,0,
 238636,-0.2919921875,-0.9345703125,-0.041748046875,-0.5182926654815674,0.6097561120986938,0.09146341681480408,1.0499999523162842,0.30000001192092896,-7.800000190734863,33.412017822265625,0,
 238646,-0.28955078125,-0.937255859375,-0.0458984375,-0.7621951103210449,0.18292683362960815,0.4268292784690857,0.75,0.75,-8.25,33.412017822265625,0,
 238656,-0.29931640625,-0.935546875,-0.039306640625,-0.12195122241973877,0.27439025044441223,0.4573170840740204,0.75,0.75,-8.25,33.412017822265625,0,
 238666,-0.293212890625,-0.932861328125,-0.03955078125,-0.7012194991111755,0.060975611209869385,0.396341472864151,0.75,2.25,-7.5,33.2203254699707,0,
 238676,-0.29638671875,-0.9345703125,-0.037353515625,-0.6402438879013062,0.396341472864151,0.0,1.5,0.75,-6.0,33.412017822265625,0,
 238686,-0.294677734375,-0.937744140625,-0.0390625,-0.4573170840740204,0.4268292784690857,0.6402438879013062,1.7999999523162842,2.700000047683716,-9.0,33.412017822265625,0,
 238696,-0.295166015625,-0.93896484375,-0.03955078125,-0.8536585569381714,0.21341463923454285,0.3353658616542816,1.7999999523162842,2.700000047683716,-9.0,33.412017822265625,0,
 238706,-0.293701171875,-0.93310546875,-0.037841796875,-0.7012194991111755,0.4878048896789551,0.24390244483947754,1.0499999523162842,1.0499999523162842,-7.800000190734863,33.31616973876953,0,
 238716,-0.289306640625,-0.9345703125,-0.043701171875,-0.4878048896789551,0.4268292784690857,0.3353658616542816,0.8999999761581421,0.8999999761581421,-7.949999809265137,33.2203254699707,0,
 238726,-0.295166015625,-0.9365234375,-0.03857421875,-0.3353658616542816,0.24390244483947754,0.09146341681480408,0.30000001192092896,0.30000001192092896,-7.800000190734863,33.5557861328125,0,
 238736,-0.29345703125,-0.9345703125,-0.03955078125,-0.4573170840740204,0.3658536672592163,0.4268292784690857,0.0,0.0,-7.5,33.50786209106445,0,
 238746,-0.292724609375,-0.9326171875,-0.037353515625,-0.3658536672592163,0.27439025044441223,0.15243902802467346,0.0,0.0,-7.5,33.31616973876953,0,
 238756,-0.29736328125,-0.93505859375,-0.041259765625,-0.21341463923454285,0.24390244483947754,0.4268292784690857,2.0999999046325684,1.350000023841858,-8.699999809265137,33.36409378051758,0,
 238766,-0.295166015625,-0.937255859375,-0.037841796875,-0.27439025044441223,0.4573170840740204,0.396341472864151,1.5,1.0499999523162842,-8.25,33.172401428222656,0,
 238776,-0.2958984375,-0.934814453125,-0.038330078125,-0.4573170840740204,0.0,0.396341472864151,0.44999998807907104,-0.8999999761581421,-8.699999809265137,33.5557861328125,0,
 238786,-0.292724609375,-0.9306640625,-0.03662109375,-0.3048780560493469,0.3658536672592163,0.6402438879013062,0.44999998807907104,0.8999999761581421,-7.650000095367432,33.412017822265625,0,
 238796,-0.29345703125,-0.933837890625,-0.038818359375,-0.8231707215309143,0.24390244483947754,0.27439025044441223,0.44999998807907104,0.8999999761581421,-7.650000095367432,33.31616973876953,0,
 238806,-0.29443359375,-0.927001953125,-0.038818359375,-0.7317073345184326,0.27439025044441223,0.27439025044441223,-0.15000000596046448,2.549999952316284,-7.949999809265137,33.412017822265625,0,
 238816,-0.29248046875,-0.934326171875,-0.0390625,-0.4878048896789551,0.030487805604934692,0.18292683362960815,1.2000000476837158,-0.44999998807907104,-7.199999809265137,33.31616973876953,0,
 238826,-0.294189453125,-0.9375,-0.03955078125,-0.7317073345184326,0.7012194991111755,0.18292683362960815,0.0,1.5,-7.5,33.31616973876953,0,
 238836,-0.29736328125,-0.940673828125,-0.03515625,-0.8841463327407837,0.3048780560493469,0.12195122241973877,1.0499999523162842,1.5,-7.5,33.36409378051758,0,
 238846,-0.298095703125,-0.930908203125,-0.04443359375,-1.0365853309631348,0.18292683362960815,0.12195122241973877,1.0499999523162842,1.5,-7.5,33.31616973876953,0,
 238856,-0.296875,-0.935791015625,-0.04296875,-0.4573170840740204,0.3658536672592163,0.0,1.5,2.25,-8.550000190734863,33.31616973876953,0,
 238866,-0.294189453125,-0.934326171875,-0.041259765625,-0.9451219439506531,0.4268292784690857,0.396341472864151,1.5,1.0499999523162842,-7.800000190734863,33.5557861328125,0,
 238876,-0.292236328125,-0.93603515625,-0.040771484375,-0.5182926654815674,0.24390244483947754,0.4268292784690857,0.8999999761581421,0.8999999761581421,-7.199999809265137,33.412017822265625,0,
 238886,-0.297119140625,-0.93505859375,-0.038818359375,-0.5487805008888245,0.4573170840740204,0.3353658616542816,0.75,0.75,-7.050000190734863,33.412017822265625,0,
 238896,-0.293212890625,-0.931396484375,-0.0390625,-0.5792682766914368,0.18292683362960815,0.21341463923454285,0.75,0.75,-7.050000190734863,33.412017822265625,0,
 238906,-0.295654296875,-0.929443359375,-0.039794921875,-0.7621951103210449,0.3658536672592163,0.4268292784690857,0.30000001192092896,-0.30000001192092896,-9.0,33.2203254699707,0,
 238916,-0.2978515625,-0.93798828125,-0.03515625,-0.8841463327407837,0.3048780560493469,0.4268292784690857,0.44999998807907104,0.44999998807907104,-10.649999618530273,33.31616973876953,0,
 238926,-0.302734375,-0.9384765625,-0.042236328125,-0.3353658616542816,0.5792682766914368,0.24390244483947754,1.649999976158142,2.8499999046325684,-10.949999809265137,33.36409378051758,0,
 238936,-0.297119140625,-0.9326171875,-0.04150390625,-0.9756097793579102,0.3048780560493469,0.3048780560493469,2.4000000953674316,1.649999976158142,-7.650000095367432,33.36409378051758,0,
 238946,-0.296875,-0.9404296875,-0.04296875,-0.4268292784690857,0.4573170840740204,0.12195122241973877,2.4000000953674316,1.649999976158142,-7.650000095367432,33.412017822265625,0,
 238956,-0.29248046875,-0.93310546875,-0.04345703125,-0.6097561120986938,0.24390244483947754,0.3658536672592163,1.7999999523162842,0.0,-7.050000190734863,33.172401428222656,0,
 238966,-0.296142578125,-0.937255859375,-0.044677734375,-0.3048780560493469,0.4268292784690857,0.15243902802467346,1.5,-0.30000001192092896,-7.800000190734863,33.172401428222656,0,
 238977,-0.292236328125,-0.93017578125,-0.040283203125,-0.396341472864151,0.3048780560493469,0.3353658616542816,2.0999999046325684,0.44999998807907104,-7.650000095367432,33.412017822265625,0,
 238987,-0.2939453125,-0.935302734375,-0.037841796875,-0.7621951103210449,0.15243902802467346,0.030487805604934692,1.5,1.0499999523162842,-9.0,33.412017822265625,0,
 238997,-0.292236328125,-0.9375,-0.0419921875,-0.4268292784690857,0.27439025044441223,0.6097561120986938,1.5,1.0499999523162842,-9.0,33.50786209106445,0,
 239007,-0.29345703125,-0.935546875,-0.040771484375,-0.396341472864151,0.3658536672592163,0.3658536672592163,0.30000001192092896,0.0,-8.550000190734863,33.31616973876953,0,
 239017,-0.29150390625,-0.93310546875,-0.042724609375,0.0,0.060975611209869385,0.4573170840740204,0.75,1.0499999523162842,-7.5,33.412017822265625,0,
 239027,-0.29931640625,-0.936767578125,-0.038818359375,-0.12195122241973877,0.12195122241973877,0.3048780560493469,1.2000000476837158,-0.15000000596046448,-7.949999809265137,33.31616973876953,0,
 239037,-0.290283203125,-0.933837890625,-0.040283203125,-0.27439025044441223,0.4878048896789551,0.3048780560493469,1.5,0.0,-7.5,33.412017822265625,0,
 239047,-0.298095703125,-0.929931640625,-0.0400390625,-0.4268292784690857,0.3353658616542816,0.18292683362960815,1.5,0.0,-7.5,33.5557861328125,0,
 239057,-0.29443359375,-0.9365234375,-0.04150390625,-0.5182926654815674,0.24390244483947754,0.6707317233085632,1.7999999523162842,-0.30000001192092896,-7.5,33.124481201171875,0,
 239067,-0.291015625,-0.935302734375,-0.041748046875,-0.12195122241973877,0.27439025044441223,0.27439025044441223,1.0499999523162842,2.25,-6.75,33.412017822265625,0,
 239077,-0.294677734375,-0.93896484375,-0.040283203125,-0.4573170840740204,0.27439025044441223,0.4268292784690857,0.75,0.30000001192092896,-8.25,33.02863311767578,0,
 239087,-0.296142578125,-0.932861328125,-0.04541015625,-0.27439025044441223,0.24390244483947754,0.4573170840740204,-0.30000001192092896,-0.30000001192092896,-6.300000190734863,33.412017822265625,0,
 239097,-0.2958984375,-0.9384765625,-0.038330078125,-0.24390244483947754,0.3658536672592163,0.4268292784690857,-0.30000001192092896,-0.30000001192092896,-6.300000190734863,33.31616973876953,0,
 239107,-0.293701171875,-0.934326171875,-0.03515625,-0.5487805008888245,-0.15243902802467346,0.4268292784690857,1.5,0.30000001192092896,-7.050000190734863,33.172401428222656,0,
 239117,-0.289794921875,-0.94189453125,-0.038330078125,-0.5182926654815674,0.060975611209869385,0.4268292784690857,1.5,1.9500000476837158,-7.800000190734863,33.412017822265625,0,
 239127,-0.296875,-0.931396484375,-0.039306640625,-0.7621951103210449,0.12195122241973877,0.6402438879013062,1.5,0.0,-7.050000190734863,33.412017822265625,0,
 239137,-0.295166015625,-0.928466796875,-0.046630859375,-0.5182926654815674,0.3353658616542816,0.396341472864151,-0.44999998807907104,0.8999999761581421,-7.949999809265137,33.50786209106445,0,
 239147,-0.297119140625,-0.93212890625,-0.03955078125,0.27439025044441223,0.09146341681480408,0.27439025044441223,-0.44999998807907104,0.8999999761581421,-7.949999809265137,33.412017822265625,0,
 239157,-0.297119140625,-0.9384765625,-0.03857421875,-0.3048780560493469,-0.21341463923454285,0.18292683362960815,1.2000000476837158,0.15000000596046448,-6.900000095367432,33.124481201171875,0,
 239167,-0.296875,-0.94091796875,-0.03857421875,-0.3353658616542816,0.030487805604934692,-0.18292683362960815,0.30000001192092896,0.75,-8.25,33.50786209106445,0,
 239177,-0.2998046875,-0.937255859375,-0.04296875,-0.6707317233085632,0.6402438879013062,0.18292683362960815,0.15000000596046448,0.15000000596046448,-7.199999809265137,33.412017822265625,0,
 239187,-0.29443359375,-0.93505859375,-0.046630859375,-0.8536585569381714,0.5792682766914368,-0.09146341681480408,0.44999998807907104,0.8999999761581421,-7.949999809265137,33.31616973876953,0,
 239197,-0.297607421875,-0.93310546875,-0.043701171875,-0.5792682766914368,0.4573170840740204,-0.09146341681480408,0.44999998807907104,0.8999999761581421,-7.949999809265137,33.50786209106445,0,
 239207,-0.292724609375,-0.9365234375,-0.039306640625,-0.9451219439506531,0.18292683362960815,0.396341472864151,1.0499999523162842,1.0499999523162842,-8.25,33.36409378051758,0,
 239217,-0.296630859375,-0.9345703125,-0.042236328125,-0.5792682766914368,0.4573170840740204,-0.15243902802467346,1.7999999523162842,2.25,-7.050000190734863,33.412017822265625,0,
 239227,-0.294677734375,-0.937255859375,-0.04052734375,-0.5182926654815674,0.4268292784690857,0.18292683362960815,1.5,1.0499999523162842,-8.25,33.36409378051758,0,
 239237,-0.2958984375,-0.935791015625,-0.041259765625,-0.5182926654815674,0.27439025044441223,0.27439025044441223,0.44999998807907104,0.44999998807907104,-7.199999809265137,33.36409378051758,0,
 239247,-0.294921875,-0.93212890625,-0.045166015625,-0.4573170840740204,0.21341463923454285,0.18292683362960815,0.44999998807907104,0.44999998807907104,-7.199999809265137,33.412017822265625,0,
 239257,-0.297119140625,-0.927978515625,-0.042724609375,-0.5487805008888245,0.4268292784690857,0.3353658616542816,1.5,2.25,-6.75,33.31616973876953,0,
 239267,-0.295654296875,-0.936767578125,-0.04345703125,-0.5487805008888245,0.0,0.4268292784690857,1.5,0.75,-8.550000190734863,33.50786209106445,0,
 239277,-0.297119140625,-0.931884765625,-0.0419921875,-0.6097561120986938,0.3353658616542816,0.4878048896789551,1.5,1.0499999523162842,-7.5,33.412017822265625,0,
 239287,-0.296142578125,-0.9345703125,-0.037109375,-0.030487805604934692,0.396341472864151,0.3658536672592163,1.7999999523162842,0.75,-8.550000190734863,33.412017822265625,0,
 239297,-0.29248046875,-0.935791015625,-0.03759765625,-0.5487805008888245,0.3048780560493469,0.3353658616542816,1.7999999523162842,0.75,-8.550000190734863,33.412017822265625,0,
 239307,-0.296875,-0.936767578125,-0.04541015625,-0.3658536672592163,0.060975611209869385,0.4268292784690857,-0.15000000596046448,-0.44999998807907104,-9.449999809265137,33.5557861328125,0,
 239317,-0.29443359375,-0.930419921875,-0.03955078125,-0.4878048896789551,0.27439025044441223,0.09146341681480408,1.649999976158142,-0.44999998807907104,-6.449999809265137,33.412017822265625,0,
 239327,-0.291259765625,-0.936279296875,-0.036376953125,-0.3048780560493469,0.21341463923454285,0.5182926654815674,2.4000000953674316,2.549999952316284,-8.399999618530273,33.65163040161133,0,
 239337,-0.293212890625,-0.931884765625,-0.039794921875,-0.18292683362960815,0.18292683362960815,0.15243902802467346,2.4000000953674316,2.549999952316284,-8.399999618530273,33.412017822265625,0,
 239347,-0.297607421875,-0.935546875,-0.042236328125,-0.6707317233085632,0.3048780560493469,0.21341463923454285,2.4000000953674316,2.549999952316284,-8.399999618530273,33.36409378051758,0,
 239357,-0.296875,-0.935546875,-0.03662109375,-0.3658536672592163,0.4268292784690857,0.060975611209869385,0.30000001192092896,1.5,-7.800000190734863,33.50786209106445,0,
 239367,-0.292236328125,-0.93603515625,-0.038818359375,-0.396341472864151,0.18292683362960815,0.15243902802467346,1.0499999523162842,1.9500000476837158,-8.550000190734863,33.50786209106445,0,
 239377,-0.294189453125,-0.939208984375,-0.041748046875,-0.8231707215309143,0.3353658616542816,0.4573170840740204,0.30000001192092896,1.9500000476837158,-7.5,33.412017822265625,0,
 239387,-0.297119140625,-0.932373046875,-0.046630859375,-0.7317073345184326,0.396341472864151,0.4878048896789551,0.30000001192092896,1.9500000476837158,-7.5,33.412017822265625,0,
 239397,-0.28955078125,-0.931640625,-0.04150390625,-0.3658536672592163,0.4573170840740204,0.8841463327407837,1.0499999523162842,0.30000001192092896,-7.800000190734863,33.2203254699707,0,
 239407,-0.294189453125,-0.929443359375,-0.039794921875,0.0,0.3048780560493469,0.6097561120986938,2.8499999046325684,1.350000023841858,-9.899999618530273,33.412017822265625,0,
 239417,-0.294921875,-0.9287109375,-0.0380859375,-0.15243902802467346,0.18292683362960815,0.3353658616542816,1.2000000476837158,1.649999976158142,-7.650000095367432,33.36409378051758,0,
 239427,-0.292236328125,-0.93505859375,-0.04345703125,-0.3048780560493469,0.18292683362960815,0.18292683362960815,0.75,1.0499999523162842,-7.050000190734863,33.31616973876953,0,
 239437,-0.291748046875,-0.931396484375,-0.04345703125,-0.5182926654815674,0.030487805604934692,0.3353658616542816,0.75,1.0499999523162842,-7.050000190734863,33.412017822265625,0,
 239447,-0.293701171875,-0.935302734375,-0.04150390625,-0.24390244483947754,0.3048780560493469,0.12195122241973877,1.649999976158142,0.44999998807907104,-6.900000095367432,33.2203254699707,0,
 239457,-0.294921875,-0.934326171875,-0.04736328125,-0.4573170840740204,0.24390244483947754,0.27439025044441223,0.8999999761581421,1.350000023841858,-7.949999809265137,33.31616973876953,0,
 239467,-0.29541015625,-0.933349609375,-0.0390625,-0.24390244483947754,0.3658536672592163,0.4268292784690857,0.30000001192092896,0.75,-7.5,33.172401428222656,0,
 239477,-0.296630859375,-0.929443359375,-0.03466796875,-0.5792682766914368,0.396341472864151,0.3048780560493469,0.8999999761581421,1.649999976158142,-7.650000095367432,33.412017822265625,0,
 239487,-0.295654296875,-0.93310546875,-0.03857421875,-0.24390244483947754,-0.030487805604934692,0.396341472864151,0.8999999761581421,1.649999976158142,-7.650000095367432,33.412017822265625,0,
 239497,-0.29248046875,-0.928955078125,-0.041259765625,-0.5792682766914368,0.396341472864151,0.21341463923454285,1.649999976158142,1.649999976158142,-7.199999809265137,33.172401428222656,0,
 239507,-0.293701171875,-0.937255859375,-0.0400390625,-0.3353658616542816,0.27439025044441223,0.4268292784690857,0.0,1.9500000476837158,-9.75,33.412017822265625,0,
 239517,-0.297607421875,-0.93017578125,-0.036376953125,-0.3048780560493469,0.09146341681480408,0.24390244483947754,0.75,0.0,-6.300000190734863,33.31616973876953,0,
 239527,-0.293212890625,-0.93701171875,-0.040283203125,-0.21341463923454285,0.3353658616542816,0.21341463923454285,-0.44999998807907104,1.350000023841858,-7.949999809265137,33.36409378051758,0,
 239537,-0.296142578125,-0.935791015625,-0.03759765625,-1.0060975551605225,0.24390244483947754,0.3353658616542816,-0.44999998807907104,1.350000023841858,-7.949999809265137,33.31616973876953,0,
 239557,-0.291748046875,-0.93115234375,-0.045654296875,-0.7317073345184326,0.21341463923454285,-0.030487805604934692,0.75,0.30000001192092896,-7.050000190734863,33.36409378051758,0,
 239567,-0.296875,-0.937255859375,-0.044189453125,-0.6097561120986938,0.396341472864151,0.27439025044441223,0.44999998807907104,1.350000023841858,-7.650000095367432,33.50786209106445,0,
 239577,-0.29541015625,-0.935546875,-0.045166015625,-0.7317073345184326,0.3353658616542816,0.060975611209869385,0.30000001192092896,0.30000001192092896,-8.550000190734863,33.5557861328125,0,
 239588,-0.2978515625,-0.931884765625,-0.041259765625,-0.4573170840740204,0.3353658616542816,0.15243902802467346,0.30000001192092896,0.30000001192092896,-8.550000190734863,33.50786209106445,0,
 239598,-0.29443359375,-0.938232421875,-0.0380859375,-0.8841463327407837,0.15243902802467346,0.24390244483947754,-0.15000000596046448,1.350000023841858,-8.399999618530273,33.31616973876953,0,
 239608,-0.29296875,-0.936767578125,-0.036376953125,-0.7621951103210449,0.4573170840740204,0.15243902802467346,1.0499999523162842,1.0499999523162842,-7.800000190734863,33.5557861328125,0,
 239618,-0.291259765625,-0.93603515625,-0.037109375,-0.7012194991111755,0.8231707215309143,0.3353658616542816,0.75,0.0,-9.0,33.31616973876953,0,
 239628,-0.300048828125,-0.934814453125,-0.042236328125,-0.792682945728302,0.4573170840740204,0.09146341681480408,2.549999952316284,1.0499999523162842,-8.25,33.5557861328125,0,
 239638,-0.29443359375,-0.937255859375,-0.039306640625,-0.8841463327407837,0.4573170840740204,-0.060975611209869385,2.549999952316284,1.0499999523162842,-8.25,33.31616973876953,0,
 239648,-0.2939453125,-0.940673828125,-0.04052734375,-0.8536585569381714,0.3353658616542816,0.24390244483947754,0.44999998807907104,0.44999998807907104,-6.449999809265137,33.172401428222656,0,
 239658,-0.30126953125,-0.932861328125,-0.042724609375,-0.9146341681480408,0.27439025044441223,0.3048780560493469,1.5,0.75,-7.5,33.412017822265625,0,
 239668,-0.29541015625,-0.928955078125,-0.040283203125,-0.5182926654815674,0.6707317233085632,0.27439025044441223,2.0999999046325684,1.350000023841858,-7.650000095367432,33.5557861328125,0,
 239678,-0.292236328125,-0.93505859375,-0.0361328125,-0.6097561120986938,0.3658536672592163,0.5487805008888245,0.15000000596046448,2.0999999046325684,-7.650000095367432,33.412017822265625,0,
 239688,-0.294921875,-0.934814453125,-0.043701171875,-0.7621951103210449,0.5487805008888245,-0.030487805604934692,0.15000000596046448,2.0999999046325684,-7.650000095367432,33.412017822265625,0,
 239698,-0.299560546875,-0.936767578125,-0.040283203125,-0.6402438879013062,0.3353658616542816,0.3353658616542816,0.0,0.30000001192092896,-6.75,33.412017822265625,0,
 239708,-0.293212890625,-0.9365234375,-0.04248046875,-0.27439025044441223,0.21341463923454285,0.396341472864151,1.7999999523162842,0.0,-9.75,33.50786209106445,0,
 239718,-0.292724609375,-0.935791015625,-0.043701171875,-0.6402438879013062,0.4268292784690857,0.4268292784690857,0.44999998807907104,-1.649999976158142,-8.399999618530273,33.412017822265625,0,
 239728,-0.295166015625,-0.9365234375,-0.0419921875,-0.3048780560493469,0.24390244483947754,0.21341463923454285,1.2000000476837158,1.649999976158142,-6.150000095367432,33.412017822265625,0,
 239738,-0.29638671875,-0.930419921875,-0.03515625,-0.7012194991111755,0.7012194991111755,0.3658536672592163,1.2000000476837158,1.649999976158142,-6.150000095367432,33.412017822265625,0,
 239748,-0.298583984375,-0.933837890625,-0.042724609375,-0.4573170840740204,0.24390244483947754,0.3353658616542816,1.2000000476837158,1.649999976158142,-6.900000095367432,33.5557861328125,0,
 239758,-0.290771484375,-0.935302734375,-0.040771484375,-0.7012194991111755,0.21341463923454285,0.4268292784690857,-1.0499999523162842,0.75,-8.550000190734863,33.412017822265625,0,
 239768,-0.293701171875,-0.93017578125,-0.043212890625,-0.4268292784690857,0.24390244483947754,0.4573170840740204,0.44999998807907104,2.0999999046325684,-8.399999618530273,33.412017822265625,0,
 239778,-0.2978515625,-0.9375,-0.049560546875,-0.6402438879013062,0.18292683362960815,0.18292683362960815,1.0499999523162842,1.0499999523162842,-8.550000190734863,33.412017822265625,0,
 239788,-0.293212890625,-0.929443359375,-0.04541015625,-0.5487805008888245,0.3658536672592163,0.09146341681480408,1.0499999523162842,1.0499999523162842,-8.550000190734863,33.50786209106445,0,
 239798,-0.30126953125,-0.93310546875,-0.04345703125,-0.5487805008888245,0.27439025044441223,0.27439025044441223,0.75,0.75,-7.800000190734863,33.412017822265625,0,
 239818,-0.29931640625,-0.936767578125,-0.042724609375,-0.21341463923454285,0.18292683362960815,0.24390244483947754,2.25,1.5,-8.550000190734863,33.31616973876953,0,
 239828,-0.2900390625,-0.9365234375,-0.037353515625,-0.3658536672592163,0.4573170840740204,0.09146341681480408,0.0,1.0499999523162842,-7.800000190734863,33.65163040161133,0,
 239838,-0.297607421875,-0.932373046875,-0.039794921875,-0.4268292784690857,0.6097561120986938,0.0,0.0,1.0499999523162842,-7.800000190734863,33.172401428222656,0,
 239848,-0.299072265625,-0.9306640625,-0.04443359375,-0.15243902802467346,0.24390244483947754,0.3353658616542816,1.2000000476837158,0.44999998807907104,-6.900000095367432,33.50786209106445,0,
 239858,-0.29150390625,-0.939697265625,-0.044189453125,-0.3658536672592163,0.18292683362960815,0.27439025044441223,1.0499999523162842,0.30000001192092896,-8.25,33.2203254699707,0,
 239868,-0.30078125,-0.935302734375,-0.038330078125,-0.396341472864151,0.24390244483947754,0.4268292784690857,0.15000000596046448,1.649999976158142,-7.199999809265137,33.412017822265625,0,
 239878,-0.294921875,-0.931884765625,-0.0400390625,-0.5792682766914368,0.24390244483947754,0.396341472864151,0.30000001192092896,0.75,-7.050000190734863,33.65163040161133,0,
 239888,-0.294189453125,-0.93212890625,-0.04345703125,-0.3353658616542816,0.24390244483947754,0.18292683362960815,0.30000001192092896,0.75,-7.050000190734863,33.2203254699707,0,
 239898,-0.291259765625,-0.93505859375,-0.042236328125,-0.3658536672592163,0.5182926654815674,0.3048780560493469,0.30000001192092896,0.75,-7.050000190734863,33.36409378051758,0,
 239908,-0.293212890625,-0.9296875,-0.03564453125,-0.5487805008888245,0.09146341681480408,0.3658536672592163,1.649999976158142,0.8999999761581421,-7.949999809265137,33.65163040161133,0,
 239918,-0.29296875,-0.9365234375,-0.035888671875,-0.3658536672592163,0.18292683362960815,0.6707317233085632,1.0499999523162842,0.75,-8.550000190734863,33.36409378051758,0,
 239928,-0.292724609375,-0.933349609375,-0.036376953125,-0.3353658616542816,0.12195122241973877,0.27439025044441223,0.15000000596046448,0.44999998807907104,-7.199999809265137,33.50786209106445,0,
 239938,-0.297607421875,-0.93603515625,-0.042724609375,-0.27439025044441223,0.21341463923454285,0.3048780560493469,0.15000000596046448,0.44999998807907104,-7.199999809265137,33.124481201171875,0,
 239948,-0.29736328125,-0.92626953125,-0.039794921875,-0.5487805008888245,0.4268292784690857,0.4268292784690857,0.15000000596046448,1.649999976158142,-7.650000095367432,33.31616973876953,0,
 239958,-0.29736328125,-0.938232421875,-0.04736328125,-0.5182926654815674,0.4573170840740204,-0.060975611209869385,0.44999998807907104,0.8999999761581421,-8.699999809265137,33.36409378051758,0,
 239968,-0.29541015625,-0.9345703125,-0.036865234375,-0.6097561120986938,0.4878048896789551,0.3353658616542816,1.0499999523162842,0.75,-9.0,33.5557861328125,0,
 239978,-0.2939453125,-0.9404296875,-0.042724609375,-0.8231707215309143,0.3048780560493469,0.060975611209869385,0.15000000596046448,1.350000023841858,-7.650000095367432,33.31616973876953,0,
 239988,-0.2978515625,-0.939208984375,-0.0390625,-1.1280487775802612,0.4878048896789551,-0.09146341681480408,0.15000000596046448,1.350000023841858,-7.650000095367432,33.2203254699707,0,
 239998,-0.297607421875,-0.934814453125,-0.040283203125,-0.5792682766914368,0.4573170840740204,0.27439025044441223,-0.75,0.30000001192092896,-7.800000190734863,33.5557861328125,0,
 240008,-0.29296875,-0.934814453125,-0.040771484375,-0.4268292784690857,0.5182926654815674,0.09146341681480408,2.0999999046325684,0.44999998807907104,-7.650000095367432,33.2203254699707,0,
 240018,-0.296875,-0.930908203125,-0.039794921875,-0.5182926654815674,0.3658536672592163,0.18292683362960815,0.15000000596046448,0.44999998807907104,-6.150000095367432,33.50786209106445,0,
 240028,-0.294189453125,-0.9287109375,-0.04296875,-0.5792682766914368,0.5487805008888245,0.09146341681480408,-0.15000000596046448,0.15000000596046448,-7.949999809265137,33.50786209106445,0,
 240038,-0.295166015625,-0.935302734375,-0.038818359375,-0.6402438879013062,0.4878048896789551,0.3353658616542816,-0.15000000596046448,0.15000000596046448,-7.949999809265137,33.36409378051758,0,
 240048,-0.29296875,-0.938232421875,-0.041259765625,-1.3414634466171265,0.3048780560493469,0.030487805604934692,0.30000001192092896,1.9500000476837158,-7.800000190734863,33.412017822265625,0,
 240058,-0.29248046875,-0.93017578125,-0.0390625,-0.8536585569381714,0.7317073345184326,0.12195122241973877,-0.15000000596046448,0.15000000596046448,-6.449999809265137,33.412017822265625,0,
 240068,-0.29736328125,-0.932861328125,-0.03759765625,-0.5182926654815674,0.5182926654815674,0.4878048896789551,-0.15000000596046448,2.549999952316284,-5.400000095367432,33.50786209106445,0,
 240078,-0.290771484375,-0.932861328125,-0.04541015625,-0.5182926654815674,0.5487805008888245,0.4573170840740204,-0.15000000596046448,2.549999952316284,-5.400000095367432,33.412017822265625,0,
 240088,-0.291259765625,-0.9326171875,-0.040283203125,-0.6097561120986938,0.24390244483947754,0.12195122241973877,-0.15000000596046448,2.549999952316284,-5.400000095367432,33.2203254699707,0,
 240098,-0.296875,-0.933837890625,-0.0458984375,-0.792682945728302,0.15243902802467346,-0.12195122241973877,1.649999976158142,1.350000023841858,-7.199999809265137,33.412017822265625,0,
 240108,-0.29443359375,-0.93798828125,-0.044189453125,-0.4878048896789551,0.6402438879013062,0.15243902802467346,0.0,1.5,-7.5,33.412017822265625,0,
 240118,-0.2939453125,-0.935791015625,-0.044189453125,-0.396341472864151,0.24390244483947754,0.4878048896789551,1.5,1.0499999523162842,-8.25,33.412017822265625,0,
 240128,-0.296142578125,-0.936767578125,-0.041748046875,-0.21341463923454285,0.24390244483947754,0.24390244483947754,1.5,1.0499999523162842,-8.25,33.412017822265625,0,
 240138,-0.2978515625,-0.93701171875,-0.045166015625,-0.18292683362960815,-0.12195122241973877,0.4878048896789551,0.0,0.30000001192092896,-7.050000190734863,33.36409378051758,0,
 240148,-0.298828125,-0.934814453125,-0.036376953125,-0.18292683362960815,0.27439025044441223,0.6097561120986938,1.0499999523162842,-0.30000001192092896,-7.800000190734863,33.412017822265625,0,
 240158,-0.291259765625,-0.9326171875,-0.03662109375,-0.060975611209869385,0.24390244483947754,0.7012194991111755,0.30000001192092896,0.0,-6.300000190734863,33.5557861328125,0,
 240168,-0.292724609375,-0.9345703125,-0.04736328125,-0.21341463923454285,0.060975611209869385,0.4573170840740204,0.44999998807907104,0.44999998807907104,-7.650000095367432,33.412017822265625,0,
 240178,-0.293701171875,-0.936279296875,-0.0380859375,0.12195122241973877,-0.060975611209869385,0.030487805604934692,0.44999998807907104,0.44999998807907104,-7.650000095367432,33.36409378051758,0,
 240188,-0.294189453125,-0.93408203125,-0.04052734375,-0.18292683362960815,0.21341463923454285,0.21341463923454285,-0.15000000596046448,0.44999998807907104,-7.650000095367432,33.31616973876953,0,
 240198,-0.29833984375,-0.93017578125,-0.042236328125,-0.396341472864151,0.396341472864151,0.3658536672592163,0.75,2.25,-6.75,33.5557861328125,0,
 240208,-0.295166015625,-0.93408203125,-0.040283203125,-0.060975611209869385,0.27439025044441223,0.27439025044441223,-0.8999999761581421,-0.15000000596046448,-6.900000095367432,33.5557861328125,0,
 240218,-0.293701171875,-0.935546875,-0.042724609375,-0.09146341681480408,0.3658536672592163,0.24390244483947754,0.75,1.5,-7.050000190734863,33.172401428222656,0,
 240228,-0.289794921875,-0.940185546875,-0.03662109375,-0.24390244483947754,-0.09146341681480408,0.6097561120986938,0.75,1.5,-7.050000190734863,33.124481201171875,0,
 240238,-0.295654296875,-0.9375,-0.0361328125,-0.5487805008888245,0.18292683362960815,-0.12195122241973877,1.7999999523162842,1.0499999523162842,-7.050000190734863,33.412017822265625,0,
 240248,-0.2919921875,-0.9365234375,-0.03955078125,-0.7012194991111755,0.4268292784690857,0.3658536672592163,1.649999976158142,-0.44999998807907104,-7.650000095367432,33.699554443359375,0,
 240258,-0.297607421875,-0.931396484375,-0.043701171875,-0.4878048896789551,0.21341463923454285,0.21341463923454285,1.2000000476837158,2.0999999046325684,-7.199999809265137,33.36409378051758,0,
 240269,-0.2900390625,-0.93359375,-0.042236328125,-0.6707317233085632,0.4878048896789551,0.5487805008888245,1.5,1.5,-7.5,33.412017822265625,0,
 240279,-0.2939453125,-0.9345703125,-0.042236328125,-0.3048780560493469,0.27439025044441223,0.12195122241973877,1.5,1.5,-7.5,33.172401428222656,0,
 240289,-0.2958984375,-0.936767578125,-0.04248046875,-1.0365853309631348,0.396341472864151,0.12195122241973877,-0.8999999761581421,-0.44999998807907104,-9.449999809265137,33.36409378051758,0,
 240299,-0.29150390625,-0.93701171875,-0.039306640625,-0.4878048896789551,0.396341472864151,0.18292683362960815,-0.15000000596046448,0.15000000596046448,-7.199999809265137,33.31616973876953,0,
 240309,-0.294921875,-0.93505859375,-0.04052734375,-0.5182926654815674,0.3048780560493469,0.3353658616542816,0.30000001192092896,1.5,-7.5,33.50786209106445,0,
 240319,-0.295166015625,-0.92919921875,-0.040283203125,-0.3353658616542816,0.3658536672592163,0.5487805008888245,1.0499999523162842,0.75,-7.800000190734863,33.36409378051758,0,
 240329,-0.2939453125,-0.937255859375,-0.04541015625,-0.8841463327407837,0.18292683362960815,0.6402438879013062,1.0499999523162842,0.75,-7.800000190734863,33.31616973876953,0,
 240339,-0.29052734375,-0.9345703125,-0.03662109375,-0.792682945728302,0.24390244483947754,0.3658536672592163,0.8999999761581421,0.15000000596046448,-6.900000095367432,33.412017822265625,0,
 240349,-0.293701171875,-0.93115234375,-0.0439453125,-1.0060975551605225,0.18292683362960815,0.3353658616542816,1.0499999523162842,1.0499999523162842,-6.75,33.50786209106445,0,
 240359,-0.294189453125,-0.931396484375,-0.03955078125,-0.7621951103210449,0.21341463923454285,0.21341463923454285,1.0499999523162842,0.30000001192092896,-7.050000190734863,33.5557861328125,0,
 240369,-0.291748046875,-0.931884765625,-0.041015625,-0.6097561120986938,0.396341472864151,0.24390244483947754,1.2000000476837158,0.8999999761581421,-7.650000095367432,33.50786209106445,0,
 240379,-0.300048828125,-0.929443359375,-0.0400390625,-0.4268292784690857,0.4573170840740204,0.18292683362960815,1.2000000476837158,0.8999999761581421,-7.650000095367432,33.172401428222656,0,
 240389,-0.29345703125,-0.930419921875,-0.048583984375,-0.8231707215309143,0.3353658616542816,0.3048780560493469,1.649999976158142,1.649999976158142,-7.650000095367432,33.412017822265625,0,
 240399,-0.29296875,-0.9267578125,-0.04052734375,-0.4268292784690857,0.3353658616542816,0.5182926654815674,0.75,1.9500000476837158,-8.25,33.31616973876953,0,
 240409,-0.29638671875,-0.937744140625,-0.042724609375,-0.4573170840740204,0.12195122241973877,0.5792682766914368,1.649999976158142,1.350000023841858,-6.900000095367432,33.2203254699707,0,
 240419,-0.29541015625,-0.935546875,-0.04248046875,-0.3658536672592163,0.24390244483947754,0.396341472864151,1.0499999523162842,0.75,-8.25,33.50786209106445,0,
 240429,-0.29345703125,-0.929931640625,-0.041259765625,-0.3658536672592163,-0.030487805604934692,0.5792682766914368,1.0499999523162842,0.75,-8.25,33.31616973876953,0,
 240439,-0.296875,-0.9365234375,-0.0390625,-0.5792682766914368,-0.030487805604934692,0.5487805008888245,0.15000000596046448,1.350000023841858,-8.399999618530273,33.31616973876953,0,
 240449,-0.296875,-0.93115234375,-0.038818359375,-0.7012194991111755,0.3353658616542816,0.4878048896789551,1.2000000476837158,0.15000000596046448,-6.449999809265137,33.412017822265625,0,
 240459,-0.295166015625,-0.936279296875,-0.043701171875,-0.24390244483947754,0.3353658616542816,0.12195122241973877,0.75,-0.75,-7.800000190734863,33.412017822265625,0,
 240469,-0.29541015625,-0.934326171875,-0.0439453125,-0.7317073345184326,0.3353658616542816,0.09146341681480408,0.8999999761581421,1.350000023841858,-6.900000095367432,33.50786209106445,0,
 240479,-0.29052734375,-0.932861328125,-0.038818359375,-0.6402438879013062,0.27439025044441223,0.4268292784690857,0.8999999761581421,1.350000023841858,-6.900000095367432,33.172401428222656,0,
 240489,-0.293212890625,-0.9326171875,-0.04296875,-0.6402438879013062,0.3353658616542816,0.4573170840740204,1.5,0.0,-9.0,33.36409378051758,0,
 240499,-0.289306640625,-0.936767578125,-0.037841796875,-0.4268292784690857,0.3048780560493469,0.3353658616542816,1.0499999523162842,1.0499999523162842,-7.800000190734863,33.412017822265625,0,
 240509,-0.29345703125,-0.93310546875,-0.03564453125,-0.7012194991111755,0.27439025044441223,0.4878048896789551,0.15000000596046448,-0.15000000596046448,-7.199999809265137,33.50786209106445,0,
 240519,-0.29736328125,-0.940673828125,-0.038818359375,-0.3048780560493469,0.3353658616542816,0.4573170840740204,0.0,0.75,-7.5,33.36409378051758,0,
 240529,-0.299560546875,-0.936279296875,-0.039794921875,-0.4878048896789551,0.12195122241973877,0.5182926654815674,0.0,0.75,-7.5,33.172401428222656,0,
 240539,-0.295654296875,-0.934326171875,-0.04345703125,-0.5792682766914368,0.3658536672592163,0.5487805008888245,3.0,-0.30000001192092896,-9.300000190734863,33.412017822265625,0,
 240549,-0.29150390625,-0.932861328125,-0.041015625,-0.6402438879013062,0.27439025044441223,0.5792682766914368,1.0499999523162842,0.0,-6.300000190734863,33.412017822265625,0,
 240559,-0.295166015625,-0.9345703125,-0.03955078125,-0.5182926654815674,0.5792682766914368,0.7317073345184326,0.30000001192092896,0.30000001192092896,-7.5,33.412017822265625,0,
 240569,-0.29638671875,-0.92626953125,-0.036376953125,-0.6707317233085632,0.4268292784690857,0.396341472864151,0.75,1.0499999523162842,-8.550000190734863,33.50786209106445,0,
 240579,-0.2939453125,-0.93603515625,-0.049072265625,-0.8231707215309143,0.27439025044441223,0.396341472864151,0.75,1.0499999523162842,-8.550000190734863,33.412017822265625,0,
 240589,-0.296142578125,-0.9384765625,-0.04248046875,-0.3353658616542816,0.396341472864151,0.5487805008888245,0.8999999761581421,0.8999999761581421,-7.949999809265137,33.412017822265625,0,
 240599,-0.30029296875,-0.933349609375,-0.038330078125,-0.5487805008888245,0.12195122241973877,0.5792682766914368,1.2000000476837158,-0.8999999761581421,-9.149999618530273,33.412017822265625,0,
 240609,-0.293212890625,-0.93017578125,-0.0361328125,-0.396341472864151,0.3353658616542816,0.6707317233085632,0.8999999761581421,1.649999976158142,-6.150000095367432,33.65163040161133,0,
 240619,-0.29736328125,-0.93359375,-0.044189453125,-0.396341472864151,0.27439025044441223,0.3658536672592163,0.44999998807907104,1.350000023841858,-6.150000095367432,33.36409378051758,0,
 240629,-0.29638671875,-0.936767578125,-0.039306640625,-0.5182926654815674,0.4268292784690857,0.396341472864151,0.44999998807907104,1.350000023841858,-6.150000095367432,33.172401428222656,0,
 240639,-0.29052734375,-0.9375,-0.044189453125,-0.4573170840740204,0.4268292784690857,0.7317073345184326,0.0,2.700000047683716,-9.75,33.412017822265625,0,
 240649,-0.29345703125,-0.93212890625,-0.041259765625,-0.5487805008888245,0.15243902802467346,0.3658536672592163,1.2000000476837158,1.350000023841858,-8.399999618530273,33.412017822265625,0,
 240659,-0.2958984375,-0.937255859375,-0.0400390625,-0.09146341681480408,0.030487805604934692,0.3658536672592163,1.7999999523162842,0.75,-7.5,33.172401428222656,0,
 240669,-0.296630859375,-0.93115234375,-0.03662109375,-0.5487805008888245,0.18292683362960815,0.3048780560493469,2.8499999046325684,0.15000000596046448,-7.650000095367432,33.31616973876953,0,
