timestamp,accl_x,accl_y,accl_z,gyro_x,gyro_y,gyro_z,mag_x,mag_y,mag_z,temp,emg,
 1067961,-0.335693359375,-0.915283203125,0.01171875,-0.6707317233085632,0.6402438879013062,0.18292683362960815,2.8499999046325684,1.649999976158142,-9.149999618530273,36.67076873779297,0,
 1067971,-0.34033203125,-0.91650390625,0.006103515625,-0.4268292784690857,0.3048780560493469,-0.030487805604934692,3.5999999046325684,1.350000023841858,-9.149999618530273,36.814537048339844,0,
 1067981,-0.33740234375,-0.918212890625,0.00634765625,-0.7012194991111755,0.5182926654815674,0.060975611209869385,3.1500000953674316,2.8499999046325684,-9.449999809265137,36.814537048339844,0,
 1067991,-0.33984375,-0.920166015625,0.006103515625,-0.4878048896789551,0.3048780560493469,0.15243902802467346,2.25,1.9500000476837158,-9.0,36.86246109008789,0,
 1068001,-0.33935546875,-0.919677734375,0.010986328125,-0.6402438879013062,0.4573170840740204,-0.060975611209869385,2.25,1.9500000476837158,-9.0,36.86246109008789,0,
 1068011,-0.3359375,-0.91552734375,0.004150390625,-0.3658536672592163,0.3658536672592163,0.15243902802467346,3.299999952316284,1.5,-8.550000190734863,36.718692779541016,0,
 1068021,-0.334716796875,-0.913818359375,0.00830078125,-0.5487805008888245,0.7012194991111755,0.15243902802467346,4.199999809265137,1.9500000476837158,-9.75,36.814537048339844,0,
 1068031,-0.3408203125,-0.916015625,0.00537109375,-0.4878048896789551,0.3353658616542816,-0.18292683362960815,1.7999999523162842,1.9500000476837158,-9.0,36.91038513183594,0,
 1068041,-0.33837890625,-0.9150390625,0.00830078125,-0.5182926654815674,0.3353658616542816,0.18292683362960815,1.7999999523162842,1.9500000476837158,-9.0,37.006229400634766,0,
 1068051,-0.335693359375,-0.91796875,0.0087890625,-0.6707317233085632,0.396341472864151,0.24390244483947754,2.4000000953674316,1.649999976158142,-10.199999809265137,37.006229400634766,0,
 1068061,-0.334716796875,-0.9140625,0.00634765625,-0.4573170840740204,0.3048780560493469,0.21341463923454285,2.0999999046325684,0.8999999761581421,-9.899999618530273,36.86246109008789,0,
 1068071,-0.339111328125,-0.920166015625,0.009765625,-0.4268292784690857,0.27439025044441223,0.6707317233085632,3.5999999046325684,1.649999976158142,-8.699999809265137,36.91038513183594,0,
 1068081,-0.341064453125,-0.920166015625,0.006103515625,-0.18292683362960815,0.27439025044441223,0.15243902802467346,2.8499999046325684,2.8499999046325684,-9.149999618530273,36.814537048339844,0,
 1068091,-0.335693359375,-0.921875,0.01123046875,-0.21341463923454285,0.030487805604934692,0.27439025044441223,2.8499999046325684,2.8499999046325684,-9.149999618530273,36.86246109008789,0,
 1068101,-0.34228515625,-0.92138671875,0.009765625,-0.27439025044441223,0.18292683362960815,0.21341463923454285,2.25,3.1500000953674316,-10.5,36.814537048339844,0,
 1068111,-0.33740234375,-0.914306640625,0.0126953125,-0.21341463923454285,0.4878048896789551,0.21341463923454285,2.549999952316284,3.450000047683716,-9.0,36.718692779541016,0,
 1068121,-0.337890625,-0.923828125,0.008544921875,-0.27439025044441223,0.030487805604934692,0.3353658616542816,2.0999999046325684,2.549999952316284,-11.699999809265137,37.006229400634766,0,
 1068131,-0.34130859375,-0.9228515625,0.00732421875,-0.15243902802467346,0.3658536672592163,0.3658536672592163,2.0999999046325684,2.549999952316284,-11.699999809265137,36.86246109008789,0,
 1068141,-0.339111328125,-0.921630859375,0.003662109375,-0.18292683362960815,0.27439025044441223,0.21341463923454285,3.5999999046325684,2.0999999046325684,-9.149999618530273,37.05415344238281,0,
 1068151,-0.3427734375,-0.915283203125,0.006103515625,-0.5792682766914368,0.3658536672592163,0.09146341681480408,2.4000000953674316,2.0999999046325684,-8.699999809265137,36.86246109008789,0,
 1068161,-0.3447265625,-0.919921875,0.009521484375,-0.18292683362960815,0.3353658616542816,0.3353658616542816,1.649999976158142,1.649999976158142,-9.149999618530273,36.718692779541016,0,
 1068171,-0.338134765625,-0.91943359375,0.01025390625,0.060975611209869385,0.060975611209869385,0.15243902802467346,3.299999952316284,2.25,-10.5,36.86246109008789,0,
 1068181,-0.338623046875,-0.919677734375,0.010986328125,0.060975611209869385,0.21341463923454285,0.18292683362960815,3.299999952316284,2.25,-10.5,37.05415344238281,0,
 1068191,-0.343017578125,-0.921142578125,0.011474609375,0.12195122241973877,0.0,0.27439025044441223,4.5,1.9500000476837158,-10.800000190734863,37.006229400634766,0,
 1068201,-0.336669921875,-0.91943359375,0.0068359375,-0.24390244483947754,0.3353658616542816,0.27439025044441223,3.299999952316284,1.0499999523162842,-9.0,36.86246109008789,0,
 1068211,-0.3408203125,-0.91845703125,0.00537109375,-0.09146341681480408,0.3048780560493469,0.27439025044441223,2.4000000953674316,1.649999976158142,-10.199999809265137,36.86246109008789,0,
 1068221,-0.3369140625,-0.918212890625,0.010009765625,-0.060975611209869385,0.060975611209869385,0.3048780560493469,1.649999976158142,3.75,-10.199999809265137,36.91038513183594,0,
 1068231,-0.3427734375,-0.917724609375,0.00830078125,-0.12195122241973877,0.15243902802467346,0.6402438879013062,3.0,1.0499999523162842,-9.75,37.006229400634766,0,
 1068241,-0.3427734375,-0.919677734375,0.0126953125,-0.060975611209869385,0.0,0.09146341681480408,3.1500000953674316,2.0999999046325684,-10.199999809265137,36.91038513183594,0,
 1068251,-0.3388671875,-0.921630859375,0.01025390625,-0.15243902802467346,0.4268292784690857,0.27439025044441223,2.0999999046325684,1.350000023841858,-8.699999809265137,36.718692779541016,0,
 1068261,-0.335693359375,-0.919189453125,0.0078125,-0.27439025044441223,0.12195122241973877,0.5182926654815674,0.75,1.5,-9.75,37.05415344238281,0,
 1068271,-0.334716796875,-0.921875,0.009033203125,-0.060975611209869385,0.3048780560493469,0.4573170840740204,0.75,1.5,-9.75,37.006229400634766,0,
 1068281,-0.337158203125,-0.919677734375,0.012939453125,-0.8536585569381714,-0.09146341681480408,0.396341472864151,4.199999809265137,2.700000047683716,-9.75,36.86246109008789,0,
 1068291,-0.34228515625,-0.917724609375,0.0087890625,-0.12195122241973877,0.21341463923454285,0.3353658616542816,3.299999952316284,1.9500000476837158,-10.800000190734863,37.006229400634766,0,
 1068301,-0.3330078125,-0.91650390625,0.00927734375,-0.4573170840740204,0.21341463923454285,0.5792682766914368,1.2000000476837158,1.350000023841858,-8.699999809265137,36.814537048339844,0,
 1068311,-0.337158203125,-0.91845703125,0.005859375,-0.7317073345184326,0.21341463923454285,0.3048780560493469,2.0999999046325684,1.649999976158142,-9.149999618530273,37.006229400634766,0,
 1068321,-0.338623046875,-0.917236328125,0.017578125,-0.7621951103210449,0.15243902802467346,0.15243902802467346,2.0999999046325684,1.649999976158142,-9.149999618530273,37.006229400634766,0,
 1068331,-0.340087890625,-0.92578125,0.012939453125,-0.9756097793579102,0.21341463923454285,0.3658536672592163,2.4000000953674316,0.8999999761581421,-10.199999809265137,36.86246109008789,0,
 1068341,-0.341796875,-0.921630859375,0.004150390625,-0.8536585569381714,0.5182926654815674,0.4268292784690857,2.549999952316284,1.9500000476837158,-7.800000190734863,36.91038513183594,0,
 1068351,-0.3369140625,-0.915283203125,0.009033203125,-0.6097561120986938,0.4878048896789551,0.396341472864151,2.4000000953674316,1.350000023841858,-9.899999618530273,36.86246109008789,0,
 1068361,-0.339111328125,-0.912109375,0.007568359375,-0.8536585569381714,0.4268292784690857,0.4573170840740204,2.4000000953674316,1.350000023841858,-9.899999618530273,36.86246109008789,0,
 1068372,-0.341796875,-0.923583984375,0.006591796875,-0.9146341681480408,0.3353658616542816,0.4878048896789551,3.299999952316284,3.1500000953674316,-8.550000190734863,36.91038513183594,0,
 1068382,-0.346435546875,-0.913818359375,0.01025390625,-0.5487805008888245,0.24390244483947754,0.3658536672592163,0.8999999761581421,2.549999952316284,-8.699999809265137,36.86246109008789,0,
 1068392,-0.340087890625,-0.917724609375,0.005859375,-0.792682945728302,0.396341472864151,0.7012194991111755,2.8499999046325684,1.649999976158142,-8.699999809265137,37.006229400634766,0,
 1068402,-0.3388671875,-0.922119140625,0.006591796875,-0.6707317233085632,0.21341463923454285,-0.030487805604934692,1.7999999523162842,1.5,-9.75,36.814537048339844,0,
 1068412,-0.33740234375,-0.918212890625,0.007568359375,-0.3658536672592163,0.24390244483947754,0.18292683362960815,1.7999999523162842,1.5,-9.75,37.006229400634766,0,
 1068422,-0.34130859375,-0.918212890625,0.0107421875,-0.5182926654815674,0.9451219439506531,-0.09146341681480408,3.0,3.450000047683716,-9.0,37.006229400634766,0,
 1068432,-0.343017578125,-0.91748046875,0.00830078125,-0.7621951103210449,0.27439025044441223,0.060975611209869385,4.349999904632568,3.75,-11.699999809265137,36.67076873779297,0,
 1068442,-0.34326171875,-0.91748046875,0.005615234375,-0.4268292784690857,0.5792682766914368,-0.030487805604934692,2.8499999046325684,2.549999952316284,-9.899999618530273,36.814537048339844,0,
 1068452,-0.333984375,-0.912841796875,0.006591796875,-0.4573170840740204,0.7012194991111755,-0.21341463923454285,2.8499999046325684,2.549999952316284,-9.899999618530273,36.527000427246094,0,
 1068462,-0.3408203125,-0.916748046875,0.01025390625,-0.5487805008888245,0.5182926654815674,-0.3048780560493469,3.1500000953674316,3.75,-9.449999809265137,37.006229400634766,0,
 1068472,-0.339599609375,-0.91943359375,0.004638671875,-0.4878048896789551,0.5182926654815674,0.24390244483947754,3.5999999046325684,2.0999999046325684,-8.699999809265137,36.814537048339844,0,
 1068482,-0.33740234375,-0.918212890625,0.005859375,-0.4268292784690857,0.4878048896789551,0.21341463923454285,2.8499999046325684,1.350000023841858,-8.399999618530273,36.86246109008789,0,
 1068492,-0.342529296875,-0.921875,0.006591796875,-0.3658536672592163,0.21341463923454285,0.4268292784690857,3.0,2.700000047683716,-7.050000190734863,36.718692779541016,0,
 1068502,-0.34130859375,-0.9169921875,0.0087890625,-0.5792682766914368,-0.18292683362960815,0.3353658616542816,3.0,2.700000047683716,-7.050000190734863,36.814537048339844,0,
 1068512,-0.337646484375,-0.913330078125,0.009033203125,-0.4573170840740204,0.396341472864151,0.3048780560493469,3.1500000953674316,2.549999952316284,-9.449999809265137,37.006229400634766,0,
 1068522,-0.34326171875,-0.920654296875,0.00732421875,-0.5792682766914368,0.4573170840740204,0.18292683362960815,1.7999999523162842,1.9500000476837158,-7.800000190734863,36.814537048339844,0,
 1068532,-0.34033203125,-0.9111328125,0.010986328125,-0.5182926654815674,0.396341472864151,0.3353658616542816,4.5,3.450000047683716,-10.5,36.91038513183594,0,
 1068542,-0.33642578125,-0.920654296875,0.004638671875,-0.27439025044441223,0.396341472864151,0.5182926654815674,4.5,3.450000047683716,-10.5,36.86246109008789,0,
 1068552,-0.336669921875,-0.916259765625,0.008056640625,-0.5487805008888245,0.4878048896789551,0.18292683362960815,1.5,1.5,-9.0,36.527000427246094,0,
 1068562,-0.3369140625,-0.915771484375,0.006591796875,-0.27439025044441223,0.4878048896789551,0.4878048896789551,2.549999952316284,1.9500000476837158,-9.75,37.006229400634766,0,
 1068572,-0.341552734375,-0.92138671875,0.010498046875,-0.5487805008888245,0.3353658616542816,0.4268292784690857,2.549999952316284,1.9500000476837158,-9.300000190734863,36.86246109008789,0,
 1068582,-0.3349609375,-0.91796875,0.006103515625,-0.21341463923454285,0.3048780560493469,0.3353658616542816,2.8499999046325684,3.299999952316284,-8.399999618530273,36.86246109008789,0,
 1068592,-0.337646484375,-0.920166015625,0.0107421875,-0.18292683362960815,0.27439025044441223,0.24390244483947754,2.8499999046325684,3.299999952316284,-8.399999618530273,36.814537048339844,0,
 1068602,-0.3330078125,-0.91796875,0.00927734375,-0.4268292784690857,0.18292683362960815,0.12195122241973877,3.5999999046325684,2.549999952316284,-9.149999618530273,36.718692779541016,0,
 1068612,-0.33935546875,-0.916748046875,0.011474609375,-0.4268292784690857,0.09146341681480408,0.5792682766914368,2.25,1.5,-9.0,37.006229400634766,0,
 1068622,-0.339111328125,-0.91650390625,0.007568359375,-0.3353658616542816,0.3353658616542816,0.3048780560493469,3.1500000953674316,1.350000023841858,-8.399999618530273,36.814537048339844,0,
 1068632,-0.3369140625,-0.919189453125,0.0087890625,-0.4573170840740204,0.21341463923454285,0.21341463923454285,3.1500000953674316,1.350000023841858,-8.399999618530273,36.86246109008789,0,
 1068642,-0.33740234375,-0.913818359375,0.012451171875,-0.5792682766914368,0.030487805604934692,0.4573170840740204,1.5,0.30000001192092896,-10.050000190734863,37.19792175292969,0,
 1068652,-0.33642578125,-0.914306640625,0.0078125,-0.060975611209869385,0.060975611209869385,0.9146341681480408,3.5999999046325684,1.649999976158142,-9.149999618530273,36.86246109008789,0,
 1068662,-0.33837890625,-0.918701171875,0.006591796875,0.21341463923454285,0.24390244483947754,0.4878048896789551,3.9000000953674316,2.0999999046325684,-8.699999809265137,37.006229400634766,0,
 1068672,-0.333984375,-0.916748046875,0.01171875,0.24390244483947754,0.12195122241973877,0.4573170840740204,4.199999809265137,2.700000047683716,-9.0,36.91038513183594,0,
 1068682,-0.33837890625,-0.9189453125,0.006591796875,0.060975611209869385,-0.18292683362960815,0.4573170840740204,4.199999809265137,2.700000047683716,-9.0,36.86246109008789,0,
 1068692,-0.337890625,-0.917724609375,0.008056640625,-0.21341463923454285,0.24390244483947754,0.030487805604934692,3.5999999046325684,1.350000023841858,-9.449999809265137,36.718692779541016,0,
 1068702,-0.341064453125,-0.91796875,0.01953125,-0.27439025044441223,0.21341463923454285,0.12195122241973877,2.25,0.30000001192092896,-8.25,37.006229400634766,0,
 1068712,-0.339111328125,-0.919677734375,0.013427734375,-0.18292683362960815,0.18292683362960815,-0.030487805604934692,3.1500000953674316,2.8499999046325684,-8.699999809265137,37.006229400634766,0,
 1068722,-0.34033203125,-0.9140625,0.00927734375,-0.4573170840740204,0.3658536672592163,-0.3048780560493469,3.75,2.700000047683716,-9.0,36.67076873779297,0,
 1068732,-0.340576171875,-0.914794921875,0.00830078125,-0.3048780560493469,0.27439025044441223,-0.030487805604934692,3.75,2.700000047683716,-9.0,37.006229400634766,0,
 1068742,-0.340087890625,-0.92041015625,0.01171875,-0.5182926654815674,0.24390244483947754,0.24390244483947754,4.5,1.5,-12.0,36.86246109008789,0,
 1068752,-0.338623046875,-0.91943359375,0.0078125,-0.4268292784690857,0.21341463923454285,0.24390244483947754,3.0,3.1500000953674316,-8.550000190734863,36.86246109008789,0,
 1068762,-0.33935546875,-0.918212890625,0.0087890625,-0.396341472864151,0.21341463923454285,0.09146341681480408,3.5999999046325684,2.0999999046325684,-9.449999809265137,36.86246109008789,0,
 1068772,-0.3359375,-0.915283203125,0.008056640625,-0.3048780560493469,0.3353658616542816,-0.21341463923454285,3.5999999046325684,2.0999999046325684,-9.449999809265137,36.814537048339844,0,
 1068782,-0.34033203125,-0.9228515625,0.010498046875,-0.5182926654815674,0.18292683362960815,0.0,3.299999952316284,2.700000047683716,-9.300000190734863,36.86246109008789,0,
 1068792,-0.3359375,-0.918212890625,0.01220703125,-0.792682945728302,0.6707317233085632,0.3048780560493469,3.9000000953674316,0.8999999761581421,-9.149999618530273,36.718692779541016,0,
 1068802,-0.337646484375,-0.91943359375,0.013671875,-0.8231707215309143,0.4268292784690857,0.09146341681480408,3.9000000953674316,2.0999999046325684,-7.949999809265137,36.91038513183594,0,
 1068812,-0.337158203125,-0.918212890625,0.01318359375,-0.6402438879013062,0.5182926654815674,0.030487805604934692,4.650000095367432,2.549999952316284,-9.899999618530273,36.91038513183594,0,
 1068822,-0.330810546875,-0.91845703125,0.011962890625,-0.5487805008888245,0.24390244483947754,0.15243902802467346,4.650000095367432,2.549999952316284,-9.899999618530273,36.86246109008789,0,
 1068832,-0.335693359375,-0.91845703125,0.001953125,-0.4573170840740204,0.4573170840740204,0.4878048896789551,3.5999999046325684,2.549999952316284,-8.399999618530273,37.05415344238281,0,
 1068842,-0.337890625,-0.91552734375,0.01611328125,-0.8841463327407837,0.21341463923454285,0.4878048896789551,5.699999809265137,0.0,-11.25,36.718692779541016,0,
 1068852,-0.339111328125,-0.927978515625,0.0087890625,-0.8536585569381714,0.6097561120986938,0.3658536672592163,2.549999952316284,3.1500000953674316,-8.550000190734863,36.86246109008789,0,
 1068862,-0.335205078125,-0.916015625,0.01220703125,-0.5182926654815674,0.4268292784690857,1.0365853309631348,2.549999952316284,3.1500000953674316,-8.550000190734863,36.814537048339844,0,
 1068872,-0.34130859375,-0.917236328125,0.011962890625,-0.27439025044441223,0.4573170840740204,0.5182926654815674,2.8499999046325684,2.8499999046325684,-8.399999618530273,36.86246109008789,0,
 1068882,-0.337646484375,-0.915771484375,0.007568359375,-0.7317073345184326,0.18292683362960815,0.7621951103210449,2.8499999046325684,2.549999952316284,-9.149999618530273,36.86246109008789,0,
 1068892,-0.3447265625,-0.919677734375,0.01220703125,-0.7317073345184326,0.4878048896789551,0.6707317233085632,4.199999809265137,3.1500000953674316,-9.300000190734863,36.814537048339844,0,
 1068902,-0.34228515625,-0.923583984375,0.00927734375,-0.8231707215309143,0.4573170840740204,0.5182926654815674,4.349999904632568,2.549999952316284,-8.699999809265137,36.814537048339844,0,
 1068912,-0.33984375,-0.9111328125,0.009765625,-0.5487805008888245,0.4878048896789551,0.060975611209869385,4.349999904632568,2.549999952316284,-8.699999809265137,37.006229400634766,0,
 1068922,-0.340576171875,-0.916748046875,0.009765625,-1.0060975551605225,0.3048780560493469,0.030487805604934692,2.549999952316284,2.700000047683716,-7.5,36.86246109008789,0,
 1068932,-0.338623046875,-0.920654296875,0.0048828125,-0.6402438879013062,0.3658536672592163,0.030487805604934692,2.4000000953674316,2.0999999046325684,-8.699999809265137,37.006229400634766,0,
 1068942,-0.34228515625,-0.9150390625,0.005126953125,-0.6707317233085632,0.4573170840740204,-0.12195122241973877,3.1500000953674316,4.050000190734863,-11.399999618530273,36.814537048339844,0,
 1068952,-0.3388671875,-0.9267578125,0.005859375,-0.27439025044441223,0.4878048896789551,-0.060975611209869385,3.1500000953674316,4.050000190734863,-11.399999618530273,36.814537048339844,0,
 1068962,-0.342041015625,-0.919921875,0.010009765625,-0.5487805008888245,0.12195122241973877,0.15243902802467346,2.8499999046325684,3.299999952316284,-8.699999809265137,36.91038513183594,0,
 1068972,-0.334716796875,-0.916748046875,0.005859375,-0.27439025044441223,0.24390244483947754,-0.3353658616542816,2.549999952316284,2.700000047683716,-8.25,36.91038513183594,0,
 1068982,-0.343017578125,-0.917724609375,0.007080078125,-0.18292683362960815,0.396341472864151,-0.18292683362960815,3.0,2.25,-9.0,36.86246109008789,0,
 1068992,-0.33837890625,-0.925537109375,0.010009765625,-0.27439025044441223,0.3658536672592163,0.24390244483947754,1.649999976158142,1.350000023841858,-9.149999618530273,36.718692779541016,0,
 1069002,-0.339599609375,-0.919921875,0.006591796875,-0.24390244483947754,0.27439025044441223,0.24390244483947754,1.649999976158142,1.350000023841858,-9.149999618530273,37.10207748413086,0,
 1069012,-0.337158203125,-0.913818359375,0.00537109375,-0.4573170840740204,0.4268292784690857,0.396341472864151,2.549999952316284,1.5,-9.0,37.006229400634766,0,
 1069022,-0.338623046875,-0.919921875,0.010498046875,-0.4268292784690857,0.18292683362960815,0.4878048896789551,3.5999999046325684,0.15000000596046448,-8.699999809265137,36.57492446899414,0,
 1069032,-0.341796875,-0.916259765625,0.0048828125,-0.396341472864151,0.3048780560493469,0.6707317233085632,4.949999809265137,0.75,-7.050000190734863,36.86246109008789,0,
 1069042,-0.337890625,-0.913818359375,0.00732421875,-0.060975611209869385,0.396341472864151,0.6402438879013062,4.949999809265137,0.75,-7.050000190734863,36.86246109008789,0,
 1069052,-0.340576171875,-0.918212890625,0.003173828125,-0.3658536672592163,-0.09146341681480408,0.3048780560493469,0.30000001192092896,0.30000001192092896,-10.5,36.86246109008789,0,
 1069062,-0.33447265625,-0.9169921875,0.012939453125,-0.3353658616542816,0.5792682766914368,0.396341472864151,3.299999952316284,1.9500000476837158,-9.75,36.91038513183594,0,
 1069072,-0.34765625,-0.920654296875,0.0107421875,-0.4573170840740204,0.24390244483947754,0.5487805008888245,3.299999952316284,2.25,-9.300000190734863,36.718692779541016,0,
 1069082,-0.33837890625,-0.916259765625,0.006103515625,-0.8536585569381714,0.24390244483947754,0.030487805604934692,2.549999952316284,1.5,-9.300000190734863,36.86246109008789,0,
 1069092,-0.33935546875,-0.921630859375,0.010986328125,-0.7317073345184326,0.5182926654815674,0.09146341681480408,2.549999952316284,1.5,-9.300000190734863,36.91038513183594,0,
 1069102,-0.338134765625,-0.923828125,0.0078125,-0.9451219439506531,0.4268292784690857,-0.27439025044441223,4.349999904632568,1.350000023841858,-9.899999618530273,36.86246109008789,0,
 1069112,-0.333740234375,-0.913818359375,0.00732421875,-0.9146341681480408,0.5792682766914368,0.24390244483947754,4.949999809265137,2.700000047683716,-9.75,37.05415344238281,0,
 1069122,-0.339111328125,-0.920166015625,0.0087890625,-0.792682945728302,0.6402438879013062,0.27439025044441223,4.650000095367432,1.350000023841858,-8.699999809265137,36.91038513183594,0,
 1069132,-0.3369140625,-0.923828125,0.00390625,-0.3048780560493469,0.4573170840740204,0.4268292784690857,4.650000095367432,1.350000023841858,-8.699999809265137,36.718692779541016,0,
 1069142,-0.342529296875,-0.918212890625,0.002197265625,-0.7012194991111755,0.4268292784690857,0.24390244483947754,3.9000000953674316,2.0999999046325684,-9.149999618530273,37.006229400634766,0,
 1069152,-0.340087890625,-0.91455078125,0.01416015625,-0.4878048896789551,0.3048780560493469,0.396341472864151,2.549999952316284,-0.75,-12.0,37.006229400634766,0,
 1069162,-0.3349609375,-0.921630859375,0.00732421875,-0.15243902802467346,0.24390244483947754,0.6707317233085632,1.649999976158142,2.549999952316284,-9.449999809265137,36.86246109008789,0,
 1069173,-0.3349609375,-0.912353515625,0.006103515625,-0.21341463923454285,0.18292683362960815,0.3353658616542816,3.75,1.9500000476837158,-9.0,37.006229400634766,0,
 1069183,-0.33349609375,-0.91552734375,0.006591796875,-0.6402438879013062,0.3658536672592163,0.3353658616542816,3.75,1.9500000476837158,-9.0,36.67076873779297,0,
 1069193,-0.3408203125,-0.9208984375,0.009765625,-0.6402438879013062,0.3658536672592163,0.3048780560493469,3.0,1.9500000476837158,-9.0,36.718692779541016,0,
 1069203,-0.341064453125,-0.915283203125,0.005615234375,-0.5487805008888245,0.12195122241973877,0.21341463923454285,2.549999952316284,1.5,-9.0,37.006229400634766,0,
 1069213,-0.3369140625,-0.9140625,0.008056640625,-0.5792682766914368,0.5487805008888245,0.15243902802467346,2.4000000953674316,2.0999999046325684,-10.199999809265137,36.814537048339844,0,
 1069223,-0.339111328125,-0.920166015625,0.01611328125,-0.3658536672592163,0.15243902802467346,0.12195122241973877,3.5999999046325684,2.0999999046325684,-6.900000095367432,36.86246109008789,0,
 1069233,-0.33544921875,-0.923583984375,0.005126953125,0.0,0.4268292784690857,0.15243902802467346,3.5999999046325684,2.0999999046325684,-6.900000095367432,36.814537048339844,0,
 1069243,-0.338134765625,-0.917236328125,0.005126953125,-0.3658536672592163,0.21341463923454285,0.3658536672592163,3.299999952316284,2.700000047683716,-7.800000190734863,36.91038513183594,0,
 1069253,-0.3388671875,-0.923095703125,0.01171875,-0.18292683362960815,0.21341463923454285,0.5182926654815674,3.5999999046325684,2.549999952316284,-14.399999618530273,37.10207748413086,0,
 1069263,-0.343017578125,-0.9228515625,0.00927734375,-0.12195122241973877,0.5487805008888245,0.27439025044441223,2.4000000953674316,2.0999999046325684,-8.399999618530273,36.67076873779297,0,
 1069273,-0.336181640625,-0.920166015625,0.01123046875,-0.5792682766914368,0.4573170840740204,0.3353658616542816,2.4000000953674316,2.0999999046325684,-8.399999618530273,36.718692779541016,0,
 1069283,-0.342041015625,-0.913330078125,0.008544921875,-0.8536585569381714,0.12195122241973877,-0.030487805604934692,2.4000000953674316,0.8999999761581421,-7.199999809265137,36.814537048339844,0,
 1069293,-0.342041015625,-0.918212890625,0.00830078125,-0.8841463327407837,0.27439025044441223,0.15243902802467346,3.299999952316284,1.9500000476837158,-9.0,37.006229400634766,0,
 1069303,-0.334716796875,-0.916015625,0.0078125,-0.5792682766914368,0.4268292784690857,-0.15243902802467346,3.0,1.5,-8.25,36.91038513183594,0,
 1069313,-0.33740234375,-0.916748046875,0.010009765625,-0.8231707215309143,0.5792682766914368,0.27439025044441223,3.299999952316284,1.9500000476837158,-9.300000190734863,36.86246109008789,0,
 1069323,-0.33740234375,-0.918701171875,0.00341796875,-0.7621951103210449,0.3658536672592163,0.27439025044441223,3.299999952316284,1.9500000476837158,-9.300000190734863,37.05415344238281,0,
 1069333,-0.335693359375,-0.91845703125,0.012939453125,-0.8536585569381714,0.4268292784690857,0.4573170840740204,3.299999952316284,1.5,-8.25,36.814537048339844,0,
 1069343,-0.3388671875,-0.910400390625,0.007568359375,-0.8231707215309143,0.396341472864151,-0.060975611209869385,2.0999999046325684,2.0999999046325684,-10.649999618530273,36.814537048339844,0,
 1069353,-0.342529296875,-0.91748046875,0.014404296875,-0.4878048896789551,0.27439025044441223,0.3353658616542816,4.949999809265137,3.9000000953674316,-11.550000190734863,37.05415344238281,0,
 1069363,-0.33642578125,-0.91943359375,0.007568359375,-0.8231707215309143,0.4573170840740204,0.396341472864151,4.949999809265137,3.9000000953674316,-11.550000190734863,37.006229400634766,0,
 1069373,-0.339599609375,-0.916748046875,0.00927734375,-0.4573170840740204,0.4878048896789551,0.21341463923454285,3.1500000953674316,4.050000190734863,-9.149999618530273,36.86246109008789,0,
 1069383,-0.338623046875,-0.9228515625,0.010009765625,-0.9756097793579102,0.4573170840740204,0.060975611209869385,4.199999809265137,3.1500000953674316,-9.0,36.814537048339844,0,
 1069393,-0.339111328125,-0.91259765625,0.00830078125,-0.6707317233085632,0.6402438879013062,0.12195122241973877,2.549999952316284,2.700000047683716,-9.0,36.814537048339844,0,
 1069403,-0.3388671875,-0.917236328125,0.0048828125,-0.5792682766914368,0.5792682766914368,0.18292683362960815,3.299999952316284,3.9000000953674316,-9.75,36.814537048339844,0,
 1069413,-0.33447265625,-0.915771484375,0.00439453125,-0.6097561120986938,0.5487805008888245,0.3048780560493469,3.299999952316284,3.9000000953674316,-9.75,36.814537048339844,0,
 1069423,-0.340576171875,-0.91357421875,0.003662109375,-0.4573170840740204,0.4268292784690857,0.3353658616542816,3.1500000953674316,2.549999952316284,-8.399999618530273,36.86246109008789,0,
 1069433,-0.341064453125,-0.9140625,0.006591796875,-0.6707317233085632,0.4268292784690857,-0.18292683362960815,3.1500000953674316,2.0999999046325684,-8.699999809265137,36.86246109008789,0,
 1069443,-0.33642578125,-0.9169921875,0.0107421875,-0.5487805008888245,0.27439025044441223,0.15243902802467346,4.5,2.25,-9.300000190734863,36.91038513183594,0,
 1069453,-0.334716796875,-0.920166015625,0.012451171875,-0.3658536672592163,0.396341472864151,0.3353658616542816,4.5,2.25,-9.300000190734863,37.006229400634766,0,
 1069463,-0.333251953125,-0.921630859375,0.005126953125,-0.5487805008888245,0.15243902802467346,0.4878048896789551,3.299999952316284,1.9500000476837158,-10.5,37.006229400634766,0,
 1069473,-0.33935546875,-0.917724609375,0.0078125,-0.4878048896789551,0.3048780560493469,0.4878048896789551,3.75,2.25,-8.550000190734863,37.10207748413086,0,
 1069483,-0.3359375,-0.9150390625,0.010498046875,-0.21341463923454285,0.27439025044441223,0.7012194991111755,3.75,3.1500000953674316,-7.5,36.718692779541016,0,
 1069493,-0.338623046875,-0.915771484375,0.0087890625,-0.060975611209869385,0.15243902802467346,0.18292683362960815,4.349999904632568,2.8499999046325684,-9.899999618530273,37.006229400634766,0,
 1069503,-0.3408203125,-0.912841796875,0.00830078125,-0.27439025044441223,0.24390244483947754,0.7317073345184326,4.349999904632568,2.8499999046325684,-9.899999618530273,37.006229400634766,0,
 1069513,-0.343017578125,-0.918701171875,0.01123046875,-0.15243902802467346,0.15243902802467346,0.4268292784690857,2.0999999046325684,3.299999952316284,-9.449999809265137,36.67076873779297,0,
 1069523,-0.3388671875,-0.923583984375,0.013427734375,-0.3353658616542816,0.3353658616542816,0.5182926654815674,3.75,1.5,-10.050000190734863,36.814537048339844,0,
 1069533,-0.341064453125,-0.913330078125,0.0107421875,-0.5182926654815674,0.4268292784690857,0.3658536672592163,2.549999952316284,1.9500000476837158,-9.300000190734863,37.006229400634766,0,
 1069543,-0.3369140625,-0.914794921875,0.0107421875,-0.5792682766914368,0.21341463923454285,0.21341463923454285,2.549999952316284,1.9500000476837158,-9.300000190734863,36.86246109008789,0,
 1069553,-0.337646484375,-0.92041015625,0.015380859375,-0.792682945728302,0.4268292784690857,-0.09146341681480408,3.0,2.25,-8.25,37.006229400634766,0,
 1069563,-0.346923828125,-0.9150390625,0.008544921875,-0.7012194991111755,0.5487805008888245,-0.09146341681480408,2.0999999046325684,2.549999952316284,-10.199999809265137,37.10207748413086,0,
 1069573,-0.33935546875,-0.917236328125,0.015380859375,-0.6707317233085632,0.5487805008888245,0.0,2.4000000953674316,2.549999952316284,-10.649999618530273,36.718692779541016,0,
 1069583,-0.33984375,-0.916259765625,0.0087890625,-0.6402438879013062,0.3048780560493469,-0.030487805604934692,2.549999952316284,2.25,-9.0,36.86246109008789,0,
 1069593,-0.341064453125,-0.91943359375,0.009033203125,-0.6707317233085632,0.4878048896789551,0.27439025044441223,2.549999952316284,2.25,-9.0,36.814537048339844,0,
 1069603,-0.3447265625,-0.92431640625,0.0087890625,-0.3048780560493469,0.15243902802467346,0.18292683362960815,2.549999952316284,2.700000047683716,-8.25,36.718692779541016,0,
 1069613,-0.342529296875,-0.916259765625,0.005615234375,-0.5792682766914368,0.21341463923454285,0.24390244483947754,2.25,1.5,-8.25,36.91038513183594,0,
 1069623,-0.335205078125,-0.914306640625,0.010986328125,-0.396341472864151,0.18292683362960815,0.21341463923454285,2.8499999046325684,1.649999976158142,-10.199999809265137,36.814537048339844,0,
 1069633,-0.338623046875,-0.915771484375,0.0107421875,-0.5182926654815674,0.0,0.3048780560493469,2.25,1.9500000476837158,-9.0,36.814537048339844,0,
 1069643,-0.33837890625,-0.91943359375,0.0078125,-0.3658536672592163,0.18292683362960815,0.5487805008888245,2.25,1.9500000476837158,-9.0,36.57492446899414,0,
 1069653,-0.337646484375,-0.9189453125,0.01171875,-0.27439025044441223,0.3658536672592163,0.24390244483947754,2.8499999046325684,2.549999952316284,-9.449999809265137,37.006229400634766,0,
 1069663,-0.3359375,-0.9189453125,0.010498046875,-0.4268292784690857,0.24390244483947754,0.3048780560493469,3.0,1.0499999523162842,-10.800000190734863,37.05415344238281,0,
 1069673,-0.34033203125,-0.9169921875,0.009521484375,-0.5182926654815674,0.4573170840740204,0.0,2.4000000953674316,2.549999952316284,-9.449999809265137,36.718692779541016,0,
 1069683,-0.341552734375,-0.921875,0.010498046875,-0.396341472864151,0.3048780560493469,0.5182926654815674,2.4000000953674316,2.549999952316284,-9.449999809265137,36.86246109008789,0,
 1069693,-0.3408203125,-0.91650390625,0.005859375,-0.7317073345184326,0.792682945728302,0.18292683362960815,1.0499999523162842,1.9500000476837158,-9.0,37.006229400634766,0,
 1069703,-0.337890625,-0.920166015625,0.00732421875,-0.3353658616542816,0.396341472864151,0.15243902802467346,3.75,3.1500000953674316,-8.25,37.006229400634766,0,
 1069713,-0.34130859375,-0.922119140625,0.012939453125,-0.7012194991111755,0.030487805604934692,0.18292683362960815,3.1500000953674316,2.549999952316284,-7.949999809265137,36.814537048339844,0,
 1069723,-0.34033203125,-0.91796875,0.008544921875,-0.5182926654815674,0.6097561120986938,0.4268292784690857,2.549999952316284,3.1500000953674316,-7.800000190734863,36.718692779541016,0,
 1069733,-0.339111328125,-0.91943359375,0.012451171875,-0.7621951103210449,0.060975611209869385,0.3353658616542816,2.549999952316284,3.1500000953674316,-7.800000190734863,36.91038513183594,0,
 1069743,-0.345947265625,-0.91845703125,0.009521484375,-0.4573170840740204,0.18292683362960815,0.15243902802467346,3.0,2.700000047683716,-8.550000190734863,37.05415344238281,0,
 1069753,-0.3369140625,-0.915771484375,0.00390625,-0.24390244483947754,0.09146341681480408,0.030487805604934692,3.75,2.25,-7.800000190734863,36.57492446899414,0,
 1069763,-0.3369140625,-0.922607421875,0.004150390625,-0.6402438879013062,0.396341472864151,0.12195122241973877,3.75,4.349999904632568,-10.800000190734863,37.19792175292969,0,
 1069773,-0.334716796875,-0.916259765625,0.004638671875,-0.27439025044441223,0.3048780560493469,0.396341472864151,3.75,4.349999904632568,-10.800000190734863,36.718692779541016,0,
 1069783,-0.33935546875,-0.912841796875,0.01513671875,-0.24390244483947754,0.3353658616542816,0.3353658616542816,2.4000000953674316,2.8499999046325684,-8.399999618530273,37.05415344238281,0,
 1069793,-0.337890625,-0.914794921875,0.005615234375,-0.4268292784690857,0.3353658616542816,0.4573170840740204,3.299999952316284,2.700000047683716,-8.25,37.006229400634766,0,
 1069803,-0.336669921875,-0.921875,0.011962890625,-0.9451219439506531,0.18292683362960815,0.12195122241973877,3.1500000953674316,1.350000023841858,-10.949999809265137,36.91038513183594,0,
 1069813,-0.33642578125,-0.917236328125,0.01025390625,-0.24390244483947754,0.4268292784690857,0.3353658616542816,2.4000000953674316,4.050000190734863,-9.149999618530273,36.91038513183594,0,
 1069823,-0.33837890625,-0.920166015625,0.01123046875,-0.3353658616542816,0.15243902802467346,0.3353658616542816,2.4000000953674316,4.050000190734863,-9.149999618530273,36.814537048339844,0,
 1069833,-0.33642578125,-0.916259765625,0.009033203125,-0.5182926654815674,0.3658536672592163,0.18292683362960815,3.5999999046325684,3.299999952316284,-7.949999809265137,37.006229400634766,0,
 1069843,-0.34228515625,-0.91796875,0.010009765625,-0.5487805008888245,0.15243902802467346,0.6707317233085632,2.25,3.9000000953674316,-9.75,36.86246109008789,0,
 1069853,-0.33740234375,-0.919921875,0.00634765625,-0.396341472864151,0.15243902802467346,0.12195122241973877,2.549999952316284,3.1500000953674316,-7.800000190734863,36.91038513183594,0,
 1069863,-0.34228515625,-0.914794921875,0.006591796875,-0.3353658616542816,0.5792682766914368,0.0,2.549999952316284,3.1500000953674316,-7.800000190734863,36.86246109008789,0,
 1069873,-0.33935546875,-0.915771484375,0.00537109375,-0.5792682766914368,0.5792682766914368,0.060975611209869385,2.8499999046325684,3.299999952316284,-13.949999809265137,36.57492446899414,0,
 1069883,-0.333984375,-0.9189453125,0.0068359375,-0.396341472864151,0.3658536672592163,0.3353658616542816,4.349999904632568,2.0999999046325684,-12.149999618530273,36.91038513183594,0,
 1069893,-0.335693359375,-0.9208984375,0.002197265625,-0.24390244483947754,0.5487805008888245,0.060975611209869385,4.650000095367432,3.299999952316284,-11.399999618530273,37.05415344238281,0,
 1069904,-0.33935546875,-0.91748046875,0.010009765625,-0.8841463327407837,0.09146341681480408,0.3048780560493469,5.25,3.1500000953674316,-12.75,36.91038513183594,0,
 1069914,-0.338134765625,-0.920166015625,0.0048828125,-0.792682945728302,0.5487805008888245,0.4268292784690857,5.25,3.1500000953674316,-12.75,36.86246109008789,0,
 1069924,-0.34033203125,-0.915771484375,0.013427734375,-0.27439025044441223,0.21341463923454285,0.0,1.7999999523162842,2.25,-9.0,36.527000427246094,0,
 1069934,-0.330810546875,-0.91845703125,0.009033203125,-0.4878048896789551,0.5487805008888245,-0.030487805604934692,2.549999952316284,2.700000047683716,-10.050000190734863,36.86246109008789,0,
 1069944,-0.34228515625,-0.91748046875,0.0048828125,-0.3658536672592163,0.3353658616542816,0.6097561120986938,1.0499999523162842,2.25,-7.050000190734863,37.05415344238281,0,
 1069954,-0.341796875,-0.923583984375,0.010009765625,-0.3048780560493469,0.5182926654815674,0.12195122241973877,1.0499999523162842,2.25,-7.050000190734863,36.86246109008789,0,
 1069964,-0.3369140625,-0.917236328125,0.00927734375,-0.396341472864151,0.396341472864151,0.030487805604934692,2.0999999046325684,1.649999976158142,-8.399999618530273,36.91038513183594,0,
 1069974,-0.331787109375,-0.9140625,0.00634765625,-0.030487805604934692,0.18292683362960815,0.3658536672592163,3.0,1.0499999523162842,-9.75,37.006229400634766,0,
 1069984,-0.33642578125,-0.922119140625,0.00927734375,-0.4878048896789551,0.3353658616542816,0.0,2.549999952316284,3.1500000953674316,-7.5,36.86246109008789,0,
 1069994,-0.337158203125,-0.918212890625,0.01025390625,-0.7012194991111755,0.27439025044441223,-0.060975611209869385,1.649999976158142,3.299999952316284,-10.199999809265137,36.86246109008789,0,
 1070004,-0.33935546875,-0.91748046875,0.007568359375,-0.6402438879013062,0.5182926654815674,0.09146341681480408,1.649999976158142,3.299999952316284,-10.199999809265137,37.006229400634766,0,
 1070014,-0.337646484375,-0.91943359375,0.010498046875,-0.5487805008888245,0.6402438879013062,0.5487805008888245,3.0,2.25,-8.550000190734863,36.718692779541016,0,
 1070024,-0.341552734375,-0.9111328125,0.008544921875,-0.8841463327407837,0.21341463923454285,0.15243902802467346,3.1500000953674316,1.350000023841858,-7.199999809265137,37.05415344238281,0,
 1070034,-0.3369140625,-0.917236328125,0.00732421875,-0.396341472864151,0.4878048896789551,0.09146341681480408,3.75,1.9500000476837158,-8.25,36.814537048339844,0,
 1070044,-0.34033203125,-0.92431640625,0.0068359375,-0.3353658616542816,0.5487805008888245,0.396341472864151,3.75,1.9500000476837158,-8.25,36.718692779541016,0,
 1070054,-0.33740234375,-0.9150390625,0.002197265625,-0.396341472864151,0.12195122241973877,0.27439025044441223,2.25,1.0499999523162842,-8.25,36.91038513183594,0,
 1070064,-0.34228515625,-0.917236328125,0.010498046875,-0.3658536672592163,0.3048780560493469,0.396341472864151,3.0,2.25,-9.75,36.86246109008789,0,
 1070074,-0.336181640625,-0.917236328125,0.014892578125,-0.3658536672592163,0.4573170840740204,0.3353658616542816,3.0,3.1500000953674316,-13.050000190734863,36.67076873779297,0,
 1070084,-0.337646484375,-0.9248046875,0.00146484375,-0.6402438879013062,0.24390244483947754,0.24390244483947754,2.25,2.25,-9.0,37.006229400634766,0,
 1070094,-0.337158203125,-0.92236328125,0.010498046875,-0.7012194991111755,0.3048780560493469,-0.030487805604934692,2.25,2.25,-9.0,36.91038513183594,0,
 1070104,-0.338623046875,-0.916259765625,0.0107421875,-0.6097561120986938,0.4878048896789551,0.24390244483947754,3.1500000953674316,2.0999999046325684,-9.449999809265137,36.86246109008789,0,
 1070114,-0.3388671875,-0.915771484375,0.0068359375,-0.4878048896789551,0.3658536672592163,-0.15243902802467346,2.25,0.75,-10.5,36.718692779541016,0,
 1070124,-0.338623046875,-0.91796875,0.005615234375,-0.396341472864151,0.396341472864151,0.27439025044441223,3.299999952316284,1.5,-9.0,37.006229400634766,0,
 1070134,-0.340576171875,-0.92041015625,0.00732421875,-0.4878048896789551,0.27439025044441223,0.27439025044441223,2.4000000953674316,2.549999952316284,-9.899999618530273,36.86246109008789,0,
 1070144,-0.33984375,-0.915283203125,0.005126953125,-0.5487805008888245,0.3048780560493469,0.5182926654815674,2.4000000953674316,2.549999952316284,-9.899999618530273,37.006229400634766,0,
 1070154,-0.337890625,-0.924560546875,0.0126953125,-0.15243902802467346,0.3048780560493469,0.3048780560493469,3.299999952316284,1.9500000476837158,-8.25,36.86246109008789,0,
 1070164,-0.331787109375,-0.919189453125,0.00537109375,-0.12195122241973877,0.24390244483947754,0.396341472864151,2.549999952316284,1.9500000476837158,-9.0,36.718692779541016,0,
 1070174,-0.342529296875,-0.918701171875,0.01123046875,-0.5182926654815674,0.3353658616542816,0.4573170840740204,3.299999952316284,3.9000000953674316,-12.75,36.86246109008789,0,
 1070184,-0.339599609375,-0.916259765625,0.006103515625,-0.3353658616542816,0.24390244483947754,0.15243902802467346,3.299999952316284,3.9000000953674316,-12.75,36.91038513183594,0,
 1070194,-0.344970703125,-0.91357421875,0.0126953125,-0.3658536672592163,0.3048780560493469,0.030487805604934692,3.299999952316284,1.9500000476837158,-8.550000190734863,36.86246109008789,0,
 1070204,-0.336669921875,-0.918701171875,0.010498046875,-0.8231707215309143,0.5182926654815674,0.09146341681480408,2.549999952316284,3.450000047683716,-9.75,37.006229400634766,0,
 1070214,-0.3359375,-0.9228515625,0.00732421875,-0.6097561120986938,0.3658536672592163,0.24390244483947754,1.5,1.0499999523162842,-9.300000190734863,36.718692779541016,0,
 1070224,-0.337646484375,-0.919921875,0.011962890625,-0.4573170840740204,0.12195122241973877,0.0,2.25,1.9500000476837158,-10.050000190734863,37.006229400634766,0,
 1070234,-0.33251953125,-0.91845703125,0.005615234375,-0.3658536672592163,0.030487805604934692,0.4268292784690857,2.25,1.9500000476837158,-10.050000190734863,37.006229400634766,0,
 1070244,-0.3408203125,-0.916259765625,0.005126953125,-0.4878048896789551,0.4268292784690857,0.15243902802467346,3.0,3.450000047683716,-9.0,37.006229400634766,0,
 1070254,-0.340087890625,-0.92431640625,0.0048828125,-0.3353658616542816,0.3658536672592163,0.4573170840740204,0.75,0.75,-8.25,36.814537048339844,0,
 1070264,-0.33837890625,-0.91552734375,0.01123046875,-0.4573170840740204,0.21341463923454285,0.24390244483947754,2.25,3.450000047683716,-9.75,36.814537048339844,0,
 1070274,-0.333740234375,-0.92041015625,0.005126953125,0.0,0.27439025044441223,0.3048780560493469,2.25,3.450000047683716,-9.75,37.10207748413086,0,
 1070284,-0.335693359375,-0.919921875,0.00634765625,-0.3353658616542816,0.3048780560493469,0.3048780560493469,2.4000000953674316,2.549999952316284,-7.949999809265137,36.91038513183594,0,
 1070294,-0.33837890625,-0.911376953125,0.01025390625,-0.3658536672592163,0.18292683362960815,0.18292683362960815,3.0,1.5,-7.5,36.86246109008789,0,
 1070304,-0.337646484375,-0.916015625,0.012451171875,-0.3048780560493469,0.24390244483947754,0.24390244483947754,3.0,1.9500000476837158,-9.75,37.006229400634766,0,
 1070314,-0.336669921875,-0.91455078125,0.012451171875,-0.5182926654815674,0.3353658616542816,0.3353658616542816,2.8499999046325684,2.549999952316284,-8.399999618530273,36.67076873779297,0,
 1070324,-0.3388671875,-0.9208984375,0.005615234375,-0.4878048896789551,0.7621951103210449,0.15243902802467346,2.8499999046325684,2.549999952316284,-8.399999618530273,37.006229400634766,0,
 1070334,-0.3330078125,-0.92041015625,0.010986328125,-0.8536585569381714,0.4573170840740204,0.21341463923454285,2.0999999046325684,2.8499999046325684,-9.899999618530273,36.91038513183594,0,
 1070344,-0.339111328125,-0.919189453125,0.013671875,-0.7317073345184326,0.3048780560493469,0.5792682766914368,2.549999952316284,2.25,-10.5,36.718692779541016,0,
 1070354,-0.3359375,-0.91796875,0.00732421875,-0.27439025044441223,0.21341463923454285,0.15243902802467346,3.299999952316284,2.700000047683716,-7.800000190734863,36.86246109008789,0,
 1070364,-0.34326171875,-0.918212890625,0.00537109375,-0.4878048896789551,0.12195122241973877,0.7317073345184326,3.299999952316284,2.700000047683716,-7.800000190734863,36.86246109008789,0,
 1070374,-0.33935546875,-0.91259765625,0.003173828125,-0.4268292784690857,0.060975611209869385,0.396341472864151,2.8499999046325684,2.0999999046325684,-9.449999809265137,36.718692779541016,0,
 1070384,-0.33740234375,-0.91845703125,0.00390625,-0.6707317233085632,0.12195122241973877,0.396341472864151,2.0999999046325684,0.44999998807907104,-10.199999809265137,36.86246109008789,0,
 1070394,-0.33544921875,-0.9189453125,0.0146484375,-0.7012194991111755,0.3353658616542816,0.3048780560493469,2.0999999046325684,2.549999952316284,-8.699999809265137,36.814537048339844,0,
 1070404,-0.34033203125,-0.917724609375,0.010009765625,-0.6707317233085632,0.4878048896789551,0.12195122241973877,3.5999999046325684,3.299999952316284,-7.650000095367432,36.718692779541016,0,
 1070414,-0.3349609375,-0.92138671875,0.009521484375,-0.6707317233085632,0.24390244483947754,0.030487805604934692,3.5999999046325684,3.299999952316284,-7.650000095367432,36.91038513183594,0,
 1070424,-0.345947265625,-0.914794921875,0.009521484375,-0.7621951103210449,0.396341472864151,-0.030487805604934692,3.75,2.25,-8.25,37.006229400634766,0,
 1070434,-0.341796875,-0.915283203125,0.006103515625,-0.21341463923454285,0.7012194991111755,-0.12195122241973877,2.549999952316284,1.9500000476837158,-9.300000190734863,37.19792175292969,0,
 1070444,-0.3359375,-0.912841796875,0.0107421875,-0.6097561120986938,0.6097561120986938,-0.18292683362960815,2.8499999046325684,2.549999952316284,-8.699999809265137,36.718692779541016,0,
 1070454,-0.33642578125,-0.918212890625,0.008544921875,-0.6707317233085632,0.4268292784690857,-0.12195122241973877,2.8499999046325684,1.350000023841858,-9.449999809265137,36.718692779541016,0,
 1070464,-0.33251953125,-0.921875,0.008544921875,-0.4268292784690857,0.27439025044441223,0.15243902802467346,2.8499999046325684,1.350000023841858,-9.449999809265137,36.57492446899414,0,
 1070474,-0.340576171875,-0.91650390625,0.00341796875,-0.396341472864151,0.24390244483947754,0.4878048896789551,2.8499999046325684,1.649999976158142,-9.899999618530273,36.86246109008789,0,
 1070484,-0.336669921875,-0.919189453125,0.008056640625,-0.4878048896789551,0.4268292784690857,0.396341472864151,3.1500000953674316,2.0999999046325684,-13.649999618530273,36.814537048339844,0,
 1070494,-0.33740234375,-0.9169921875,0.01318359375,-0.4878048896789551,0.4878048896789551,0.4878048896789551,3.5999999046325684,0.8999999761581421,-8.699999809265137,37.006229400634766,0,
 1070504,-0.337646484375,-0.9150390625,0.0078125,-0.3353658616542816,0.21341463923454285,0.3658536672592163,3.5999999046325684,0.8999999761581421,-8.699999809265137,36.814537048339844,0,
 1070514,-0.332275390625,-0.91845703125,0.0126953125,-0.18292683362960815,0.4268292784690857,0.030487805604934692,2.0999999046325684,2.0999999046325684,-7.650000095367432,36.86246109008789,0,
 1070524,-0.336181640625,-0.920654296875,0.009033203125,-0.5792682766914368,0.3353658616542816,0.15243902802467346,3.9000000953674316,2.0999999046325684,-7.949999809265137,37.006229400634766,0,
 1070534,-0.33251953125,-0.915771484375,0.01123046875,-0.5792682766914368,0.24390244483947754,0.21341463923454285,3.5999999046325684,2.0999999046325684,-9.149999618530273,36.814537048339844,0,
 1070544,-0.340576171875,-0.919921875,0.006103515625,-0.5792682766914368,0.3353658616542816,0.060975611209869385,3.9000000953674316,3.75,-7.949999809265137,37.006229400634766,0,
 1070554,-0.33984375,-0.916015625,0.010986328125,-0.5487805008888245,0.5182926654815674,0.12195122241973877,3.9000000953674316,3.75,-7.949999809265137,36.718692779541016,0,
 1070564,-0.345458984375,-0.919921875,0.0107421875,-0.7621951103210449,0.5182926654815674,0.060975611209869385,2.25,1.5,-8.550000190734863,36.67076873779297,0,
 1070574,-0.3388671875,-0.921142578125,0.010986328125,-0.6097561120986938,0.3353658616542816,0.060975611209869385,1.7999999523162842,2.700000047683716,-10.050000190734863,36.814537048339844,0,
 1070584,-0.341796875,-0.91552734375,0.010986328125,-0.7012194991111755,0.4878048896789551,-0.12195122241973877,1.5,3.9000000953674316,-9.75,36.91038513183594,0,
 1070594,-0.335693359375,-0.91845703125,0.00927734375,-0.3658536672592163,0.24390244483947754,0.396341472864151,1.5,3.9000000953674316,-9.75,36.86246109008789,0,
 1070604,-0.335205078125,-0.91845703125,0.00732421875,-0.3353658616542816,0.396341472864151,0.4573170840740204,4.199999809265137,1.0499999523162842,-9.300000190734863,36.67076873779297,0,
 1070614,-0.345947265625,-0.9150390625,0.007080078125,-0.3353658616542816,0.27439025044441223,0.27439025044441223,2.4000000953674316,0.15000000596046448,-7.949999809265137,37.006229400634766,0,
 1070624,-0.332763671875,-0.921875,0.008056640625,-0.4878048896789551,0.4268292784690857,0.21341463923454285,2.4000000953674316,2.549999952316284,-7.949999809265137,36.91038513183594,0,
 1070634,-0.338623046875,-0.91650390625,0.003173828125,-0.24390244483947754,0.3048780560493469,0.792682945728302,3.1500000953674316,1.649999976158142,-9.449999809265137,36.814537048339844,0,
 1070644,-0.333251953125,-0.92041015625,0.00830078125,-0.4878048896789551,0.4878048896789551,0.4268292784690857,3.1500000953674316,1.649999976158142,-9.449999809265137,37.10207748413086,0,
 1070654,-0.341796875,-0.913818359375,0.005126953125,-0.3658536672592163,0.12195122241973877,0.4268292784690857,3.75,1.9500000476837158,-9.0,36.718692779541016,0,
 1070664,-0.329833984375,-0.91455078125,0.011962890625,-0.3353658616542816,0.24390244483947754,0.15243902802467346,3.299999952316284,1.9500000476837158,-9.300000190734863,36.814537048339844,0,
 1070674,-0.336181640625,-0.91650390625,0.005126953125,-0.7317073345184326,0.396341472864151,0.15243902802467346,3.0,1.9500000476837158,-8.25,36.86246109008789,0,
 1070684,-0.3349609375,-0.92333984375,0.007568359375,-0.4573170840740204,0.27439025044441223,-0.060975611209869385,3.0,1.9500000476837158,-8.25,36.718692779541016,0,
 1070694,-0.33740234375,-0.91796875,0.00634765625,-0.7621951103210449,0.4573170840740204,0.24390244483947754,0.8999999761581421,0.44999998807907104,-10.649999618530273,36.814537048339844,0,
 1070704,-0.331298828125,-0.9208984375,0.0087890625,-0.8231707215309143,0.12195122241973877,0.18292683362960815,3.5999999046325684,2.0999999046325684,-8.699999809265137,36.814537048339844,0,
 1070714,-0.340087890625,-0.920654296875,0.0048828125,-0.5182926654815674,0.3353658616542816,0.09146341681480408,1.5,1.9500000476837158,-9.0,36.814537048339844,0,
 1070725,-0.339111328125,-0.91796875,0.010009765625,-0.5792682766914368,0.6707317233085632,0.030487805604934692,2.25,1.9500000476837158,-9.300000190734863,37.006229400634766,0,
 1070735,-0.33984375,-0.9189453125,0.01025390625,-0.21341463923454285,0.3353658616542816,0.09146341681480408,2.25,1.9500000476837158,-9.300000190734863,36.814537048339844,0,
 1070745,-0.3388671875,-0.918212890625,0.007568359375,-0.15243902802467346,0.12195122241973877,0.18292683362960815,4.199999809265137,1.0499999523162842,-9.0,37.05415344238281,0,
 1070755,-0.342041015625,-0.918701171875,0.009521484375,-0.15243902802467346,0.3048780560493469,0.24390244483947754,3.9000000953674316,2.549999952316284,-7.199999809265137,36.57492446899414,0,
 1070765,-0.33837890625,-0.920654296875,0.00927734375,-0.24390244483947754,0.0,0.27439025044441223,3.75,0.75,-9.75,36.86246109008789,0,
 1070775,-0.33740234375,-0.91943359375,0.010986328125,-0.15243902802467346,0.3353658616542816,0.3353658616542816,3.1500000953674316,2.549999952316284,-9.449999809265137,36.718692779541016,0,
 1070785,-0.331787109375,-0.918701171875,0.00732421875,-0.6097561120986938,0.18292683362960815,0.15243902802467346,2.549999952316284,3.450000047683716,-8.25,37.006229400634766,0,
 1070795,-0.342041015625,-0.91552734375,0.007080078125,-0.4573170840740204,0.3353658616542816,0.24390244483947754,4.5,1.9500000476837158,-12.300000190734863,37.006229400634766,0,
 1070805,-0.337890625,-0.920654296875,0.004638671875,-0.7317073345184326,0.396341472864151,0.060975611209869385,1.5,2.25,-7.050000190734863,36.67076873779297,0,
 1070815,-0.340087890625,-0.91943359375,0.001708984375,-0.5182926654815674,0.4878048896789551,0.18292683362960815,2.25,2.700000047683716,-8.550000190734863,36.814537048339844,0,
 1070825,-0.338623046875,-0.919189453125,0.011962890625,-0.7317073345184326,0.3658536672592163,0.060975611209869385,2.25,2.700000047683716,-8.550000190734863,37.05415344238281,0,
 1070835,-0.339599609375,-0.923095703125,0.0107421875,-0.4878048896789551,0.3658536672592163,0.0,3.5999999046325684,2.0999999046325684,-9.899999618530273,36.91038513183594,0,
 1070845,-0.340576171875,-0.91845703125,0.011474609375,-0.396341472864151,0.396341472864151,0.3353658616542816,2.8499999046325684,1.649999976158142,-9.899999618530273,36.814537048339844,0,
 1070855,-0.34130859375,-0.9169921875,0.01318359375,-0.396341472864151,0.3353658616542816,0.6097561120986938,3.1500000953674316,2.0999999046325684,-9.899999618530273,36.814537048339844,0,
 1070865,-0.3359375,-0.91357421875,0.0107421875,-0.4268292784690857,0.4573170840740204,0.4573170840740204,2.549999952316284,3.450000047683716,-7.5,36.814537048339844,0,
 1070875,-0.3388671875,-0.9169921875,0.009521484375,-0.27439025044441223,0.09146341681480408,0.396341472864151,2.549999952316284,3.450000047683716,-7.5,36.91038513183594,0,
 1070885,-0.34521484375,-0.916748046875,0.00732421875,-0.7317073345184326,0.27439025044441223,0.4268292784690857,2.549999952316284,1.9500000476837158,-8.25,36.67076873779297,0,
 1070895,-0.339599609375,-0.921142578125,0.0087890625,-0.15243902802467346,0.3048780560493469,0.8231707215309143,2.549999952316284,3.1500000953674316,-12.75,36.86246109008789,0,
 1070905,-0.339599609375,-0.91943359375,0.009521484375,-0.5487805008888245,0.3048780560493469,0.5792682766914368,3.9000000953674316,2.8499999046325684,-9.149999618530273,36.86246109008789,0,
 1070915,-0.338623046875,-0.9169921875,0.010986328125,-0.27439025044441223,0.4573170840740204,0.3048780560493469,3.9000000953674316,2.8499999046325684,-9.149999618530273,37.10207748413086,0,
 1070925,-0.341552734375,-0.916015625,0.01025390625,-0.4268292784690857,0.3353658616542816,0.030487805604934692,3.1500000953674316,2.549999952316284,-9.149999618530273,36.814537048339844,0,
 1070935,-0.340576171875,-0.914306640625,0.0146484375,-0.7317073345184326,0.5792682766914368,0.4268292784690857,3.1500000953674316,3.299999952316284,-8.399999618530273,37.006229400634766,0,
 1070945,-0.33935546875,-0.91748046875,0.008544921875,-0.4268292784690857,0.3658536672592163,-0.18292683362960815,3.1500000953674316,1.350000023841858,-8.399999618530273,36.814537048339844,0,
 1070955,-0.333984375,-0.914794921875,0.009765625,-0.4268292784690857,0.396341472864151,0.18292683362960815,4.349999904632568,1.649999976158142,-9.149999618530273,36.814537048339844,0,
 1070965,-0.337890625,-0.915771484375,0.0087890625,-0.6402438879013062,0.5792682766914368,0.18292683362960815,4.349999904632568,1.649999976158142,-9.149999618530273,37.006229400634766,0,
 1070975,-0.341552734375,-0.9169921875,0.00537109375,-0.12195122241973877,0.4268292784690857,0.060975611209869385,2.0999999046325684,1.649999976158142,-10.199999809265137,36.814537048339844,0,
 1070985,-0.334716796875,-0.923583984375,0.014404296875,-0.3353658616542816,0.4268292784690857,0.396341472864151,3.5999999046325684,1.649999976158142,-7.650000095367432,36.814537048339844,0,
 1070995,-0.3349609375,-0.92138671875,0.007080078125,-0.15243902802467346,0.27439025044441223,0.3048780560493469,4.5,3.450000047683716,-10.800000190734863,36.67076873779297,0,
 1071005,-0.339111328125,-0.91357421875,0.00927734375,-0.3353658616542816,0.18292683362960815,0.4573170840740204,4.5,3.450000047683716,-10.800000190734863,36.814537048339844,0,
 1071015,-0.3408203125,-0.9111328125,0.006591796875,-0.3048780560493469,0.18292683362960815,0.3658536672592163,2.4000000953674316,0.8999999761581421,-7.949999809265137,37.05415344238281,0,
 1071025,-0.338623046875,-0.918212890625,0.012451171875,-0.3658536672592163,0.060975611209869385,0.4573170840740204,1.5,1.5,-8.25,37.006229400634766,0,
 1071035,-0.339599609375,-0.915771484375,0.012451171875,-0.792682945728302,0.27439025044441223,0.21341463923454285,2.4000000953674316,3.75,-8.399999618530273,36.86246109008789,0,
 1071045,-0.346435546875,-0.916015625,0.009521484375,-0.6402438879013062,0.4268292784690857,0.24390244483947754,3.1500000953674316,2.8499999046325684,-9.449999809265137,36.527000427246094,0,
 1071055,-0.33935546875,-0.920166015625,0.018798828125,-0.8231707215309143,0.4878048896789551,0.21341463923454285,3.1500000953674316,2.8499999046325684,-9.449999809265137,36.718692779541016,0,
 1071065,-0.340087890625,-0.91796875,0.013916015625,-0.6402438879013062,0.4268292784690857,0.3048780560493469,3.75,3.450000047683716,-6.75,37.006229400634766,0,
 1071075,-0.33544921875,-0.913818359375,0.00537109375,-0.6707317233085632,0.4573170840740204,0.18292683362960815,2.0999999046325684,2.8499999046325684,-9.149999618530273,36.814537048339844,0,
 1071085,-0.33935546875,-0.919921875,0.01123046875,-0.4878048896789551,0.6097561120986938,0.4268292784690857,3.5999999046325684,0.44999998807907104,-9.449999809265137,37.05415344238281,0,
 1071095,-0.338134765625,-0.92236328125,0.006103515625,-0.7317073345184326,0.4878048896789551,0.4878048896789551,3.5999999046325684,0.44999998807907104,-9.449999809265137,36.718692779541016,0,
 1071105,-0.337158203125,-0.915283203125,0.014404296875,-0.6402438879013062,0.3658536672592163,0.3658536672592163,2.4000000953674316,1.649999976158142,-8.399999618530273,36.814537048339844,0,
 1071115,-0.33740234375,-0.91943359375,0.0107421875,-0.7621951103210449,0.3353658616542816,0.060975611209869385,4.199999809265137,1.0499999523162842,-10.050000190734863,37.006229400634766,0,
 1071125,-0.339599609375,-0.9228515625,0.007080078125,-0.3353658616542816,0.3658536672592163,0.15243902802467346,2.8499999046325684,1.649999976158142,-9.899999618530273,36.91038513183594,0,
 1071135,-0.334228515625,-0.91796875,0.00390625,-1.0060975551605225,0.3658536672592163,0.060975611209869385,2.0999999046325684,3.299999952316284,-9.449999809265137,36.67076873779297,0,
 1071145,-0.33740234375,-0.918701171875,0.0078125,-0.7621951103210449,0.5792682766914368,0.12195122241973877,2.0999999046325684,3.299999952316284,-9.449999809265137,36.814537048339844,0,
 1071155,-0.341552734375,-0.91748046875,0.006591796875,-0.8841463327407837,0.5182926654815674,0.24390244483947754,3.299999952316284,1.5,-9.0,36.91038513183594,0,
 1071165,-0.33935546875,-0.917236328125,0.008056640625,-0.9451219439506531,0.5182926654815674,0.15243902802467346,3.1500000953674316,0.15000000596046448,-8.399999618530273,36.718692779541016,0,
 1071175,-0.341064453125,-0.919921875,0.00537109375,-0.5487805008888245,0.5487805008888245,-0.09146341681480408,2.4000000953674316,1.649999976158142,-9.149999618530273,37.006229400634766,0,
 1071185,-0.33544921875,-0.916259765625,0.0078125,-0.6707317233085632,0.4573170840740204,0.27439025044441223,2.4000000953674316,1.649999976158142,-9.149999618530273,37.05415344238281,0,
 1071195,-0.331298828125,-0.918701171875,0.010498046875,-0.5487805008888245,0.4878048896789551,0.21341463923454285,3.75,1.0499999523162842,-8.550000190734863,36.67076873779297,0,
 1071205,-0.339599609375,-0.91943359375,0.0078125,-0.6707317233085632,0.4268292784690857,0.24390244483947754,1.5,2.25,-9.0,37.05415344238281,0,
 1071215,-0.33984375,-0.91796875,0.01025390625,-0.7621951103210449,0.27439025044441223,0.4573170840740204,2.0999999046325684,3.299999952316284,-8.399999618530273,36.86246109008789,0,
 1071225,-0.340576171875,-0.919921875,0.00439453125,-0.6402438879013062,0.4268292784690857,0.18292683362960815,3.299999952316284,2.700000047683716,-9.300000190734863,36.86246109008789,0,
 1071235,-0.341064453125,-0.91845703125,0.00927734375,-0.6097561120986938,0.396341472864151,0.3048780560493469,3.299999952316284,2.700000047683716,-9.300000190734863,37.006229400634766,0,
 1071245,-0.33740234375,-0.916015625,0.003662109375,0.0,0.21341463923454285,0.3658536672592163,1.5,2.25,-7.800000190734863,36.718692779541016,0,
 1071255,-0.337158203125,-0.91650390625,0.0078125,-0.12195122241973877,0.3048780560493469,0.396341472864151,2.4000000953674316,2.549999952316284,-7.949999809265137,36.718692779541016,0,
 1071265,-0.3349609375,-0.922119140625,0.01025390625,-0.12195122241973877,0.18292683362960815,0.060975611209869385,1.7999999523162842,0.75,-9.75,37.006229400634766,0,
 1071275,-0.338134765625,-0.919189453125,0.0068359375,-0.09146341681480408,0.27439025044441223,0.09146341681480408,3.299999952316284,2.700000047683716,-9.0,36.86246109008789,0,
 1071285,-0.338623046875,-0.91943359375,0.007080078125,-0.24390244483947754,0.3048780560493469,-0.09146341681480408,3.299999952316284,2.700000047683716,-9.0,36.86246109008789,0,
 1071295,-0.336669921875,-0.918212890625,0.0126953125,-0.3658536672592163,0.15243902802467346,0.0,2.549999952316284,2.25,-9.300000190734863,36.86246109008789,0,
 1071305,-0.330810546875,-0.9208984375,0.009033203125,-0.4268292784690857,0.396341472864151,0.12195122241973877,3.5999999046325684,-0.15000000596046448,-9.449999809265137,37.006229400634766,0,
 1071315,-0.343017578125,-0.91650390625,0.009521484375,-0.27439025044441223,0.27439025044441223,0.21341463923454285,2.549999952316284,3.9000000953674316,-9.300000190734863,36.86246109008789,0,
 1071325,-0.335205078125,-0.912109375,0.006591796875,-0.15243902802467346,0.27439025044441223,0.15243902802467346,2.549999952316284,3.9000000953674316,-9.300000190734863,36.86246109008789,0,
 1071335,-0.33984375,-0.920166015625,0.007568359375,-0.4268292784690857,0.09146341681480408,0.060975611209869385,1.649999976158142,2.549999952316284,-8.399999618530273,37.006229400634766,0,
 1071345,-0.340576171875,-0.923095703125,0.006591796875,-0.5182926654815674,0.396341472864151,0.09146341681480408,2.0999999046325684,2.8499999046325684,-9.149999618530273,37.006229400634766,0,
 1071355,-0.3369140625,-0.921142578125,0.00927734375,-0.21341463923454285,0.24390244483947754,0.15243902802467346,3.1500000953674316,1.649999976158142,-7.949999809265137,36.814537048339844,0,
 1071365,-0.3369140625,-0.916015625,0.00927734375,-0.3048780560493469,0.27439025044441223,0.0,1.2000000476837158,0.8999999761581421,-8.399999618530273,36.527000427246094,0,
 1071375,-0.345703125,-0.92041015625,0.014404296875,-0.8536585569381714,0.3353658616542816,0.09146341681480408,1.2000000476837158,0.8999999761581421,-8.399999618530273,37.245845794677734,0,
 1071385,-0.336669921875,-0.91845703125,0.011474609375,-0.4573170840740204,0.4573170840740204,0.24390244483947754,4.199999809265137,2.25,-9.300000190734863,37.006229400634766,0,
 1071395,-0.33642578125,-0.9169921875,0.005859375,-0.7012194991111755,0.3353658616542816,0.4268292784690857,2.8499999046325684,2.549999952316284,-8.399999618530273,37.006229400634766,0,
 1071405,-0.3388671875,-0.91943359375,0.004638671875,-0.7012194991111755,0.18292683362960815,0.4878048896789551,3.9000000953674316,4.949999809265137,-11.699999809265137,37.05415344238281,0,
 1071415,-0.342529296875,-0.918701171875,0.010986328125,-0.792682945728302,0.5487805008888245,0.5182926654815674,3.9000000953674316,4.949999809265137,-11.699999809265137,37.05415344238281,0,
 1071425,-0.33837890625,-0.920166015625,0.00927734375,-0.6097561120986938,0.5487805008888245,0.6707317233085632,2.8499999046325684,2.8499999046325684,-8.699999809265137,36.86246109008789,0,
 1071435,-0.337158203125,-0.920166015625,0.00537109375,-0.9146341681480408,0.3353658616542816,0.3658536672592163,2.25,1.5,-8.550000190734863,36.814537048339844,0,
 1071445,-0.33837890625,-0.91943359375,0.0078125,-0.9756097793579102,0.27439025044441223,0.21341463923454285,3.75,1.9500000476837158,-9.75,37.006229400634766,0,
 1071456,-0.342041015625,-0.917236328125,0.0068359375,-0.8536585569381714,0.6097561120986938,0.3353658616542816,3.0,1.9500000476837158,-8.25,37.006229400634766,0,
 1071466,-0.337646484375,-0.915283203125,0.00634765625,-0.8841463327407837,0.4878048896789551,0.24390244483947754,3.0,1.9500000476837158,-8.25,36.86246109008789,0,
 1071476,-0.337158203125,-0.916748046875,0.010498046875,-1.0670732259750366,0.24390244483947754,-0.060975611209869385,2.4000000953674316,1.649999976158142,-9.149999618530273,37.006229400634766,0,
 1071486,-0.34033203125,-0.917236328125,0.007568359375,-1.0365853309631348,0.4268292784690857,0.3658536672592163,2.8499999046325684,1.649999976158142,-9.899999618530273,36.86246109008789,0,
 1071496,-0.341796875,-0.91552734375,0.00439453125,-0.9146341681480408,0.5487805008888245,0.060975611209869385,3.75,0.75,-13.050000190734863,37.006229400634766,0,
 1071506,-0.342041015625,-0.919921875,0.004638671875,-0.8841463327407837,0.5792682766914368,0.060975611209869385,3.75,0.75,-13.050000190734863,36.86246109008789,0,
 1071516,-0.3369140625,-0.917724609375,0.008056640625,-0.5792682766914368,0.396341472864151,0.060975611209869385,3.5999999046325684,2.549999952316284,-9.899999618530273,36.91038513183594,0,
 1071526,-0.3408203125,-0.92333984375,0.00830078125,-0.4268292784690857,0.396341472864151,0.060975611209869385,3.0,1.9500000476837158,-8.25,37.006229400634766,0,
 1071536,-0.335205078125,-0.92041015625,0.008056640625,-0.396341472864151,0.21341463923454285,0.3048780560493469,2.8499999046325684,0.44999998807907104,-8.399999618530273,36.814537048339844,0,
 1071546,-0.33740234375,-0.918212890625,0.00537109375,-0.3658536672592163,0.24390244483947754,0.396341472864151,2.8499999046325684,0.44999998807907104,-8.399999618530273,37.006229400634766,0,
 1071556,-0.3330078125,-0.9140625,0.01025390625,-0.4573170840740204,0.396341472864151,0.15243902802467346,2.8499999046325684,0.44999998807907104,-8.399999618530273,36.814537048339844,0,
 1071566,-0.332275390625,-0.923583984375,0.01025390625,-0.030487805604934692,0.4268292784690857,0.24390244483947754,2.549999952316284,2.700000047683716,-9.75,36.814537048339844,0,
 1071576,-0.342529296875,-0.925537109375,0.006591796875,-0.15243902802467346,0.12195122241973877,0.3658536672592163,2.549999952316284,1.9500000476837158,-8.550000190734863,36.91038513183594,0,
 1071586,-0.3369140625,-0.9189453125,0.01025390625,-0.18292683362960815,0.3658536672592163,0.09146341681480408,2.549999952316284,1.9500000476837158,-8.550000190734863,36.814537048339844,0,
 1071596,-0.33203125,-0.916015625,0.00927734375,0.21341463923454285,0.030487805604934692,0.27439025044441223,2.549999952316284,1.9500000476837158,-8.550000190734863,37.006229400634766,0,
 1071606,-0.34033203125,-0.921142578125,0.00927734375,-0.3048780560493469,0.18292683362960815,0.3658536672592163,3.299999952316284,2.25,-8.25,36.814537048339844,0,
 1071616,-0.342529296875,-0.919921875,0.01123046875,-0.3048780560493469,0.0,0.3048780560493469,3.299999952316284,2.25,-7.949999809265137,36.86246109008789,0,
 1071626,-0.3388671875,-0.919189453125,0.01416015625,-0.09146341681480408,0.030487805604934692,0.24390244483947754,2.0999999046325684,1.649999976158142,-8.699999809265137,36.91038513183594,0,
 1071636,-0.34228515625,-0.917724609375,0.012451171875,-0.24390244483947754,0.27439025044441223,0.18292683362960815,2.0999999046325684,1.649999976158142,-8.699999809265137,36.718692779541016,0,
 1071646,-0.33544921875,-0.920166015625,0.012451171875,-0.12195122241973877,0.396341472864151,-0.09146341681480408,2.0999999046325684,1.649999976158142,-8.699999809265137,37.006229400634766,0,
 1071656,-0.334716796875,-0.918701171875,0.008544921875,-0.4268292784690857,0.4573170840740204,0.18292683362960815,1.649999976158142,0.15000000596046448,-9.75,36.814537048339844,0,
 1071666,-0.3369140625,-0.922119140625,0.0107421875,-0.6707317233085632,0.4268292784690857,0.24390244483947754,1.5,4.349999904632568,-8.550000190734863,36.86246109008789,0,
 1071676,-0.3359375,-0.91943359375,0.00439453125,-0.7621951103210449,0.4573170840740204,0.4878048896789551,1.5,4.349999904632568,-8.550000190734863,36.86246109008789,0,
 1071686,-0.33349609375,-0.918701171875,0.005859375,-0.4268292784690857,0.5792682766914368,0.4268292784690857,1.5,4.349999904632568,-8.550000190734863,36.814537048339844,0,
 1071696,-0.338623046875,-0.919677734375,0.006591796875,-0.6097561120986938,0.3658536672592163,0.18292683362960815,3.75,2.700000047683716,-8.25,36.814537048339844,0,
 1071706,-0.3388671875,-0.916015625,0.005859375,-0.7317073345184326,0.3353658616542816,0.24390244483947754,4.199999809265137,0.0,-12.300000190734863,37.006229400634766,0,
 1071716,-0.3310546875,-0.91552734375,0.005126953125,-0.6707317233085632,0.3658536672592163,0.18292683362960815,3.75,2.25,-9.0,36.86246109008789,0,
 1071726,-0.337646484375,-0.917236328125,0.010498046875,-0.3353658616542816,0.6707317233085632,0.21341463923454285,3.75,2.25,-9.0,36.91038513183594,0,
 1071736,-0.330810546875,-0.9150390625,0.010498046875,-0.4268292784690857,0.3048780560493469,0.4268292784690857,2.4000000953674316,2.25,-9.0,36.86246109008789,0,
 1071746,-0.33203125,-0.919921875,0.007080078125,-0.5182926654815674,0.09146341681480408,0.396341472864151,2.549999952316284,2.25,-9.300000190734863,36.814537048339844,0,
 1071756,-0.3427734375,-0.92138671875,0.003173828125,-0.7621951103210449,0.3048780560493469,0.396341472864151,2.0999999046325684,0.15000000596046448,-7.949999809265137,36.814537048339844,0,
 1071766,-0.3359375,-0.91845703125,0.0068359375,-0.27439025044441223,0.3048780560493469,0.3658536672592163,1.7999999523162842,1.5,-8.25,37.006229400634766,0,
 1071776,-0.337158203125,-0.91748046875,0.010986328125,-0.4878048896789551,0.0,0.396341472864151,1.7999999523162842,1.5,-8.25,36.814537048339844,0,
 1071786,-0.339599609375,-0.92041015625,0.0048828125,-0.6097561120986938,0.3353658616542816,0.3658536672592163,2.25,2.25,-9.75,36.86246109008789,0,
 1071796,-0.342041015625,-0.920654296875,0.010986328125,-0.7012194991111755,0.24390244483947754,0.09146341681480408,3.299999952316284,2.700000047683716,-10.5,37.006229400634766,0,
 1071806,-0.337890625,-0.918701171875,0.0126953125,-0.4268292784690857,0.27439025044441223,0.4268292784690857,3.75,4.349999904632568,-10.050000190734863,36.814537048339844,0,
 1071816,-0.34228515625,-0.92333984375,0.011962890625,-0.27439025044441223,0.3658536672592163,0.3353658616542816,3.75,4.349999904632568,-10.050000190734863,37.006229400634766,0,
 1071826,-0.341552734375,-0.911376953125,0.009765625,-0.4878048896789551,0.5182926654815674,0.15243902802467346,3.299999952316284,1.9500000476837158,-10.800000190734863,36.86246109008789,0,
 1071836,-0.34130859375,-0.914794921875,0.010498046875,-0.6097561120986938,0.3353658616542816,0.4573170840740204,3.0,1.5,-7.050000190734863,36.718692779541016,0,
 1071846,-0.33935546875,-0.9169921875,0.009033203125,-0.7012194991111755,0.18292683362960815,0.24390244483947754,2.549999952316284,2.25,-8.25,37.006229400634766,0,
 1071856,-0.33544921875,-0.91796875,0.005126953125,-0.5792682766914368,0.4878048896789551,0.09146341681480408,3.0,2.700000047683716,-9.300000190734863,36.86246109008789,0,
 1071866,-0.33740234375,-0.91845703125,0.014404296875,-1.0365853309631348,0.5792682766914368,0.21341463923454285,3.0,2.700000047683716,-9.300000190734863,36.814537048339844,0,
 1071876,-0.34130859375,-0.917236328125,0.010986328125,-0.5487805008888245,0.4878048896789551,0.396341472864151,3.75,1.5,-9.300000190734863,36.718692779541016,0,
 1071886,-0.331298828125,-0.9189453125,0.007568359375,-0.9756097793579102,0.12195122241973877,0.4268292784690857,3.1500000953674316,1.649999976158142,-8.399999618530273,37.05415344238281,0,
 1071896,-0.333984375,-0.921630859375,0.00439453125,-0.4878048896789551,0.3658536672592163,0.18292683362960815,1.7999999523162842,2.25,-9.75,36.814537048339844,0,
 1071906,-0.33935546875,-0.9169921875,0.007568359375,-0.7317073345184326,0.4268292784690857,0.24390244483947754,1.7999999523162842,2.25,-9.75,36.91038513183594,0,
 1071916,-0.3359375,-0.923583984375,0.00927734375,-0.7012194991111755,0.3048780560493469,0.21341463923454285,3.1500000953674316,3.299999952316284,-9.449999809265137,36.91038513183594,0,
 1071926,-0.340576171875,-0.9130859375,0.007080078125,-0.5182926654815674,0.7317073345184326,0.6402438879013062,3.1500000953674316,0.15000000596046448,-7.949999809265137,36.57492446899414,0,
 1071936,-0.335205078125,-0.91357421875,0.009521484375,-0.4878048896789551,0.3658536672592163,0.18292683362960815,3.0,1.9500000476837158,-8.550000190734863,36.91038513183594,0,
 1071946,-0.338134765625,-0.9150390625,0.00634765625,-0.8231707215309143,0.5182926654815674,0.21341463923454285,2.0999999046325684,1.649999976158142,-8.699999809265137,36.91038513183594,0,
 1071956,-0.340087890625,-0.920654296875,0.00048828125,-0.4268292784690857,0.4878048896789551,0.3658536672592163,2.0999999046325684,1.649999976158142,-8.699999809265137,36.814537048339844,0,
 1071966,-0.339111328125,-0.918701171875,0.00537109375,-0.792682945728302,0.21341463923454285,0.3048780560493469,2.549999952316284,1.0499999523162842,-9.0,36.814537048339844,0,
 1071976,-0.336669921875,-0.92041015625,0.004638671875,-0.6707317233085632,0.5487805008888245,-0.15243902802467346,2.0999999046325684,2.8499999046325684,-8.399999618530273,36.57492446899414,0,
 1071986,-0.33642578125,-0.921630859375,0.0087890625,-0.6707317233085632,0.396341472864151,0.15243902802467346,3.5999999046325684,2.8499999046325684,-9.149999618530273,37.006229400634766,0,
 1071996,-0.3427734375,-0.91796875,0.00439453125,-0.6402438879013062,0.4573170840740204,0.15243902802467346,3.5999999046325684,2.8499999046325684,-9.149999618530273,37.006229400634766,0,
 1072006,-0.3427734375,-0.916259765625,0.006591796875,-0.3658536672592163,0.4573170840740204,0.12195122241973877,2.0999999046325684,1.350000023841858,-9.899999618530273,37.006229400634766,0,
 1072016,-0.3349609375,-0.912353515625,0.00634765625,-0.4878048896789551,0.21341463923454285,0.18292683362960815,3.1500000953674316,2.0999999046325684,-9.899999618530273,36.86246109008789,0,
 1072026,-0.334228515625,-0.916015625,0.0078125,-0.4268292784690857,0.3658536672592163,0.5182926654815674,3.1500000953674316,2.549999952316284,-9.149999618530273,36.67076873779297,0,
 1072036,-0.336181640625,-0.918701171875,0.00439453125,-0.27439025044441223,0.27439025044441223,0.396341472864151,2.0999999046325684,2.549999952316284,-6.900000095367432,37.05415344238281,0,
 1072046,-0.3408203125,-0.91650390625,0.005859375,-0.3658536672592163,0.3353658616542816,0.3048780560493469,2.0999999046325684,2.549999952316284,-6.900000095367432,36.718692779541016,0,
 1072056,-0.339111328125,-0.92431640625,0.00830078125,-0.4268292784690857,0.3048780560493469,0.5182926654815674,4.5,0.75,-8.25,37.006229400634766,0,
 1072066,-0.341552734375,-0.917724609375,0.00537109375,-0.3353658616542816,0.4268292784690857,0.3658536672592163,2.4000000953674316,1.649999976158142,-8.399999618530273,37.006229400634766,0,
 1072076,-0.33837890625,-0.91357421875,0.008544921875,-0.6097561120986938,0.21341463923454285,0.18292683362960815,4.199999809265137,3.1500000953674316,-8.25,36.718692779541016,0,
 1072086,-0.337890625,-0.919921875,0.007080078125,-0.7317073345184326,0.5792682766914368,0.15243902802467346,4.199999809265137,3.1500000953674316,-8.25,36.91038513183594,0,
 1072096,-0.335693359375,-0.917236328125,0.009521484375,-0.7621951103210449,0.27439025044441223,0.030487805604934692,3.0,3.450000047683716,-9.300000190734863,36.91038513183594,0,
 1072106,-0.339111328125,-0.919677734375,0.009765625,-0.9146341681480408,0.4878048896789551,0.18292683362960815,0.44999998807907104,4.050000190734863,-8.399999618530273,36.86246109008789,0,
 1072116,-0.338623046875,-0.9189453125,0.00830078125,-0.7012194991111755,0.15243902802467346,0.18292683362960815,4.349999904632568,1.350000023841858,-9.899999618530273,36.86246109008789,0,
 1072126,-0.3427734375,-0.919921875,0.009521484375,-0.6402438879013062,0.4268292784690857,0.3658536672592163,1.5,3.450000047683716,-9.0,36.86246109008789,0,
 1072136,-0.33642578125,-0.9140625,-0.000244140625,-0.6402438879013062,0.4878048896789551,0.09146341681480408,1.5,3.450000047683716,-9.0,37.006229400634766,0,
 1072146,-0.3359375,-0.918212890625,0.00732421875,-0.7317073345184326,0.18292683362960815,-0.12195122241973877,2.25,1.5,-9.0,36.91038513183594,0,
 1072156,-0.338623046875,-0.921142578125,0.01123046875,-0.7621951103210449,0.4878048896789551,-0.060975611209869385,3.75,1.0499999523162842,-9.300000190734863,37.10207748413086,0,
 1072166,-0.343017578125,-0.922607421875,0.007568359375,-0.7012194991111755,0.12195122241973877,0.09146341681480408,3.1500000953674316,2.0999999046325684,-10.649999618530273,37.006229400634766,0,
 1072176,-0.3369140625,-0.92041015625,0.0068359375,-0.6402438879013062,0.18292683362960815,0.27439025044441223,3.1500000953674316,2.0999999046325684,-10.649999618530273,36.718692779541016,0,
 1072187,-0.33935546875,-0.914794921875,0.0048828125,-0.6402438879013062,0.4573170840740204,0.5487805008888245,1.5,3.450000047683716,-9.0,36.86246109008789,0,
 1072197,-0.33544921875,-0.918701171875,0.004638671875,-0.27439025044441223,0.27439025044441223,0.3048780560493469,2.8499999046325684,2.0999999046325684,-9.149999618530273,36.718692779541016,0,
 1072207,-0.338623046875,-0.91796875,0.0078125,-0.5182926654815674,0.21341463923454285,0.030487805604934692,3.1500000953674316,3.75,-7.949999809265137,37.006229400634766,0,
 1072217,-0.338134765625,-0.916015625,0.00634765625,-0.4573170840740204,0.27439025044441223,0.6097561120986938,3.9000000953674316,2.8499999046325684,-10.949999809265137,37.05415344238281,0,
 1072227,-0.33740234375,-0.919677734375,0.009765625,-0.6402438879013062,0.18292683362960815,0.12195122241973877,3.9000000953674316,2.8499999046325684,-10.949999809265137,37.006229400634766,0,
 1072237,-0.337646484375,-0.916748046875,0.0078125,-0.18292683362960815,0.21341463923454285,-0.060975611209869385,1.2000000476837158,2.549999952316284,-7.949999809265137,37.006229400634766,0,
 1072247,-0.339111328125,-0.91455078125,0.0107421875,-0.15243902802467346,0.24390244483947754,0.09146341681480408,2.25,0.75,-8.25,36.86246109008789,0,
 1072257,-0.33984375,-0.924560546875,0.010009765625,-0.4573170840740204,0.3048780560493469,0.18292683362960815,1.2000000476837158,0.8999999761581421,-7.650000095367432,36.47908020019531,0,
 1072267,-0.334228515625,-0.921630859375,0.007568359375,-0.6707317233085632,0.5487805008888245,0.060975611209869385,1.2000000476837158,2.0999999046325684,-7.949999809265137,36.91038513183594,0,
 1072277,-0.33203125,-0.9189453125,0.009765625,-0.8231707215309143,0.5487805008888245,0.060975611209869385,1.2000000476837158,2.0999999046325684,-7.949999809265137,36.814537048339844,0,
 1072287,-0.3388671875,-0.915283203125,0.005859375,-0.4573170840740204,0.6097561120986938,0.5182926654815674,2.4000000953674316,0.8999999761581421,-9.449999809265137,37.05415344238281,0,
 1072297,-0.334716796875,-0.916748046875,0.010009765625,-0.3658536672592163,0.3353658616542816,0.24390244483947754,3.75,0.30000001192092896,-8.550000190734863,37.006229400634766,0,
 1072307,-0.333984375,-0.915771484375,0.010986328125,-0.4268292784690857,0.12195122241973877,0.4573170840740204,2.25,1.5,-8.550000190734863,36.86246109008789,0,
 1072317,-0.34326171875,-0.92333984375,0.00439453125,-0.21341463923454285,0.396341472864151,0.27439025044441223,2.25,1.5,-8.550000190734863,36.814537048339844,0,
 1072327,-0.3359375,-0.91796875,0.0107421875,-0.27439025044441223,0.3353658616542816,0.09146341681480408,2.4000000953674316,2.0999999046325684,-9.149999618530273,36.91038513183594,0,
 1072337,-0.33642578125,-0.923095703125,0.0078125,-0.792682945728302,0.3353658616542816,0.060975611209869385,2.4000000953674316,2.8499999046325684,-8.699999809265137,36.814537048339844,0,
 1072347,-0.34033203125,-0.91748046875,0.0087890625,-0.6402438879013062,0.15243902802467346,0.24390244483947754,2.0999999046325684,0.8999999761581421,-7.949999809265137,36.814537048339844,0,
 1072357,-0.33447265625,-0.91650390625,0.005126953125,-0.4573170840740204,0.3658536672592163,0.15243902802467346,2.0999999046325684,1.649999976158142,-10.199999809265137,37.10207748413086,0,
 1072367,-0.33837890625,-0.914306640625,0.008056640625,-0.4878048896789551,0.3353658616542816,-0.030487805604934692,2.0999999046325684,1.649999976158142,-10.199999809265137,36.814537048339844,0,
 1072377,-0.343505859375,-0.92333984375,0.005126953125,-0.5182926654815674,0.5792682766914368,0.18292683362960815,2.549999952316284,1.5,-8.550000190734863,37.10207748413086,0,
 1072387,-0.334228515625,-0.919189453125,0.011962890625,-0.6402438879013062,0.27439025044441223,0.18292683362960815,1.0499999523162842,1.0499999523162842,-9.300000190734863,37.006229400634766,0,
 1072397,-0.3408203125,-0.92041015625,0.014404296875,-0.5487805008888245,0.15243902802467346,0.15243902802467346,2.0999999046325684,0.8999999761581421,-7.199999809265137,36.86246109008789,0,
 1072407,-0.341064453125,-0.919677734375,0.009765625,-0.4573170840740204,0.3353658616542816,0.4878048896789551,2.0999999046325684,0.8999999761581421,-7.199999809265137,36.814537048339844,0,
 1072417,-0.3408203125,-0.918701171875,0.005126953125,-0.27439025044441223,0.3048780560493469,0.6402438879013062,2.0999999046325684,1.649999976158142,-8.699999809265137,36.67076873779297,0,
 1072427,-0.33740234375,-0.921142578125,0.00732421875,-0.5487805008888245,0.12195122241973877,0.09146341681480408,3.5999999046325684,1.350000023841858,-7.650000095367432,36.86246109008789,0,
 1072437,-0.342041015625,-0.918212890625,0.00390625,-0.5487805008888245,0.8231707215309143,0.27439025044441223,4.349999904632568,0.15000000596046448,-8.699999809265137,37.05415344238281,0,
 1072447,-0.339599609375,-0.920654296875,0.0078125,-0.6707317233085632,0.15243902802467346,0.24390244483947754,1.0499999523162842,1.5,-9.0,36.718692779541016,0,
 1072457,-0.338134765625,-0.918701171875,0.0078125,-0.9451219439506531,0.15243902802467346,0.5182926654815674,1.0499999523162842,1.5,-9.0,36.91038513183594,0,
 1072467,-0.337158203125,-0.919189453125,0.0048828125,-0.8841463327407837,0.3658536672592163,0.12195122241973877,1.2000000476837158,0.8999999761581421,-10.199999809265137,36.814537048339844,0,
 1072477,-0.33837890625,-0.91796875,0.00390625,-0.9146341681480408,0.27439025044441223,0.3658536672592163,2.8499999046325684,2.549999952316284,-8.699999809265137,36.814537048339844,0,
 1072487,-0.33935546875,-0.9150390625,0.009765625,-0.9146341681480408,0.5792682766914368,0.18292683362960815,2.4000000953674316,2.0999999046325684,-9.449999809265137,36.86246109008789,0,
 1072497,-0.34423828125,-0.91259765625,0.011474609375,-0.9451219439506531,0.15243902802467346,0.4268292784690857,2.4000000953674316,2.0999999046325684,-9.449999809265137,37.006229400634766,0,
 1072507,-0.333984375,-0.9169921875,0.00537109375,-0.15243902802467346,0.21341463923454285,0.060975611209869385,2.549999952316284,2.25,-9.300000190734863,37.10207748413086,0,
 1072517,-0.34619140625,-0.921630859375,0.00439453125,-1.1890244483947754,0.5792682766914368,0.3353658616542816,2.25,2.700000047683716,-8.25,36.67076873779297,0,
 1072527,-0.33251953125,-0.92041015625,0.00732421875,-0.5182926654815674,0.030487805604934692,0.24390244483947754,1.2000000476837158,0.15000000596046448,-10.649999618530273,36.86246109008789,0,
 1072537,-0.337890625,-0.919189453125,0.009033203125,-0.24390244483947754,0.12195122241973877,0.060975611209869385,1.7999999523162842,2.700000047683716,-8.550000190734863,36.86246109008789,0,
 1072547,-0.33837890625,-0.91650390625,0.006103515625,-0.15243902802467346,0.0,-0.030487805604934692,1.7999999523162842,2.700000047683716,-8.550000190734863,37.006229400634766,0,
 1072557,-0.3369140625,-0.916015625,0.0107421875,-0.4573170840740204,-0.030487805604934692,0.060975611209869385,1.7999999523162842,3.450000047683716,-9.0,37.05415344238281,0,
 1072567,-0.3359375,-0.922607421875,0.0078125,-0.6402438879013062,0.3658536672592163,0.3353658616542816,3.5999999046325684,2.0999999046325684,-9.449999809265137,36.91038513183594,0,
 1072577,-0.341796875,-0.91748046875,0.008544921875,-0.5792682766914368,0.3353658616542816,0.27439025044441223,3.1500000953674316,0.8999999761581421,-9.449999809265137,36.814537048339844,0,
 1072587,-0.338134765625,-0.91552734375,0.006103515625,-0.4878048896789551,0.3658536672592163,0.3048780560493469,3.1500000953674316,0.8999999761581421,-9.449999809265137,37.05415344238281,0,
 1072597,-0.333740234375,-0.914306640625,0.0078125,-0.5182926654815674,0.6402438879013062,0.15243902802467346,2.549999952316284,1.5,-9.75,36.86246109008789,0,
 1072607,-0.34228515625,-0.919677734375,0.012939453125,-0.4878048896789551,0.4573170840740204,0.0,2.4000000953674316,1.350000023841858,-8.699999809265137,36.814537048339844,0,
 1072617,-0.335205078125,-0.916015625,0.0107421875,-0.4878048896789551,0.3658536672592163,0.18292683362960815,2.4000000953674316,2.0999999046325684,-9.449999809265137,36.814537048339844,0,
 1072627,-0.347412109375,-0.9208984375,0.011962890625,-0.09146341681480408,0.21341463923454285,0.3048780560493469,2.8499999046325684,2.8499999046325684,-9.449999809265137,36.814537048339844,0,
 1072637,-0.334716796875,-0.919921875,0.00830078125,-0.5792682766914368,0.4878048896789551,0.21341463923454285,2.8499999046325684,2.8499999046325684,-9.449999809265137,37.006229400634766,0,
 1072647,-0.33935546875,-0.9189453125,0.01220703125,-0.4573170840740204,0.3353658616542816,0.3048780560493469,2.549999952316284,2.25,-9.300000190734863,36.91038513183594,0,
 1072657,-0.347900390625,-0.912353515625,0.00927734375,-0.4878048896789551,0.3658536672592163,0.060975611209869385,1.7999999523162842,1.5,-8.25,36.814537048339844,0,
 1072667,-0.33935546875,-0.917236328125,0.005615234375,-0.7317073345184326,0.09146341681480408,0.4878048896789551,2.549999952316284,1.5,-8.550000190734863,36.718692779541016,0,
 1072677,-0.3359375,-0.912841796875,0.00927734375,-0.4573170840740204,0.27439025044441223,0.060975611209869385,1.649999976158142,3.75,-8.699999809265137,36.86246109008789,0,
 1072687,-0.3369140625,-0.91845703125,0.010986328125,-0.5182926654815674,0.4573170840740204,-0.09146341681480408,2.8499999046325684,2.0999999046325684,-8.699999809265137,36.91038513183594,0,
 1072697,-0.33837890625,-0.91845703125,0.0068359375,-0.4268292784690857,0.3353658616542816,0.5792682766914368,2.25,2.25,-10.050000190734863,36.814537048339844,0,
 1072707,-0.341552734375,-0.91845703125,0.0078125,-0.4573170840740204,0.3048780560493469,0.3353658616542816,3.9000000953674316,1.649999976158142,-7.949999809265137,36.814537048339844,0,
 1072717,-0.339111328125,-0.9189453125,0.01025390625,-0.4878048896789551,0.5487805008888245,0.3048780560493469,2.25,1.0499999523162842,-9.0,37.006229400634766,0,
 1072727,-0.33740234375,-0.916015625,0.006103515625,-0.27439025044441223,0.396341472864151,0.3658536672592163,2.25,1.0499999523162842,-9.0,37.006229400634766,0,
 1072737,-0.338134765625,-0.921630859375,0.009033203125,-0.3048780560493469,0.27439025044441223,0.4573170840740204,0.8999999761581421,1.350000023841858,-9.149999618530273,37.006229400634766,0,
 1072747,-0.3359375,-0.91748046875,0.010009765625,-0.396341472864151,0.15243902802467346,0.4268292784690857,3.75,2.25,-9.300000190734863,36.814537048339844,0,
 1072757,-0.33544921875,-0.92431640625,0.005859375,-0.4573170840740204,0.060975611209869385,0.3658536672592163,2.549999952316284,1.9500000476837158,-9.0,36.57492446899414,0,
 1072767,-0.33984375,-0.92138671875,0.009033203125,-0.030487805604934692,0.3658536672592163,0.7012194991111755,3.75,2.700000047683716,-8.550000190734863,36.91038513183594,0,
 1072777,-0.33740234375,-0.919189453125,0.01416015625,-0.5182926654815674,0.3658536672592163,0.3048780560493469,3.75,2.700000047683716,-8.550000190734863,36.814537048339844,0,
 1072787,-0.336669921875,-0.917236328125,0.00341796875,-0.27439025044441223,0.4573170840740204,0.060975611209869385,1.7999999523162842,0.75,-8.550000190734863,36.86246109008789,0,
 1072797,-0.337890625,-0.920166015625,0.006103515625,-0.24390244483947754,0.396341472864151,0.4878048896789551,2.0999999046325684,2.549999952316284,-9.449999809265137,36.718692779541016,0,
 1072807,-0.337890625,-0.912353515625,0.004638671875,-0.12195122241973877,0.27439025044441223,0.3353658616542816,2.549999952316284,3.450000047683716,-9.300000190734863,36.86246109008789,0,
 1072817,-0.34033203125,-0.918701171875,0.0107421875,-0.4268292784690857,0.21341463923454285,0.12195122241973877,2.549999952316284,3.450000047683716,-9.300000190734863,36.86246109008789,0,
 1072827,-0.337158203125,-0.920166015625,0.007568359375,-0.5182926654815674,0.18292683362960815,0.0,2.0999999046325684,2.8499999046325684,-7.949999809265137,36.91038513183594,0,
 1072837,-0.3369140625,-0.921142578125,0.00927734375,-1.0670732259750366,0.6097561120986938,0.6097561120986938,3.1500000953674316,1.350000023841858,-10.199999809265137,36.86246109008789,0,
 1072847,-0.337646484375,-0.916015625,0.008056640625,-0.7012194991111755,0.4573170840740204,0.21341463923454285,3.299999952316284,2.700000047683716,-7.800000190734863,36.814537048339844,0,
 1072857,-0.336669921875,-0.921142578125,0.0029296875,-0.4573170840740204,0.6097561120986938,-0.18292683362960815,3.299999952316284,2.25,-8.25,36.86246109008789,0,
 1072867,-0.339111328125,-0.921875,0.00732421875,-0.27439025044441223,0.4268292784690857,0.12195122241973877,3.299999952316284,2.25,-8.25,36.86246109008789,0,
 1072877,-0.341064453125,-0.92138671875,0.0,-0.6097561120986938,0.5792682766914368,0.18292683362960815,3.5999999046325684,1.649999976158142,-9.149999618530273,36.814537048339844,0,
 1072887,-0.340087890625,-0.9150390625,0.010009765625,-0.5792682766914368,0.4878048896789551,0.030487805604934692,3.0,2.25,-10.050000190734863,36.86246109008789,0,
 1072898,-0.336669921875,-0.914794921875,0.002197265625,-0.3658536672592163,0.3353658616542816,0.396341472864151,4.5,2.25,-8.25,37.006229400634766,0,
 1072908,-0.3349609375,-0.919677734375,0.011474609375,-0.8536585569381714,0.3353658616542816,0.060975611209869385,4.5,2.25,-8.25,36.718692779541016,0,
 1072918,-0.340576171875,-0.9150390625,0.00927734375,-0.15243902802467346,0.3353658616542816,0.6097561120986938,3.299999952316284,1.9500000476837158,-8.550000190734863,36.814537048339844,0,
 1072928,-0.338134765625,-0.918212890625,0.00927734375,-0.4268292784690857,0.3048780560493469,0.18292683362960815,2.549999952316284,3.1500000953674316,-10.050000190734863,36.718692779541016,0,
 1072938,-0.33740234375,-0.919189453125,0.003662109375,-0.7012194991111755,0.3353658616542816,0.27439025044441223,2.8499999046325684,0.8999999761581421,-10.649999618530273,37.006229400634766,0,
 1072948,-0.33544921875,-0.921630859375,0.005859375,-0.5792682766914368,0.4268292784690857,0.4268292784690857,2.8499999046325684,2.0999999046325684,-9.899999618530273,36.814537048339844,0,
 1072958,-0.33984375,-0.916259765625,0.004638671875,-0.792682945728302,0.4268292784690857,0.27439025044441223,2.8499999046325684,2.0999999046325684,-9.899999618530273,36.718692779541016,0,
 1072968,-0.33837890625,-0.91748046875,0.0146484375,-0.3048780560493469,0.15243902802467346,0.3658536672592163,2.549999952316284,2.700000047683716,-9.0,36.86246109008789,0,
 1072978,-0.337890625,-0.91552734375,0.00634765625,-0.6097561120986938,0.15243902802467346,0.09146341681480408,4.5,1.9500000476837158,-9.75,37.006229400634766,0,
 1072988,-0.333251953125,-0.9189453125,0.01416015625,-0.5182926654815674,0.3353658616542816,0.15243902802467346,3.75,1.9500000476837158,-7.5,36.814537048339844,0,
 1072998,-0.3388671875,-0.921142578125,0.01025390625,-0.7621951103210449,0.396341472864151,0.060975611209869385,3.75,1.9500000476837158,-7.5,37.006229400634766,0,
 1073008,-0.33837890625,-0.91796875,0.009521484375,-0.4878048896789551,0.3353658616542816,0.27439025044441223,2.0999999046325684,2.0999999046325684,-9.449999809265137,36.67076873779297,0,
 1073018,-0.338623046875,-0.91455078125,0.003173828125,-0.6402438879013062,0.5487805008888245,0.060975611209869385,3.5999999046325684,0.8999999761581421,-9.149999618530273,36.814537048339844,0,
 1073028,-0.33642578125,-0.923583984375,0.006591796875,-0.4573170840740204,0.4573170840740204,0.6097561120986938,1.7999999523162842,2.25,-8.550000190734863,36.91038513183594,0,
 1073038,-0.330322265625,-0.918212890625,0.009521484375,-0.3658536672592163,0.5487805008888245,0.4878048896789551,4.349999904632568,3.299999952316284,-10.949999809265137,36.91038513183594,0,
 1073048,-0.339111328125,-0.914794921875,0.010986328125,-0.4573170840740204,0.060975611209869385,0.4878048896789551,4.349999904632568,3.299999952316284,-10.949999809265137,36.814537048339844,0,
 1073058,-0.343994140625,-0.91259765625,0.005859375,-0.21341463923454285,0.4878048896789551,0.15243902802467346,2.549999952316284,1.5,-8.550000190734863,37.006229400634766,0,
 1073068,-0.33544921875,-0.9140625,0.005615234375,-0.27439025044441223,0.18292683362960815,0.6402438879013062,2.4000000953674316,2.549999952316284,-9.449999809265137,36.86246109008789,0,
 1073078,-0.338623046875,-0.9189453125,0.00341796875,-0.6707317233085632,0.24390244483947754,0.7012194991111755,3.1500000953674316,2.549999952316284,-9.899999618530273,36.86246109008789,0,
 1073088,-0.33837890625,-0.914306640625,0.005859375,-0.4573170840740204,0.3048780560493469,0.7012194991111755,3.1500000953674316,2.549999952316284,-9.899999618530273,36.814537048339844,0,
 1073098,-0.335205078125,-0.91943359375,0.012939453125,-0.6097561120986938,0.3048780560493469,0.3048780560493469,2.8499999046325684,2.8499999046325684,-7.199999809265137,37.05415344238281,0,
 1073108,-0.33935546875,-0.916015625,0.014404296875,-0.6402438879013062,0.3048780560493469,0.27439025044441223,4.5,1.5,-7.800000190734863,36.718692779541016,0,
 1073118,-0.338134765625,-0.92041015625,0.010498046875,-0.4878048896789551,0.3353658616542816,-0.09146341681480408,3.75,1.9500000476837158,-9.300000190734863,36.91038513183594,0,
 1073128,-0.347412109375,-0.9189453125,0.00634765625,-0.6402438879013062,0.27439025044441223,0.0,4.650000095367432,2.0999999046325684,-8.399999618530273,36.91038513183594,0,
 1073138,-0.336669921875,-0.919677734375,0.00634765625,-0.7317073345184326,0.4878048896789551,0.030487805604934692,4.650000095367432,2.0999999046325684,-8.399999618530273,36.86246109008789,0,
 1073148,-0.335693359375,-0.916259765625,0.00634765625,-0.3048780560493469,0.24390244483947754,0.060975611209869385,1.649999976158142,2.549999952316284,-11.399999618530273,36.91038513183594,0,
 1073158,-0.343017578125,-0.911865234375,0.008056640625,-0.7621951103210449,0.24390244483947754,0.21341463923454285,4.5,2.700000047683716,-7.050000190734863,36.814537048339844,0,
 1073168,-0.33642578125,-0.91650390625,0.0048828125,-0.3658536672592163,0.4268292784690857,0.3658536672592163,3.9000000953674316,3.299999952316284,-10.199999809265137,36.718692779541016,0,
 1073178,-0.338134765625,-0.918212890625,0.00439453125,-0.5792682766914368,0.5182926654815674,0.0,3.9000000953674316,3.299999952316284,-10.199999809265137,36.718692779541016,0,
 1073188,-0.33447265625,-0.917236328125,0.011962890625,-0.3353658616542816,0.27439025044441223,0.4878048896789551,2.549999952316284,3.9000000953674316,-9.0,36.86246109008789,0,
 1073198,-0.3369140625,-0.9189453125,0.007568359375,0.030487805604934692,0.3048780560493469,0.7012194991111755,3.5999999046325684,2.8499999046325684,-9.149999618530273,37.006229400634766,0,
 1073208,-0.339111328125,-0.915771484375,0.0078125,-0.18292683362960815,0.24390244483947754,0.3353658616542816,2.549999952316284,1.5,-9.0,36.86246109008789,0,
 1073218,-0.334228515625,-0.91796875,0.010009765625,-0.3048780560493469,0.18292683362960815,0.4878048896789551,3.1500000953674316,3.299999952316284,-8.399999618530273,36.814537048339844,0,
 1073228,-0.34033203125,-0.92236328125,0.00732421875,-0.8841463327407837,0.18292683362960815,0.24390244483947754,3.1500000953674316,3.299999952316284,-8.399999618530273,36.86246109008789,0,
 1073238,-0.33984375,-0.918701171875,0.009521484375,-0.9451219439506531,0.4573170840740204,0.4573170840740204,2.549999952316284,1.5,-9.75,36.86246109008789,0,
 1073248,-0.336181640625,-0.921142578125,0.01171875,-0.5792682766914368,0.5182926654815674,0.21341463923454285,3.75,1.5,-8.25,36.67076873779297,0,
 1073258,-0.3369140625,-0.91455078125,0.009765625,-0.8231707215309143,0.396341472864151,0.3658536672592163,3.0,1.5,-8.550000190734863,36.86246109008789,0,
 1073268,-0.330810546875,-0.91552734375,0.01318359375,-0.09146341681480408,0.12195122241973877,0.4573170840740204,3.0,2.25,-8.25,36.91038513183594,0,
 1073278,-0.339599609375,-0.918212890625,0.011474609375,-0.7012194991111755,0.3658536672592163,0.27439025044441223,3.5999999046325684,1.350000023841858,-8.399999618530273,37.05415344238281,0,
 1073288,-0.34326171875,-0.9189453125,0.00341796875,-0.6097561120986938,0.27439025044441223,0.0,3.5999999046325684,3.299999952316284,-8.699999809265137,36.86246109008789,0,
 1073298,-0.334228515625,-0.9169921875,0.009033203125,-0.4878048896789551,0.24390244483947754,0.6707317233085632,2.8499999046325684,0.44999998807907104,-9.449999809265137,36.67076873779297,0,
 1073308,-0.33642578125,-0.9189453125,0.0078125,-0.4878048896789551,0.396341472864151,0.15243902802467346,4.349999904632568,1.649999976158142,-9.899999618530273,37.006229400634766,0,
 1073318,-0.333740234375,-0.914306640625,0.006103515625,-0.3048780560493469,0.3658536672592163,0.21341463923454285,4.349999904632568,1.649999976158142,-9.899999618530273,37.05415344238281,0,
 1073328,-0.34326171875,-0.916748046875,0.008056640625,-0.3048780560493469,0.3353658616542816,-0.060975611209869385,2.4000000953674316,3.75,-7.199999809265137,37.10207748413086,0,
 1073338,-0.341796875,-0.916259765625,0.009765625,-0.6097561120986938,0.5487805008888245,0.4268292784690857,2.8499999046325684,3.75,-7.650000095367432,36.91038513183594,0,
 1073348,-0.336669921875,-0.91552734375,0.0087890625,-0.7012194991111755,0.3353658616542816,0.060975611209869385,2.0999999046325684,0.15000000596046448,-11.399999618530273,36.57492446899414,0,
 1073358,-0.339111328125,-0.915283203125,0.00439453125,-0.3658536672592163,0.09146341681480408,0.18292683362960815,3.0,2.25,-10.5,36.718692779541016,0,
 1073368,-0.336181640625,-0.919677734375,0.0048828125,-0.4878048896789551,0.3658536672592163,0.0,3.0,2.25,-10.5,36.86246109008789,0,
 1073378,-0.34033203125,-0.921142578125,0.009521484375,-0.5487805008888245,0.18292683362960815,0.18292683362960815,3.5999999046325684,1.649999976158142,-7.650000095367432,36.814537048339844,0,
 1073388,-0.3359375,-0.921875,0.012451171875,-0.396341472864151,0.4878048896789551,0.0,2.8499999046325684,2.8499999046325684,-8.399999618530273,36.814537048339844,0,
 1073398,-0.333740234375,-0.919677734375,0.009033203125,-0.4573170840740204,0.5487805008888245,0.24390244483947754,3.299999952316284,1.9500000476837158,-9.75,36.718692779541016,0,
 1073408,-0.3359375,-0.920166015625,0.010009765625,-0.792682945728302,0.5487805008888245,0.030487805604934692,3.299999952316284,1.9500000476837158,-9.75,36.814537048339844,0,
 1073418,-0.3408203125,-0.9189453125,0.0048828125,-0.6707317233085632,0.4573170840740204,0.21341463923454285,3.1500000953674316,2.549999952316284,-8.399999618530273,37.05415344238281,0,
 1073428,-0.338134765625,-0.9169921875,0.005615234375,-0.27439025044441223,0.3048780560493469,0.4573170840740204,2.0999999046325684,2.8499999046325684,-9.149999618530273,36.814537048339844,0,
 1073438,-0.3388671875,-0.91796875,0.01220703125,-0.3048780560493469,0.030487805604934692,0.4268292784690857,3.0,2.700000047683716,-8.550000190734863,37.05415344238281,0,
 1073448,-0.340087890625,-0.91552734375,0.003173828125,0.030487805604934692,0.396341472864151,0.3353658616542816,4.199999809265137,3.1500000953674316,-11.550000190734863,36.814537048339844,0,
 1073458,-0.3359375,-0.915283203125,0.007568359375,-0.3658536672592163,0.3048780560493469,0.4573170840740204,4.199999809265137,3.1500000953674316,-11.550000190734863,36.86246109008789,0,
 1073468,-0.34033203125,-0.922607421875,0.007080078125,-0.18292683362960815,0.396341472864151,0.24390244483947754,3.0,1.0499999523162842,-8.25,37.006229400634766,0,
 1073478,-0.335205078125,-0.92041015625,0.0107421875,-0.24390244483947754,0.4878048896789551,0.24390244483947754,2.8499999046325684,2.549999952316284,-8.399999618530273,37.006229400634766,0,
 1073488,-0.342529296875,-0.921875,0.0068359375,-0.4573170840740204,0.396341472864151,0.3048780560493469,3.75,2.25,-8.550000190734863,37.006229400634766,0,
 1073498,-0.341796875,-0.918212890625,0.0068359375,-0.3048780560493469,0.4268292784690857,0.3048780560493469,3.75,2.25,-8.550000190734863,36.86246109008789,0,
 1073508,-0.337890625,-0.9189453125,0.013916015625,-0.396341472864151,0.4268292784690857,-0.09146341681480408,2.549999952316284,2.25,-8.25,36.86246109008789,0,
 1073518,-0.3349609375,-0.914794921875,0.00830078125,-0.4878048896789551,0.4268292784690857,-0.18292683362960815,2.8499999046325684,2.549999952316284,-10.649999618530273,36.814537048339844,0,
 1073528,-0.33349609375,-0.921142578125,0.009033203125,-0.8231707215309143,0.4573170840740204,-0.3048780560493469,2.25,2.700000047683716,-8.550000190734863,37.05415344238281,0,
 1073538,-0.3408203125,-0.920166015625,0.0107421875,-0.5792682766914368,0.4878048896789551,0.24390244483947754,5.25,3.1500000953674316,-10.050000190734863,36.67076873779297,0,
 1073548,-0.345703125,-0.9130859375,0.0087890625,-0.4268292784690857,0.6707317233085632,0.24390244483947754,5.25,3.1500000953674316,-10.050000190734863,36.57492446899414,0,
 1073558,-0.339599609375,-0.91455078125,0.009033203125,-0.5487805008888245,0.24390244483947754,0.24390244483947754,3.299999952316284,2.700000047683716,-9.0,37.006229400634766,0,
 1073568,-0.33837890625,-0.91259765625,0.00537109375,-0.12195122241973877,0.21341463923454285,0.5182926654815674,3.1500000953674316,2.8499999046325684,-9.149999618530273,37.006229400634766,0,
 1073578,-0.3388671875,-0.916259765625,0.0068359375,-0.030487805604934692,-0.18292683362960815,0.5182926654815674,4.199999809265137,3.9000000953674316,-7.5,36.86246109008789,0,
 1073588,-0.341064453125,-0.918212890625,0.0107421875,-0.09146341681480408,0.09146341681480408,0.24390244483947754,4.199999809265137,3.9000000953674316,-7.5,37.05415344238281,0,
 1073598,-0.33642578125,-0.92041015625,0.00390625,-0.4573170840740204,0.24390244483947754,0.5182926654815674,3.9000000953674316,2.0999999046325684,-9.149999618530273,36.86246109008789,0,
 1073608,-0.339111328125,-0.91552734375,0.007568359375,-0.4573170840740204,0.15243902802467346,0.5182926654815674,1.7999999523162842,2.25,-8.550000190734863,37.006229400634766,0,
 1073618,-0.34326171875,-0.917724609375,0.0068359375,-0.24390244483947754,0.21341463923454285,0.4878048896789551,3.1500000953674316,2.0999999046325684,-8.399999618530273,36.91038513183594,0,
 1073628,-0.33837890625,-0.919677734375,0.012451171875,-0.5182926654815674,0.18292683362960815,0.5487805008888245,3.299999952316284,1.5,-9.300000190734863,36.91038513183594,0,
 1073638,-0.3330078125,-0.919921875,0.0078125,-0.4268292784690857,0.5182926654815674,0.3048780560493469,3.299999952316284,1.5,-9.300000190734863,36.86246109008789,0,
 1073648,-0.333251953125,-0.9169921875,0.00732421875,-0.3658536672592163,0.4268292784690857,0.5182926654815674,2.549999952316284,2.25,-7.5,37.05415344238281,0,
 1073659,-0.339599609375,-0.91650390625,0.0078125,-0.27439025044441223,0.21341463923454285,0.3353658616542816,2.4000000953674316,1.350000023841858,-7.949999809265137,36.814537048339844,0,
 1073669,-0.340576171875,-0.92236328125,0.009521484375,-0.7621951103210449,0.396341472864151,0.18292683362960815,3.1500000953674316,2.0999999046325684,-8.399999618530273,37.006229400634766,0,
 1073679,-0.336181640625,-0.919921875,0.01025390625,-0.4573170840740204,0.3048780560493469,0.18292683362960815,3.0,1.9500000476837158,-8.25,36.86246109008789,0,
 1073689,-0.333984375,-0.918701171875,0.015625,-0.6402438879013062,0.3658536672592163,0.3048780560493469,3.75,2.700000047683716,-7.800000190734863,36.718692779541016,0,
 1073699,-0.3427734375,-0.916259765625,0.015869140625,-0.5792682766914368,0.3658536672592163,0.030487805604934692,3.75,1.5,-9.300000190734863,36.814537048339844,0,
 1073709,-0.3369140625,-0.91650390625,0.0107421875,-0.7621951103210449,0.24390244483947754,0.030487805604934692,2.549999952316284,3.450000047683716,-11.25,36.91038513183594,0,
 1073719,-0.338134765625,-0.917236328125,0.005859375,-0.6707317233085632,-0.15243902802467346,0.15243902802467346,2.4000000953674316,2.0999999046325684,-9.449999809265137,37.006229400634766,0,
 1073729,-0.33251953125,-0.917724609375,0.0078125,0.0,0.396341472864151,0.27439025044441223,2.4000000953674316,2.0999999046325684,-9.449999809265137,37.006229400634766,0,
 1073739,-0.335693359375,-0.915771484375,0.0068359375,-0.27439025044441223,0.27439025044441223,0.030487805604934692,3.0,1.9500000476837158,-9.300000190734863,36.718692779541016,0,
 1073749,-0.336669921875,-0.9169921875,0.01025390625,-0.8536585569381714,0.5182926654815674,0.15243902802467346,2.8499999046325684,2.0999999046325684,-9.899999618530273,36.91038513183594,0,
 1073759,-0.336669921875,-0.9169921875,0.010498046875,-0.6707317233085632,0.21341463923454285,0.3658536672592163,1.5,0.0,-9.0,36.86246109008789,0,
 1073769,-0.33740234375,-0.921630859375,0.008544921875,-0.5792682766914368,0.5182926654815674,0.4268292784690857,2.549999952316284,2.25,-9.75,36.814537048339844,0,
 1073779,-0.338134765625,-0.91455078125,0.010986328125,-0.3658536672592163,0.15243902802467346,0.3048780560493469,2.549999952316284,2.25,-9.75,36.814537048339844,0,
 1073789,-0.34228515625,-0.919921875,0.006103515625,-0.4878048896789551,0.3353658616542816,0.396341472864151,2.0999999046325684,3.299999952316284,-8.399999618530273,36.57492446899414,0,
 1073799,-0.341796875,-0.9208984375,0.008056640625,-0.396341472864151,0.5182926654815674,0.4573170840740204,2.25,2.25,-9.0,36.814537048339844,0,
 1073809,-0.33642578125,-0.918701171875,0.007568359375,-0.396341472864151,0.15243902802467346,0.24390244483947754,3.9000000953674316,2.0999999046325684,-8.699999809265137,36.86246109008789,0,
 1073819,-0.332763671875,-0.918212890625,0.009765625,-0.24390244483947754,0.3658536672592163,0.4878048896789551,3.9000000953674316,2.0999999046325684,-8.699999809265137,37.006229400634766,0,
 1073829,-0.33544921875,-0.91845703125,0.007080078125,-0.12195122241973877,0.396341472864151,0.4573170840740204,4.349999904632568,2.0999999046325684,-9.149999618530273,37.006229400634766,0,
 1073839,-0.3359375,-0.920654296875,0.0107421875,-0.4268292784690857,0.3048780560493469,0.15243902802467346,3.75,2.700000047683716,-7.800000190734863,36.67076873779297,0,
 1073849,-0.330810546875,-0.916259765625,0.0087890625,-0.5792682766914368,0.4268292784690857,0.15243902802467346,2.549999952316284,2.700000047683716,-9.300000190734863,37.006229400634766,0,
 1073859,-0.331787109375,-0.917236328125,0.0078125,-0.6707317233085632,0.5487805008888245,-0.060975611209869385,5.400000095367432,1.649999976158142,-10.949999809265137,36.86246109008789,0,
 1073869,-0.336181640625,-0.92041015625,0.0087890625,-0.6707317233085632,0.5182926654815674,-0.09146341681480408,5.400000095367432,1.649999976158142,-10.949999809265137,36.91038513183594,0,
 1073879,-0.336669921875,-0.919677734375,0.007568359375,-0.5792682766914368,0.4573170840740204,0.09146341681480408,2.549999952316284,1.0499999523162842,-8.550000190734863,36.814537048339844,0,
 1073889,-0.330322265625,-0.917724609375,0.00634765625,-0.5487805008888245,0.6707317233085632,-0.12195122241973877,2.549999952316284,1.0499999523162842,-9.0,36.814537048339844,0,
 1073899,-0.333251953125,-0.916259765625,0.007568359375,-0.396341472864151,0.5182926654815674,0.18292683362960815,3.299999952316284,2.25,-9.75,36.86246109008789,0,
 1073909,-0.337646484375,-0.916748046875,0.0048828125,-0.4268292784690857,0.5182926654815674,-0.15243902802467346,3.299999952316284,2.25,-9.75,37.006229400634766,0,
 1073919,-0.335693359375,-0.916259765625,0.00537109375,-0.6097561120986938,0.12195122241973877,0.18292683362960815,4.349999904632568,2.0999999046325684,-8.699999809265137,37.05415344238281,0,
 1073929,-0.3369140625,-0.92333984375,0.00927734375,-0.4573170840740204,0.3353658616542816,0.3353658616542816,3.299999952316284,3.1500000953674316,-9.0,37.05415344238281,0,
 1073939,-0.339599609375,-0.9208984375,0.006591796875,0.09146341681480408,0.060975611209869385,0.3658536672592163,1.649999976158142,2.8499999046325684,-7.949999809265137,36.86246109008789,0,
 1073949,-0.336669921875,-0.918212890625,0.00634765625,-0.4573170840740204,0.27439025044441223,0.3048780560493469,4.349999904632568,2.549999952316284,-7.949999809265137,37.05415344238281,0,
 1073959,-0.338623046875,-0.921142578125,0.006103515625,-0.24390244483947754,0.3658536672592163,0.4268292784690857,4.349999904632568,2.549999952316284,-7.949999809265137,37.006229400634766,0,
 1073969,-0.34423828125,-0.916259765625,0.008544921875,-0.4268292784690857,0.060975611209869385,0.4878048896789551,1.7999999523162842,0.30000001192092896,-9.300000190734863,37.05415344238281,0,
 1073979,-0.335205078125,-0.918701171875,0.009033203125,-0.5792682766914368,-0.18292683362960815,0.8536585569381714,1.5,0.75,-9.300000190734863,36.86246109008789,0,
 1073989,-0.332763671875,-0.915771484375,0.010498046875,-0.3658536672592163,0.030487805604934692,0.3353658616542816,2.8499999046325684,3.299999952316284,-8.699999809265137,36.57492446899414,0,
 1073999,-0.332275390625,-0.91943359375,0.00537109375,-0.5182926654815674,0.3658536672592163,0.3048780560493469,2.8499999046325684,3.299999952316284,-8.699999809265137,36.86246109008789,0,
 1074009,-0.338623046875,-0.91650390625,0.006591796875,-0.6097561120986938,0.4268292784690857,0.3658536672592163,2.4000000953674316,1.350000023841858,-7.650000095367432,36.86246109008789,0,
 1074019,-0.33984375,-0.916748046875,0.01171875,-0.7012194991111755,0.3048780560493469,0.18292683362960815,2.25,1.9500000476837158,-7.050000190734863,36.814537048339844,0,
 1074029,-0.33837890625,-0.927001953125,0.015625,-0.24390244483947754,0.5487805008888245,0.0,1.7999999523162842,2.25,-7.800000190734863,37.006229400634766,0,
 1074039,-0.33544921875,-0.922119140625,0.006591796875,-0.5487805008888245,0.09146341681480408,0.5182926654815674,2.549999952316284,2.25,-8.25,36.86246109008789,0,
 1074049,-0.337890625,-0.923583984375,0.0107421875,-0.27439025044441223,0.3048780560493469,0.4878048896789551,2.549999952316284,2.25,-8.25,37.006229400634766,0,
 1074059,-0.34130859375,-0.915771484375,0.007080078125,-0.21341463923454285,0.030487805604934692,0.15243902802467346,3.0,0.75,-10.050000190734863,36.91038513183594,0,
 1074069,-0.33740234375,-0.91650390625,0.009033203125,-0.060975611209869385,0.0,0.27439025044441223,2.8499999046325684,0.8999999761581421,-9.899999618530273,36.86246109008789,0,
 1074079,-0.333740234375,-0.917724609375,0.0107421875,-0.09146341681480408,0.24390244483947754,0.3353658616542816,3.9000000953674316,2.0999999046325684,-8.699999809265137,36.814537048339844,0,
 1074089,-0.33837890625,-0.919189453125,0.0107421875,-0.6402438879013062,0.4878048896789551,0.15243902802467346,3.299999952316284,2.700000047683716,-8.550000190734863,36.67076873779297,0,
 1074099,-0.336669921875,-0.91259765625,0.0107421875,-0.27439025044441223,0.3658536672592163,0.12195122241973877,2.549999952316284,2.25,-9.300000190734863,36.814537048339844,0,
 1074109,-0.333984375,-0.921142578125,0.010009765625,-0.396341472864151,0.4268292784690857,0.3658536672592163,2.8499999046325684,2.0999999046325684,-8.399999618530273,37.006229400634766,0,
 1074119,-0.3427734375,-0.916015625,0.009521484375,-0.5487805008888245,0.4878048896789551,0.09146341681480408,2.549999952316284,2.700000047683716,-9.300000190734863,36.91038513183594,0,
 1074129,-0.342529296875,-0.91552734375,0.0048828125,-0.3658536672592163,0.27439025044441223,0.24390244483947754,2.4000000953674316,2.0999999046325684,-8.699999809265137,36.86246109008789,0,
 1074139,-0.3388671875,-0.9150390625,0.00732421875,-0.24390244483947754,0.15243902802467346,0.4878048896789551,2.4000000953674316,2.0999999046325684,-8.699999809265137,36.67076873779297,0,
 1074149,-0.33984375,-0.9169921875,0.010498046875,-0.396341472864151,0.396341472864151,0.4268292784690857,4.199999809265137,3.1500000953674316,-8.550000190734863,37.05415344238281,0,
 1074159,-0.337158203125,-0.918212890625,0.0048828125,-0.3658536672592163,0.15243902802467346,0.396341472864151,2.4000000953674316,1.649999976158142,-9.449999809265137,37.006229400634766,0,
 1074169,-0.336669921875,-0.9140625,0.010498046875,-0.5792682766914368,0.3048780560493469,0.396341472864151,2.25,1.0499999523162842,-9.300000190734863,36.814537048339844,0,
 1074179,-0.337890625,-0.919677734375,0.0048828125,-0.6402438879013062,0.15243902802467346,0.3048780560493469,2.4000000953674316,3.299999952316284,-9.899999618530273,36.718692779541016,0,
 1074189,-0.3427734375,-0.91943359375,0.01220703125,-0.12195122241973877,0.27439025044441223,0.24390244483947754,2.4000000953674316,3.299999952316284,-9.899999618530273,36.814537048339844,0,
 1074199,-0.337890625,-0.913330078125,0.01318359375,-1.1280487775802612,0.3048780560493469,-0.09146341681480408,1.7999999523162842,3.450000047683716,-9.300000190734863,37.006229400634766,0,
 1074209,-0.337158203125,-0.919921875,0.006591796875,-0.6402438879013062,0.21341463923454285,0.060975611209869385,2.4000000953674316,3.75,-8.399999618530273,36.86246109008789,0,
 1074219,-0.335205078125,-0.916259765625,0.0107421875,-0.5182926654815674,0.396341472864151,0.4268292784690857,3.1500000953674316,1.350000023841858,-9.899999618530273,36.814537048339844,0,
 1074229,-0.338134765625,-0.922119140625,0.00830078125,-0.5792682766914368,0.3353658616542816,-0.030487805604934692,3.1500000953674316,1.350000023841858,-9.899999618530273,36.814537048339844,0,
 1074239,-0.33935546875,-0.91748046875,0.007568359375,-0.8231707215309143,0.5792682766914368,-0.030487805604934692,3.0,2.700000047683716,-9.300000190734863,37.006229400634766,0,
 1074249,-0.33642578125,-0.92333984375,0.005615234375,-0.4573170840740204,0.6097561120986938,0.3353658616542816,1.649999976158142,2.549999952316284,-8.399999618530273,36.814537048339844,0,
 1074259,-0.336181640625,-0.921875,0.007568359375,-0.3353658616542816,0.4878048896789551,0.18292683362960815,2.0999999046325684,2.549999952316284,-7.949999809265137,37.006229400634766,0,
 1074269,-0.340576171875,-0.919189453125,0.00927734375,-0.5182926654815674,0.4878048896789551,0.3353658616542816,5.25,3.1500000953674316,-10.5,36.718692779541016,0,
 1074279,-0.33740234375,-0.909423828125,0.005126953125,-0.4573170840740204,0.4573170840740204,0.27439025044441223,5.25,3.1500000953674316,-10.5,36.67076873779297,0,
 1074289,-0.339111328125,-0.914306640625,0.00830078125,-0.396341472864151,0.24390244483947754,0.15243902802467346,4.199999809265137,3.450000047683716,-9.75,37.006229400634766,0,
 1074299,-0.33447265625,-0.914794921875,0.009765625,-0.18292683362960815,0.3658536672592163,0.3353658616542816,2.549999952316284,3.9000000953674316,-9.300000190734863,37.006229400634766,0,
 1074309,-0.33740234375,-0.9189453125,0.0107421875,-0.396341472864151,0.4573170840740204,0.09146341681480408,2.8499999046325684,1.350000023841858,-8.699999809265137,36.86246109008789,0,
 1074319,-0.3310546875,-0.91796875,0.01123046875,-0.6097561120986938,0.3658536672592163,0.5792682766914368,2.8499999046325684,1.350000023841858,-8.699999809265137,37.006229400634766,0,
 1074329,-0.33740234375,-0.919189453125,0.009765625,-0.5792682766914368,0.5487805008888245,-0.09146341681480408,2.25,1.5,-8.25,36.57492446899414,0,
 1074339,-0.340087890625,-0.91943359375,0.007568359375,-0.4878048896789551,0.4878048896789551,0.0,3.299999952316284,3.1500000953674316,-9.0,36.86246109008789,0,
 1074349,-0.333984375,-0.91796875,0.01025390625,-0.6707317233085632,0.396341472864151,0.030487805604934692,2.4000000953674316,1.350000023841858,-9.149999618530273,36.86246109008789,0,
 1074359,-0.33935546875,-0.922119140625,0.012451171875,-0.5182926654815674,0.5487805008888245,0.12195122241973877,2.0999999046325684,2.0999999046325684,-8.399999618530273,37.006229400634766,0,
 1074370,-0.33447265625,-0.919677734375,0.009765625,-0.6097561120986938,0.4878048896789551,-0.030487805604934692,2.0999999046325684,2.0999999046325684,-8.399999618530273,36.86246109008789,0,
 1074380,-0.334716796875,-0.918701171875,0.00927734375,-0.792682945728302,0.21341463923454285,0.3353658616542816,3.1500000953674316,2.8499999046325684,-8.399999618530273,36.814537048339844,0,
 1074390,-0.3359375,-0.915771484375,0.010986328125,-0.7621951103210449,0.21341463923454285,0.21341463923454285,3.5999999046325684,0.8999999761581421,-9.899999618530273,36.91038513183594,0,
 1074400,-0.33642578125,-0.920654296875,0.008544921875,-0.6707317233085632,0.396341472864151,-0.21341463923454285,3.299999952316284,1.9500000476837158,-9.300000190734863,36.91038513183594,0,
 1074410,-0.33837890625,-0.92333984375,0.0068359375,-0.6707317233085632,0.5792682766914368,0.18292683362960815,3.299999952316284,1.9500000476837158,-9.300000190734863,37.006229400634766,0,
 1074420,-0.336669921875,-0.9189453125,0.009765625,-0.4268292784690857,0.24390244483947754,0.3048780560493469,2.25,1.5,-9.0,36.86246109008789,0,
 1074430,-0.335205078125,-0.91943359375,0.009521484375,-0.6097561120986938,0.18292683362960815,0.3658536672592163,1.2000000476837158,2.549999952316284,-7.949999809265137,36.67076873779297,0,
 1074440,-0.337890625,-0.916259765625,0.007568359375,-0.5487805008888245,0.27439025044441223,0.27439025044441223,2.549999952316284,3.450000047683716,-6.75,37.006229400634766,0,
 1074450,-0.333740234375,-0.920166015625,0.0087890625,-0.5487805008888245,0.3048780560493469,0.5487805008888245,2.25,3.1500000953674316,-8.550000190734863,37.05415344238281,0,
 1074460,-0.339111328125,-0.92138671875,0.00439453125,-0.3353658616542816,0.09146341681480408,0.24390244483947754,2.25,3.1500000953674316,-8.550000190734863,36.814537048339844,0,
 1074470,-0.34375,-0.917724609375,0.0068359375,-0.7012194991111755,0.060975611209869385,0.6097561120986938,2.549999952316284,1.9500000476837158,-9.0,37.006229400634766,0,
 1074480,-0.33837890625,-0.911865234375,0.009765625,-0.6707317233085632,0.4268292784690857,-0.12195122241973877,3.0,2.25,-8.25,36.718692779541016,0,
 1074490,-0.343017578125,-0.918701171875,0.011474609375,-0.27439025044441223,0.09146341681480408,0.15243902802467346,2.4000000953674316,1.350000023841858,-9.449999809265137,37.006229400634766,0,
 1074500,-0.340087890625,-0.91455078125,0.01513671875,-0.5182926654815674,0.3353658616542816,0.3048780560493469,2.4000000953674316,1.350000023841858,-9.449999809265137,36.91038513183594,0,
 1074510,-0.34130859375,-0.92041015625,0.010498046875,-0.4268292784690857,0.3353658616542816,0.27439025044441223,2.4000000953674316,3.299999952316284,-9.149999618530273,36.814537048339844,0,
 1074520,-0.336181640625,-0.9169921875,0.010986328125,-0.3658536672592163,0.060975611209869385,0.5487805008888245,1.649999976158142,0.8999999761581421,-7.199999809265137,37.006229400634766,0,
 1074530,-0.33642578125,-0.923583984375,0.004150390625,-0.5182926654815674,0.060975611209869385,0.18292683362960815,2.0999999046325684,2.549999952316284,-9.149999618530273,36.814537048339844,0,
 1074540,-0.333251953125,-0.921875,0.012451171875,-0.5792682766914368,0.27439025044441223,0.12195122241973877,2.8499999046325684,2.8499999046325684,-8.399999618530273,37.006229400634766,0,
 1074550,-0.345947265625,-0.914794921875,0.012939453125,-0.24390244483947754,0.27439025044441223,0.15243902802467346,2.8499999046325684,2.8499999046325684,-8.399999618530273,37.05415344238281,0,
 1074560,-0.335693359375,-0.91455078125,0.01123046875,-0.3048780560493469,0.3048780560493469,0.18292683362960815,2.4000000953674316,1.649999976158142,-8.399999618530273,36.814537048339844,0,
 1074570,-0.33642578125,-0.921142578125,0.007080078125,-0.3658536672592163,0.3658536672592163,0.18292683362960815,2.8499999046325684,3.75,-10.649999618530273,36.57492446899414,0,
 1074580,-0.33837890625,-0.919189453125,0.0087890625,-0.7012194991111755,0.6097561120986938,-0.060975611209869385,0.15000000596046448,2.0999999046325684,-10.949999809265137,36.91038513183594,0,
 1074590,-0.337158203125,-0.922607421875,0.01025390625,-0.396341472864151,0.24390244483947754,0.5487805008888245,0.75,3.450000047683716,-9.300000190734863,37.006229400634766,0,
 1074600,-0.34033203125,-0.919189453125,0.007568359375,-0.27439025044441223,0.3353658616542816,-0.12195122241973877,0.75,3.450000047683716,-9.300000190734863,36.527000427246094,0,
 1074610,-0.33837890625,-0.920166015625,0.00439453125,-0.27439025044441223,0.27439025044441223,0.24390244483947754,2.8499999046325684,2.549999952316284,-8.699999809265137,36.91038513183594,0,
 1074620,-0.336669921875,-0.9189453125,0.00634765625,-0.4878048896789551,0.12195122241973877,0.3658536672592163,2.25,3.9000000953674316,-10.050000190734863,36.814537048339844,0,
 1074630,-0.33447265625,-0.91845703125,0.015380859375,-0.4268292784690857,0.24390244483947754,0.3658536672592163,4.650000095367432,3.75,-7.949999809265137,37.05415344238281,0,
 1074640,-0.330810546875,-0.923095703125,0.009033203125,-0.21341463923454285,0.18292683362960815,0.5487805008888245,4.650000095367432,3.75,-7.949999809265137,36.86246109008789,0,
 1074650,-0.34130859375,-0.91845703125,0.010009765625,-0.4878048896789551,0.0,0.5182926654815674,2.25,1.9500000476837158,-9.0,36.814537048339844,0,
