timestamp,accl_x,accl_y,accl_z,gyro_x,gyro_y,gyro_z,mag_x,mag_y,mag_z,temp,emg,
 1562540,0.073974609375,-0.926025390625,0.1005859375,1.920731782913208,0.6707317233085632,5.457317352294922,1.5,27.299999237060547,-13.800000190734863,39.11483383178711,0,
 1562550,0.07177734375,-0.945068359375,0.09228515625,0.3658536672592163,1.0670732259750366,5.060975551605225,2.549999952316284,26.850000381469727,-12.75,39.49821853637695,0,
 1562560,0.066162109375,-0.937255859375,0.093994140625,-1.0365853309631348,1.6158536672592163,4.237804889678955,1.7999999523162842,26.850000381469727,-14.25,39.35445022583008,0,
 1562570,0.060546875,-0.94091796875,0.090576171875,-1.0060975551605225,1.3719512224197388,3.8719513416290283,2.0999999046325684,28.649999618530273,-13.949999809265137,39.546142578125,0,
 1562580,0.060302734375,-0.944580078125,0.098388671875,-1.3719512224197388,1.097561001777649,3.0182926654815674,2.0999999046325684,28.649999618530273,-13.949999809265137,39.49821853637695,0,
 1562590,0.052490234375,-0.97998046875,0.09765625,-1.8597561120986938,1.5548781156539917,1.9817073345184326,1.5,26.850000381469727,-14.25,39.2106819152832,0,
 1562600,0.0517578125,-0.990234375,0.098876953125,-1.8902438879013062,0.8231707215309143,0.7317073345184326,3.75,27.299999237060547,-15.0,39.546142578125,0,
 1562610,0.0458984375,-0.99853515625,0.095458984375,-2.7134146690368652,1.3719512224197388,-1.5548781156539917,2.4000000953674316,27.0,-12.449999809265137,39.49821853637695,0,
 1562620,0.04248046875,-0.994140625,0.1015625,-3.2317073345184326,1.5243902206420898,-3.445122003555298,2.4000000953674316,27.0,-12.449999809265137,39.30652618408203,0,
 1562630,0.048095703125,-0.97998046875,0.098876953125,-3.9634146690368652,1.585365891456604,-4.329268455505371,1.5,28.049999237060547,-13.5,39.64198684692383,0,
 1562640,0.06201171875,-0.97802734375,0.08837890625,-4.237804889678955,1.402438998222351,-4.329268455505371,3.5999999046325684,27.450000762939453,-13.199999809265137,39.450294494628906,0,
 1562650,0.070556640625,-0.9814453125,0.082275390625,-3.1097562313079834,1.2195122241973877,-3.5365853309631348,0.8999999761581421,28.649999618530273,-13.649999618530273,39.35445022583008,0,
 1562660,0.07470703125,-0.978759765625,0.078857421875,-2.0731706619262695,0.9756097793579102,-2.22560977935791,0.8999999761581421,28.649999618530273,-13.649999618530273,39.35445022583008,0,
 1562670,0.0791015625,-0.963134765625,0.07861328125,-0.6707317233085632,0.6707317233085632,-0.24390244483947754,3.5999999046325684,26.700000762939453,-13.949999809265137,39.35445022583008,0,
 1562690,0.069091796875,-0.96044921875,0.087646484375,1.5548781156539917,0.24390244483947754,2.987804889678955,3.5999999046325684,29.100000381469727,-13.199999809265137,39.35445022583008,0,
 1562700,0.063232421875,-0.962646484375,0.092041015625,2.195122003555298,-0.12195122241973877,3.7804877758026123,2.8499999046325684,27.0,-13.949999809265137,39.35445022583008,0,
 1562710,0.057861328125,-0.95849609375,0.091552734375,1.4939024448394775,-0.09146341681480408,2.8353660106658936,2.8499999046325684,27.0,-13.949999809265137,39.49821853637695,0,
 1562720,0.0498046875,-0.96484375,0.097900390625,0.7317073345184326,0.060975611209869385,1.402438998222351,1.7999999523162842,28.049999237060547,-13.800000190734863,39.49821853637695,0,
 1562730,0.05126953125,-0.96142578125,0.101806640625,-0.3353658616542816,0.5182926654815674,0.09146341681480408,2.25,28.5,-13.050000190734863,39.30652618408203,0,
 1562740,0.060791015625,-0.96875,0.107421875,-1.8597561120986938,0.5182926654815674,-0.9756097793579102,2.25,29.25,-13.050000190734863,39.35445022583008,0,
 1562750,0.0625,-0.96728515625,0.101318359375,-2.865853786468506,0.6402438879013062,-2.0426828861236572,2.25,29.25,-13.050000190734863,39.35445022583008,0,
 1562760,0.065673828125,-0.960205078125,0.0927734375,-3.7195122241973877,0.792682945728302,-2.6219513416290283,4.650000095367432,28.649999618530273,-13.649999618530273,39.64198684692383,0,
 1562770,0.06787109375,-0.96435546875,0.094482421875,-4.603658676147461,0.5487805008888245,-2.1341464519500732,2.8499999046325684,29.100000381469727,-12.449999809265137,39.64198684692383,0,
 1562780,0.066162109375,-0.95458984375,0.091064453125,-4.420732021331787,0.5487805008888245,-2.012195110321045,3.1500000953674316,28.649999618530273,-13.199999809265137,39.30652618408203,0,
 1562790,0.07373046875,-0.957275390625,0.08544921875,-4.207317352294922,0.396341472864151,-1.0060975551605225,3.1500000953674316,28.649999618530273,-13.199999809265137,39.450294494628906,0,
 1562800,0.067626953125,-0.96240234375,0.08642578125,-3.262195110321045,0.396341472864151,-0.5487805008888245,2.549999952316284,26.850000381469727,-14.25,39.35445022583008,0,
 1562810,0.072021484375,-0.9638671875,0.08154296875,-2.591463565826416,0.6097561120986938,-0.396341472864151,2.8499999046325684,27.899999618530273,-12.899999618530273,39.35445022583008,0,
 1562820,0.065185546875,-0.97216796875,0.078125,-1.7987805604934692,0.7012194991111755,0.12195122241973877,3.0,29.25,-15.0,39.64198684692383,0,
 1562830,0.066162109375,-0.9697265625,0.0888671875,-1.097561001777649,0.7012194991111755,0.27439025044441223,3.0,28.5,-13.050000190734863,39.2106819152832,0,
 1562840,0.062744140625,-0.978759765625,0.088134765625,-0.3353658616542816,0.4573170840740204,0.3048780560493469,3.0,28.5,-13.050000190734863,39.2106819152832,0,
 1562850,0.058349609375,-0.976806640625,0.0908203125,-0.4268292784690857,0.5792682766914368,0.21341463923454285,1.7999999523162842,28.049999237060547,-13.5,39.49821853637695,0,
 1562870,0.0654296875,-0.97607421875,0.092529296875,-0.18292683362960815,0.5487805008888245,0.15243902802467346,2.0999999046325684,29.399999618530273,-13.649999618530273,39.30652618408203,0,
 1562880,0.063720703125,-0.96484375,0.0888671875,0.0,0.5182926654815674,0.12195122241973877,2.0999999046325684,29.399999618530273,-13.649999618530273,39.11483383178711,0,
 1562890,0.06396484375,-0.95751953125,0.08740234375,0.0,0.24390244483947754,0.0,1.7999999523162842,29.25,-12.300000190734863,39.35445022583008,0,
 1562900,0.068359375,-0.962890625,0.090087890625,0.3353658616542816,0.4268292784690857,0.09146341681480408,3.0,28.799999237060547,-13.050000190734863,39.35445022583008,0,
 1562910,0.070556640625,-0.95556640625,0.089599609375,0.4268292784690857,0.6097561120986938,0.12195122241973877,1.2000000476837158,27.0,-13.949999809265137,39.35445022583008,0,
 1562920,0.063720703125,-0.9638671875,0.092041015625,0.12195122241973877,0.5182926654815674,0.4573170840740204,1.2000000476837158,27.0,-13.949999809265137,39.49821853637695,0,
 1562930,0.066650390625,-0.962646484375,0.090087890625,-0.3048780560493469,0.7621951103210449,0.5487805008888245,2.8499999046325684,28.200000762939453,-16.649999618530273,38.971065521240234,0,
 1562940,0.0634765625,-0.968994140625,0.091064453125,-0.5792682766914368,0.7012194991111755,0.21341463923454285,1.5,28.5,-12.300000190734863,39.30652618408203,0,
 1562950,0.061767578125,-0.961181640625,0.08984375,-1.1890244483947754,0.7012194991111755,0.27439025044441223,2.4000000953674316,28.649999618530273,-12.449999809265137,39.546142578125,0,
 1562960,0.063232421875,-0.969482421875,0.08837890625,-0.9756097793579102,0.5487805008888245,-0.060975611209869385,3.1500000953674316,29.100000381469727,-13.949999809265137,39.450294494628906,0,
 1562970,0.062255859375,-0.963623046875,0.08837890625,-0.9756097793579102,0.9451219439506531,-0.12195122241973877,3.1500000953674316,29.100000381469727,-13.949999809265137,39.35445022583008,0,
 1562980,0.063232421875,-0.96728515625,0.08642578125,-0.7317073345184326,0.4268292784690857,-0.27439025044441223,1.0499999523162842,29.25,-13.050000190734863,39.2106819152832,0,
 1562990,0.068359375,-0.9638671875,0.085693359375,-0.4573170840740204,0.6707317233085632,-0.7621951103210449,2.549999952316284,28.049999237060547,-14.25,39.450294494628906,0,
 1563000,0.06298828125,-0.970703125,0.093994140625,-0.4878048896789551,0.8231707215309143,-0.3048780560493469,3.0,26.100000381469727,-13.5,39.2106819152832,0,
 1563010,0.0634765625,-0.968017578125,0.08837890625,-0.030487805604934692,0.7621951103210449,-0.3353658616542816,3.0,26.100000381469727,-13.5,39.450294494628906,0,
 1563020,0.06201171875,-0.966796875,0.08837890625,-0.3658536672592163,0.4878048896789551,-0.030487805604934692,3.9000000953674316,28.200000762939453,-11.699999809265137,39.35445022583008,0,
 1563030,0.064697265625,-0.963134765625,0.086669921875,-0.18292683362960815,0.4573170840740204,-0.060975611209869385,3.75,30.75,-16.799999237060547,39.450294494628906,0,
 1563040,0.06298828125,-0.962890625,0.0869140625,-0.4268292784690857,0.5487805008888245,0.09146341681480408,1.5,29.25,-13.5,39.64198684692383,0,
 1563050,0.0615234375,-0.96533203125,0.0859375,-0.24390244483947754,0.5182926654815674,0.060975611209869385,1.5,29.25,-13.5,39.35445022583008,0,
 1563060,0.062255859375,-0.971435546875,0.09033203125,0.0,0.27439025044441223,0.5792682766914368,2.4000000953674316,28.200000762939453,-13.949999809265137,39.450294494628906,0,
 1563070,0.062255859375,-0.970947265625,0.085205078125,-0.4268292784690857,0.396341472864151,0.396341472864151,1.0499999523162842,28.049999237060547,-13.050000190734863,39.49821853637695,0,
 1563080,0.06640625,-0.96533203125,0.089111328125,-0.18292683362960815,0.3353658616542816,0.12195122241973877,1.5,28.049999237060547,-12.0,39.30652618408203,0,
 1563090,0.065185546875,-0.967529296875,0.08740234375,-0.3658536672592163,0.3658536672592163,0.18292683362960815,2.4000000953674316,27.450000762939453,-12.149999618530273,39.450294494628906,0,
 1563100,0.065673828125,-0.96044921875,0.0888671875,-0.3353658616542816,0.3353658616542816,0.3658536672592163,2.4000000953674316,27.450000762939453,-12.149999618530273,39.49821853637695,0,
 1563110,0.0673828125,-0.970703125,0.089599609375,-0.7317073345184326,0.12195122241973877,0.27439025044441223,1.0499999523162842,26.850000381469727,-12.75,39.35445022583008,0,
 1563120,0.06201171875,-0.96533203125,0.092529296875,-0.8841463327407837,0.396341472864151,0.060975611209869385,1.649999976158142,28.200000762939453,-13.199999809265137,39.2106819152832,0,
 1563130,0.071044921875,-0.96337890625,0.085693359375,-0.6402438879013062,0.3658536672592163,-0.21341463923454285,2.25,28.5,-15.0,39.30652618408203,0,
 1563141,0.064208984375,-0.968505859375,0.083984375,-1.25,0.3048780560493469,0.060975611209869385,2.25,28.5,-15.0,39.450294494628906,0,
 1563151,0.063232421875,-0.966796875,0.087890625,-0.8841463327407837,0.18292683362960815,-0.27439025044441223,3.9000000953674316,28.200000762939453,-12.149999618530273,39.546142578125,0,
 1563161,0.0712890625,-0.96923828125,0.088134765625,-0.792682945728302,0.6402438879013062,0.3353658616542816,2.4000000953674316,28.649999618530273,-12.449999809265137,39.35445022583008,0,
 1563171,0.068603515625,-0.96533203125,0.0908203125,-0.9756097793579102,0.27439025044441223,0.4573170840740204,2.549999952316284,28.049999237060547,-11.550000190734863,39.162757873535156,0,
 1563181,0.06689453125,-0.9697265625,0.0869140625,-1.097561001777649,0.21341463923454285,0.6402438879013062,3.1500000953674316,27.450000762939453,-12.899999618530273,39.35445022583008,0,
 1563191,0.066650390625,-0.962158203125,0.08984375,-0.9146341681480408,0.27439025044441223,0.5487805008888245,1.2000000476837158,28.649999618530273,-12.899999618530273,39.450294494628906,0,
 1563201,0.064697265625,-0.9677734375,0.086181640625,-0.6097561120986938,0.24390244483947754,0.3353658616542816,2.549999952316284,27.600000381469727,-13.5,39.450294494628906,0,
 1563211,0.06201171875,-0.972412109375,0.086181640625,-0.3353658616542816,0.27439025044441223,0.6097561120986938,3.0,27.600000381469727,-12.300000190734863,39.49821853637695,0,
 1563221,0.0595703125,-0.969482421875,0.0859375,-0.5792682766914368,0.12195122241973877,0.4878048896789551,1.5,26.850000381469727,-14.25,39.30652618408203,0,
 1563231,0.06396484375,-0.968994140625,0.08984375,-0.18292683362960815,0.3658536672592163,0.8231707215309143,1.5,26.850000381469727,-14.25,39.2106819152832,0,
 1563241,0.06689453125,-0.966796875,0.095703125,-0.12195122241973877,0.27439025044441223,0.030487805604934692,1.0499999523162842,26.850000381469727,-14.25,39.546142578125,0,
 1563251,0.06591796875,-0.9716796875,0.092041015625,-0.396341472864151,0.5182926654815674,0.3658536672592163,1.7999999523162842,28.049999237060547,-13.5,39.35445022583008,0,
 1563261,0.063232421875,-0.965576171875,0.087890625,-0.5182926654815674,0.4878048896789551,0.4573170840740204,2.0999999046325684,27.450000762939453,-14.699999809265137,39.30652618408203,0,
 1563271,0.071044921875,-0.966552734375,0.085693359375,0.09146341681480408,0.4268292784690857,0.4878048896789551,2.0999999046325684,27.450000762939453,-14.699999809265137,39.35445022583008,0,
 1563281,0.067138671875,-0.96923828125,0.095458984375,-0.12195122241973877,0.3048780560493469,0.792682945728302,1.0499999523162842,27.299999237060547,-13.800000190734863,39.35445022583008,0,
 1563291,0.06103515625,-0.962890625,0.08984375,-0.18292683362960815,0.21341463923454285,0.7621951103210449,3.75,27.600000381469727,-12.0,39.2106819152832,0,
 1563301,0.06591796875,-0.962890625,0.089111328125,0.030487805604934692,0.24390244483947754,0.8841463327407837,3.1500000953674316,28.200000762939453,-13.199999809265137,39.450294494628906,0,
 1563311,0.06494140625,-0.9697265625,0.092529296875,0.060975611209869385,0.030487805604934692,0.4268292784690857,2.4000000953674316,26.25,-12.449999809265137,39.35445022583008,0,
 1563321,0.067138671875,-0.9697265625,0.08740234375,-0.27439025044441223,0.3048780560493469,0.4573170840740204,3.0,28.5,-13.5,39.35445022583008,0,
 1563331,0.059326171875,-0.964599609375,0.093017578125,-0.12195122241973877,0.5792682766914368,0.5182926654815674,2.4000000953674316,28.200000762939453,-12.449999809265137,39.35445022583008,0,
 1563341,0.0615234375,-0.96728515625,0.083984375,0.12195122241973877,0.4878048896789551,0.5487805008888245,1.5,28.049999237060547,-17.549999237060547,39.450294494628906,0,
 1563351,0.064697265625,-0.9638671875,0.08642578125,0.0,0.3353658616542816,0.4573170840740204,1.2000000476837158,28.200000762939453,-13.949999809265137,39.450294494628906,0,
 1563361,0.06884765625,-0.962646484375,0.099609375,-0.3658536672592163,0.3353658616542816,0.24390244483947754,1.2000000476837158,28.200000762939453,-13.949999809265137,39.2106819152832,0,
 1563371,0.0634765625,-0.967529296875,0.089111328125,0.0,0.4268292784690857,0.5487805008888245,1.2000000476837158,28.200000762939453,-12.899999618530273,39.2106819152832,0,
 1563381,0.06494140625,-0.96728515625,0.09130859375,-0.15243902802467346,0.27439025044441223,0.4878048896789551,1.5,28.5,-12.75,39.450294494628906,0,
 1563391,0.0634765625,-0.966552734375,0.08984375,-0.09146341681480408,0.396341472864151,0.24390244483947754,2.549999952316284,29.25,-12.0,39.450294494628906,0,
 1563401,0.064697265625,-0.96826171875,0.09130859375,0.0,0.396341472864151,0.3353658616542816,2.549999952316284,29.25,-12.0,39.49821853637695,0,
 1563411,0.06396484375,-0.964111328125,0.092041015625,0.060975611209869385,0.15243902802467346,0.4268292784690857,1.2000000476837158,27.899999618530273,-12.899999618530273,39.2106819152832,0,
 1563421,0.0634765625,-0.96728515625,0.08984375,-0.21341463923454285,0.4878048896789551,0.15243902802467346,1.649999976158142,28.649999618530273,-12.899999618530273,39.450294494628906,0,
 1563431,0.0625,-0.966064453125,0.08935546875,0.0,-0.060975611209869385,0.24390244483947754,0.8999999761581421,27.899999618530273,-13.949999809265137,39.35445022583008,0,
 1563441,0.06201171875,-0.967529296875,0.089599609375,-0.5792682766914368,0.5182926654815674,0.4878048896789551,3.5999999046325684,27.899999618530273,-16.200000762939453,39.450294494628906,0,
 1563451,0.0654296875,-0.961669921875,0.095947265625,-0.4268292784690857,0.3658536672592163,0.3658536672592163,3.5999999046325684,27.899999618530273,-16.200000762939453,39.64198684692383,0,
 1563461,0.0634765625,-0.96435546875,0.085693359375,-0.4268292784690857,0.5792682766914368,0.3353658616542816,3.9000000953674316,27.899999618530273,-13.649999618530273,39.49821853637695,0,
 1563471,0.064208984375,-0.961181640625,0.088134765625,-0.3658536672592163,0.24390244483947754,0.15243902802467346,1.7999999523162842,28.049999237060547,-12.75,39.2106819152832,0,
 1563481,0.059814453125,-0.963134765625,0.08935546875,-0.060975611209869385,0.4878048896789551,0.24390244483947754,3.1500000953674316,27.899999618530273,-13.649999618530273,39.64198684692383,0,
 1563491,0.06982421875,-0.9697265625,0.08935546875,-0.15243902802467346,0.396341472864151,0.4573170840740204,3.1500000953674316,27.899999618530273,-13.649999618530273,39.49821853637695,0,
 1563501,0.064697265625,-0.966552734375,0.0869140625,-0.3658536672592163,0.5792682766914368,0.3658536672592163,0.75,28.049999237060547,-13.5,39.49821853637695,0,
 1563511,0.064697265625,-0.96533203125,0.09228515625,-0.030487805604934692,0.4268292784690857,0.3658536672592163,2.549999952316284,27.600000381469727,-13.050000190734863,39.546142578125,0,
 1563521,0.068115234375,-0.966796875,0.083740234375,-0.060975611209869385,0.3353658616542816,0.15243902802467346,1.2000000476837158,27.0,-12.899999618530273,39.2106819152832,0,
 1563531,0.06591796875,-0.970703125,0.0888671875,-0.4878048896789551,0.21341463923454285,0.030487805604934692,1.2000000476837158,27.0,-12.899999618530273,39.30652618408203,0,
 1563541,0.064208984375,-0.96240234375,0.0947265625,-0.4878048896789551,0.4268292784690857,-0.060975611209869385,1.0499999523162842,29.700000762939453,-14.25,39.450294494628906,0,
 1563551,0.06298828125,-0.9677734375,0.086669921875,-0.4268292784690857,0.3048780560493469,0.4573170840740204,0.15000000596046448,27.0,-13.649999618530273,39.35445022583008,0,
 1563561,0.06396484375,-0.966552734375,0.08984375,-0.7621951103210449,0.24390244483947754,0.5182926654815674,2.4000000953674316,27.899999618530273,-13.649999618530273,39.30652618408203,0,
 1563571,0.06494140625,-0.968505859375,0.088623046875,-0.792682945728302,0.3658536672592163,0.396341472864151,3.0,28.5,-13.050000190734863,39.30652618408203,0,
 1563581,0.06396484375,-0.9677734375,0.090576171875,-0.4268292784690857,0.27439025044441223,0.4878048896789551,3.0,28.5,-13.050000190734863,39.546142578125,0,
 1563591,0.064697265625,-0.970703125,0.08837890625,-0.5487805008888245,0.396341472864151,0.5487805008888245,1.7999999523162842,28.5,-13.050000190734863,39.30652618408203,0,
 1563601,0.061767578125,-0.9658203125,0.0869140625,-0.4268292784690857,0.4573170840740204,0.21341463923454285,1.5,26.850000381469727,-13.800000190734863,39.2106819152832,0,
 1563611,0.065673828125,-0.969482421875,0.089111328125,-0.3353658616542816,0.3048780560493469,0.6097561120986938,2.8499999046325684,27.0,-13.199999809265137,39.2106819152832,0,
 1563621,0.068115234375,-0.962646484375,0.090576171875,-1.1280487775802612,0.3658536672592163,0.21341463923454285,2.8499999046325684,27.0,-13.199999809265137,39.64198684692383,0,
 1563631,0.06982421875,-0.961669921875,0.086669921875,-0.6097561120986938,0.27439025044441223,0.4268292784690857,2.4000000953674316,27.899999618530273,-13.649999618530273,39.450294494628906,0,
 1563641,0.064697265625,-0.965087890625,0.08984375,-0.9146341681480408,0.21341463923454285,0.060975611209869385,1.5,27.299999237060547,-13.5,39.450294494628906,0,
 1563651,0.066650390625,-0.965576171875,0.0859375,-0.792682945728302,0.3353658616542816,0.060975611209869385,2.25,26.399999618530273,-16.799999237060547,39.450294494628906,0,
 1563661,0.0673828125,-0.963134765625,0.087158203125,-1.0060975551605225,0.396341472864151,0.24390244483947754,2.25,26.399999618530273,-16.799999237060547,39.35445022583008,0,
 1563671,0.06884765625,-0.958251953125,0.088623046875,-0.6707317233085632,0.3353658616542816,0.4268292784690857,1.2000000476837158,28.200000762939453,-15.449999809265137,39.30652618408203,0,
 1563681,0.06298828125,-0.963134765625,0.087890625,-0.7317073345184326,0.396341472864151,0.27439025044441223,1.7999999523162842,28.5,-13.050000190734863,39.450294494628906,0,
 1563691,0.064697265625,-0.969482421875,0.085205078125,-0.12195122241973877,0.4878048896789551,0.18292683362960815,2.4000000953674316,27.0,-12.449999809265137,39.49821853637695,0,
 1563701,0.063232421875,-0.97509765625,0.085693359375,-0.4573170840740204,0.3048780560493469,0.09146341681480408,2.4000000953674316,27.450000762939453,-12.899999618530273,39.689910888671875,0,
 1563711,0.062255859375,-0.96484375,0.08740234375,0.060975611209869385,0.6402438879013062,0.3658536672592163,2.4000000953674316,27.450000762939453,-12.899999618530273,39.2106819152832,0,
 1563721,0.06689453125,-0.9697265625,0.091796875,-0.09146341681480408,0.4268292784690857,0.3048780560493469,1.2000000476837158,27.450000762939453,-12.449999809265137,39.35445022583008,0,
 1563731,0.06884765625,-0.966796875,0.093505859375,-0.3658536672592163,0.4878048896789551,0.6402438879013062,2.4000000953674316,27.899999618530273,-13.649999618530273,39.450294494628906,0,
 1563741,0.06982421875,-0.9638671875,0.093017578125,-0.5182926654815674,0.21341463923454285,0.3658536672592163,3.5999999046325684,26.25,-12.899999618530273,39.450294494628906,0,
 1563751,0.069091796875,-0.966064453125,0.0859375,-0.15243902802467346,0.6097561120986938,0.12195122241973877,3.5999999046325684,26.25,-12.899999618530273,39.49821853637695,0,
 1563761,0.06298828125,-0.96240234375,0.090576171875,-0.18292683362960815,0.6707317233085632,0.5792682766914368,3.0,27.600000381469727,-13.050000190734863,39.30652618408203,0,
 1563771,0.062744140625,-0.964111328125,0.091552734375,-0.8231707215309143,0.4878048896789551,0.5792682766914368,2.4000000953674316,29.399999618530273,-12.899999618530273,39.450294494628906,0,
 1563781,0.066162109375,-0.96484375,0.0859375,-0.3353658616542816,0.09146341681480408,0.3048780560493469,1.649999976158142,27.899999618530273,-12.149999618530273,39.450294494628906,0,
 1563791,0.068359375,-0.96630859375,0.088134765625,-0.24390244483947754,0.396341472864151,0.3353658616542816,1.649999976158142,27.899999618530273,-12.149999618530273,39.450294494628906,0,
 1563801,0.067138671875,-0.967041015625,0.085693359375,-0.12195122241973877,0.18292683362960815,0.6402438879013062,-0.44999998807907104,27.450000762939453,-12.899999618530273,39.64198684692383,0,
 1563811,0.06591796875,-0.9716796875,0.085693359375,-0.5182926654815674,0.3658536672592163,0.7317073345184326,2.549999952316284,27.600000381469727,-12.0,39.30652618408203,0,
 1563821,0.06689453125,-0.9638671875,0.087646484375,-0.4268292784690857,0.6097561120986938,0.3353658616542816,1.2000000476837158,27.0,-12.899999618530273,39.35445022583008,0,
 1563831,0.059814453125,-0.969970703125,0.09033203125,-0.15243902802467346,0.3353658616542816,0.3353658616542816,2.0999999046325684,27.899999618530273,-11.699999809265137,39.689910888671875,0,
 1563841,0.059814453125,-0.961181640625,0.088134765625,-0.09146341681480408,0.3353658616542816,0.5792682766914368,2.0999999046325684,27.899999618530273,-11.699999809265137,39.2106819152832,0,
 1563851,0.06591796875,-0.96533203125,0.090087890625,-0.18292683362960815,0.27439025044441223,0.6097561120986938,4.5,30.450000762939453,-16.5,39.49821853637695,0,
 1563861,0.064697265625,-0.969970703125,0.091552734375,-0.24390244483947754,0.060975611209869385,0.7621951103210449,2.0999999046325684,28.649999618530273,-13.949999809265137,39.30652618408203,0,
 1563871,0.0625,-0.966064453125,0.08984375,-0.12195122241973877,0.396341472864151,0.7012194991111755,1.0499999523162842,28.799999237060547,-13.5,39.35445022583008,0,
 1563881,0.06396484375,-0.96484375,0.088623046875,-0.21341463923454285,0.18292683362960815,0.6707317233085632,1.0499999523162842,28.799999237060547,-13.5,39.450294494628906,0,
 1563891,0.0703125,-0.96435546875,0.092041015625,-0.27439025044441223,0.3353658616542816,0.8536585569381714,2.25,27.600000381469727,-12.75,39.35445022583008,0,
 1563901,0.063232421875,-0.9677734375,0.089111328125,-0.4268292784690857,0.4268292784690857,0.9756097793579102,1.2000000476837158,27.899999618530273,-14.699999809265137,39.2106819152832,0,
 1563911,0.062255859375,-0.96533203125,0.0859375,-0.4878048896789551,0.5792682766914368,0.3353658616542816,1.2000000476837158,28.200000762939453,-13.199999809265137,39.2106819152832,0,
 1563921,0.06005859375,-0.965087890625,0.090576171875,-0.4268292784690857,0.24390244483947754,0.5487805008888245,1.2000000476837158,28.200000762939453,-13.199999809265137,39.450294494628906,0,
 1563931,0.064208984375,-0.970458984375,0.093017578125,-0.3353658616542816,0.27439025044441223,0.4573170840740204,1.5,26.850000381469727,-13.050000190734863,39.49821853637695,0,
 1563941,0.059326171875,-0.969482421875,0.08935546875,-0.27439025044441223,0.4268292784690857,0.5792682766914368,2.25,28.5,-13.5,39.35445022583008,0,
 1563951,0.05859375,-0.962890625,0.08837890625,-0.3353658616542816,0.5487805008888245,0.4878048896789551,1.7999999523162842,30.450000762939453,-15.75,39.35445022583008,0,
 1563961,0.062744140625,-0.967529296875,0.090087890625,-0.792682945728302,0.4268292784690857,0.21341463923454285,2.4000000953674316,27.899999618530273,-12.899999618530273,39.2106819152832,0,
 1563971,0.064697265625,-0.97021484375,0.0908203125,-0.7317073345184326,0.3658536672592163,0.5182926654815674,2.4000000953674316,27.899999618530273,-12.899999618530273,39.2106819152832,0,
 1563982,0.068359375,-0.971923828125,0.09423828125,-0.7317073345184326,0.24390244483947754,0.18292683362960815,2.549999952316284,28.049999237060547,-11.550000190734863,39.49821853637695,0,
 1563992,0.06591796875,-0.96337890625,0.08447265625,-0.792682945728302,0.3658536672592163,0.3048780560493469,1.2000000476837158,27.899999618530273,-13.949999809265137,39.35445022583008,0,
 1564002,0.06689453125,-0.96875,0.085693359375,-0.8536585569381714,0.4268292784690857,0.21341463923454285,2.4000000953674316,27.450000762939453,-13.949999809265137,39.49821853637695,0,
 1564012,0.064453125,-0.965576171875,0.087158203125,-0.8231707215309143,0.4268292784690857,0.21341463923454285,2.4000000953674316,27.450000762939453,-13.949999809265137,39.2106819152832,0,
 1564022,0.06640625,-0.964599609375,0.08740234375,-0.4878048896789551,0.4268292784690857,0.09146341681480408,2.4000000953674316,27.450000762939453,-11.399999618530273,39.30652618408203,0,
 1564032,0.063720703125,-0.971923828125,0.087646484375,-0.5487805008888245,0.24390244483947754,0.4573170840740204,1.7999999523162842,28.5,-14.550000190734863,39.450294494628906,0,
 1564042,0.058349609375,-0.96728515625,0.09228515625,-0.18292683362960815,0.5487805008888245,0.15243902802467346,2.8499999046325684,27.899999618530273,-12.149999618530273,39.49821853637695,0,
 1564052,0.062744140625,-0.966796875,0.092041015625,-0.6707317233085632,0.3048780560493469,0.396341472864151,2.8499999046325684,27.899999618530273,-12.149999618530273,39.450294494628906,0,
 1564062,0.066162109375,-0.968994140625,0.091796875,-0.5182926654815674,0.4878048896789551,0.4268292784690857,2.25,26.850000381469727,-13.800000190734863,39.546142578125,0,
 1564082,0.06591796875,-0.971923828125,0.08837890625,-0.4268292784690857,0.6097561120986938,0.09146341681480408,2.4000000953674316,27.450000762939453,-11.699999809265137,39.546142578125,0,
 1564092,0.06005859375,-0.96630859375,0.088134765625,-0.060975611209869385,0.7012194991111755,0.27439025044441223,2.25,28.049999237060547,-13.5,39.450294494628906,0,
 1564102,0.0615234375,-0.970458984375,0.091796875,-0.396341472864151,0.27439025044441223,0.3353658616542816,2.25,28.049999237060547,-13.5,39.49821853637695,0,
 1564112,0.062255859375,-0.96044921875,0.08837890625,-0.4878048896789551,0.396341472864151,0.030487805604934692,2.549999952316284,28.049999237060547,-14.25,39.35445022583008,0,
 1564122,0.064208984375,-0.970458984375,0.090576171875,-0.15243902802467346,0.5792682766914368,0.4268292784690857,3.299999952316284,27.600000381469727,-12.75,39.49821853637695,0,
 1564132,0.0693359375,-0.969482421875,0.087890625,-0.4573170840740204,0.24390244483947754,0.15243902802467346,2.8499999046325684,27.0,-12.149999618530273,39.64198684692383,0,
 1564142,0.062744140625,-0.970458984375,0.090576171875,-0.27439025044441223,0.5182926654815674,0.3658536672592163,2.8499999046325684,27.0,-12.149999618530273,39.30652618408203,0,
 1564152,0.061767578125,-0.967529296875,0.088623046875,-0.4573170840740204,0.4268292784690857,0.18292683362960815,3.75,27.600000381469727,-12.75,39.450294494628906,0,
 1564162,0.0634765625,-0.967041015625,0.09228515625,-0.3048780560493469,0.5487805008888245,0.3353658616542816,3.5999999046325684,27.899999618530273,-15.899999618530273,39.450294494628906,0,
 1564172,0.066650390625,-0.96728515625,0.086181640625,-0.15243902802467346,0.3658536672592163,0.27439025044441223,2.0999999046325684,27.450000762939453,-11.699999809265137,39.450294494628906,0,
 1564182,0.06396484375,-0.968017578125,0.09130859375,-0.3353658616542816,0.21341463923454285,0.5792682766914368,2.25,28.5,-12.75,39.450294494628906,0,
 1564192,0.06298828125,-0.970703125,0.08837890625,-0.21341463923454285,0.4268292784690857,0.4268292784690857,2.549999952316284,27.600000381469727,-13.800000190734863,39.737831115722656,0,
 1564202,0.066650390625,-0.9609375,0.089111328125,-0.18292683362960815,0.3658536672592163,0.4573170840740204,2.549999952316284,28.049999237060547,-13.050000190734863,39.2106819152832,0,
 1564212,0.068359375,-0.9697265625,0.091552734375,-0.4268292784690857,0.24390244483947754,0.24390244483947754,3.1500000953674316,28.200000762939453,-12.449999809265137,39.450294494628906,0,
 1564222,0.060546875,-0.96533203125,0.09912109375,-0.12195122241973877,0.3048780560493469,0.7317073345184326,3.1500000953674316,28.200000762939453,-13.649999618530273,39.546142578125,0,
 1564232,0.061279296875,-0.9677734375,0.0869140625,-0.3048780560493469,0.18292683362960815,0.6097561120986938,3.1500000953674316,28.200000762939453,-13.649999618530273,39.2106819152832,0,
 1564242,0.067626953125,-0.971435546875,0.08935546875,-1.1585365533828735,0.792682945728302,0.15243902802467346,1.5,27.600000381469727,-13.050000190734863,39.450294494628906,0,
 1564252,0.06640625,-0.9638671875,0.09619140625,-0.9451219439506531,0.27439025044441223,0.4878048896789551,2.4000000953674316,28.649999618530273,-13.649999618530273,39.450294494628906,0,
 1564262,0.065673828125,-0.970947265625,0.0859375,-0.6097561120986938,0.15243902802467346,1.2195122241973877,3.75,28.799999237060547,-17.25,39.35445022583008,0,
 1564272,0.070068359375,-0.96240234375,0.080810546875,-0.9451219439506531,0.5487805008888245,0.6707317233085632,3.75,28.799999237060547,-17.25,39.450294494628906,0,
 1564282,0.057861328125,-0.965087890625,0.093017578125,-0.6402438879013062,0.4878048896789551,0.4878048896789551,0.8999999761581421,28.200000762939453,-12.899999618530273,39.546142578125,0,
 1564292,0.060302734375,-0.964599609375,0.08544921875,0.030487805604934692,0.396341472864151,0.792682945728302,3.1500000953674316,29.100000381469727,-13.949999809265137,39.35445022583008,0,
 1564312,0.060302734375,-0.966796875,0.09033203125,-0.396341472864151,0.5182926654815674,-0.09146341681480408,2.0999999046325684,28.200000762939453,-13.199999809265137,39.35445022583008,0,
 1564322,0.06396484375,-0.96044921875,0.09033203125,-0.3353658616542816,0.4878048896789551,0.27439025044441223,1.5,28.799999237060547,-13.050000190734863,39.49821853637695,0,
 1564332,0.066650390625,-0.963134765625,0.09228515625,-0.27439025044441223,0.4268292784690857,0.4268292784690857,2.25,29.25,-13.5,39.2106819152832,0,
 1564342,0.064697265625,-0.968017578125,0.092529296875,-0.09146341681480408,0.4268292784690857,0.3048780560493469,0.30000001192092896,27.299999237060547,-12.75,39.450294494628906,0,
 1564352,0.060791015625,-0.964599609375,0.08642578125,-0.5487805008888245,0.396341472864151,0.4268292784690857,1.2000000476837158,28.649999618530273,-13.199999809265137,39.450294494628906,0,
 1564362,0.064697265625,-0.96533203125,0.0869140625,-0.3658536672592163,0.6097561120986938,-0.09146341681480408,1.2000000476837158,28.649999618530273,-13.199999809265137,39.49821853637695,0,
 1564372,0.05908203125,-0.963623046875,0.08740234375,-0.030487805604934692,0.21341463923454285,0.24390244483947754,2.0999999046325684,27.899999618530273,-13.199999809265137,39.35445022583008,0,
 1564382,0.062744140625,-0.967041015625,0.09375,-0.24390244483947754,0.4573170840740204,-0.3353658616542816,2.8499999046325684,29.100000381469727,-12.149999618530273,39.35445022583008,0,
 1564392,0.064453125,-0.96875,0.0869140625,-0.396341472864151,0.4878048896789551,-0.3353658616542816,2.25,28.5,-13.050000190734863,39.49821853637695,0,
 1564402,0.051513671875,-0.931884765625,0.085693359375,-0.21341463923454285,0.5792682766914368,0.0,2.25,28.5,-13.050000190734863,39.162757873535156,0,
 1564412,0.041259765625,-0.767333984375,-0.03515625,-1.1280487775802612,0.09146341681480408,-3.262195110321045,2.0999999046325684,27.0,-13.649999618530273,39.450294494628906,0,
 1564422,0.0419921875,-0.831787109375,0.138916015625,7.195122241973877,3.170731782913208,-15.731707572937012,2.8499999046325684,28.200000762939453,-13.649999618530273,39.450294494628906,0,
 1564432,0.102294921875,-1.166748046875,0.282470703125,8.87195110321045,1.1280487775802612,-20.2439022064209,2.549999952316284,27.299999237060547,-13.5,39.35445022583008,0,
 1564442,0.146240234375,-1.097900390625,0.235107421875,-8.47560977935791,-0.18292683362960815,-6.097560882568359,2.25,28.5,-13.050000190734863,39.546142578125,0,
 1564452,0.037841796875,-1.187255859375,0.12841796875,-19.024391174316406,-1.3719512224197388,7.896341800689697,1.0499999523162842,28.5,-12.300000190734863,39.2106819152832,0,
 1564462,-0.00341796875,-0.9853515625,-0.00341796875,-26.676830291748047,0.8536585569381714,10.884146690368652,1.2000000476837158,28.200000762939453,-12.899999618530273,39.35445022583008,0,
 1564492,0.038330078125,-0.919921875,0.02734375,3.3841464519500732,0.7621951103210449,-0.21341463923454285,2.4000000953674316,28.649999618530273,-12.449999809265137,39.450294494628906,0,
 1564502,0.071044921875,-0.95361328125,0.063232421875,12.195121765136719,-0.9146341681480408,-1.4939024448394775,3.1500000953674316,27.450000762939453,-12.449999809265137,39.450294494628906,0,
 1564512,0.060302734375,-0.99072265625,0.09033203125,12.195121765136719,-1.25,-0.7621951103210449,2.0999999046325684,28.649999618530273,-12.899999618530273,39.64198684692383,0,
 1564532,0.082275390625,-0.97900390625,0.13720703125,7.652439117431641,-0.4573170840740204,-1.5548781156539917,1.649999976158142,28.200000762939453,-11.399999618530273,39.35445022583008,0,
 1564542,0.08349609375,-0.9609375,0.136474609375,-1.2195122241973877,0.12195122241973877,2.22560977935791,0.44999998807907104,26.700000762939453,-13.199999809265137,39.2106819152832,0,
 1564552,0.086669921875,-0.921142578125,0.119140625,-4.6646342277526855,0.27439025044441223,4.237804889678955,2.25,27.299999237060547,-13.050000190734863,39.2106819152832,0,
 1564562,0.082763671875,-0.91748046875,0.100830078125,-5.365853786468506,0.7621951103210449,4.786585330963135,0.44999998807907104,28.200000762939453,-13.949999809265137,39.546142578125,0,
 1564572,0.06201171875,-0.935302734375,0.07666015625,-5.762195110321045,1.3719512224197388,3.1097562313079834,3.299999952316284,27.299999237060547,-16.049999237060547,39.49821853637695,0,
 1564582,0.063232421875,-0.927978515625,0.0625,-4.5731706619262695,1.402438998222351,1.5243902206420898,3.299999952316284,28.5,-12.300000190734863,39.450294494628906,0,
 1564592,0.06103515625,-0.958251953125,0.086181640625,-2.9573171138763428,1.25,0.8231707215309143,3.299999952316284,28.799999237060547,-14.550000190734863,39.30652618408203,0,
 1564602,0.0546875,-0.9638671875,0.0791015625,-2.22560977935791,0.9451219439506531,-0.12195122241973877,2.25,28.049999237060547,-13.800000190734863,39.35445022583008,0,
 1564612,0.0517578125,-0.984130859375,0.090576171875,-2.0426828861236572,0.7012194991111755,-1.432926893234253,1.5,28.5,-13.050000190734863,39.35445022583008,0,
 1564622,0.056396484375,-1.005126953125,0.087158203125,-2.5304877758026123,0.7621951103210449,-2.195122003555298,1.5,28.5,-13.050000190734863,39.689910888671875,0,
 1564632,0.054443359375,-1.0087890625,0.09423828125,-3.0487804412841797,0.7317073345184326,-3.2926828861236572,1.0499999523162842,28.5,-13.050000190734863,39.450294494628906,0,
 1564642,0.056884765625,-0.99658203125,0.0869140625,-3.2317073345184326,0.9451219439506531,-3.2926828861236572,3.0,27.600000381469727,-12.75,39.30652618408203,0,
 1564652,0.058349609375,-0.97412109375,0.0791015625,-1.6463414430618286,0.4878048896789551,-2.22560977935791,2.25,28.049999237060547,-11.550000190734863,39.49821853637695,0,
 1564662,0.071044921875,-0.975830078125,0.080322265625,-0.18292683362960815,0.4268292784690857,-1.0365853309631348,2.25,28.049999237060547,-11.550000190734863,39.35445022583008,0,
 1564672,0.076171875,-0.97021484375,0.075439453125,1.737804889678955,0.3353658616542816,-0.27439025044441223,2.4000000953674316,28.649999618530273,-15.449999809265137,39.30652618408203,0,
 1564682,0.07958984375,-0.966552734375,0.068115234375,3.5060975551605225,0.27439025044441223,1.0670732259750366,2.4000000953674316,29.399999618530273,-13.649999618530273,39.450294494628906,0,
 1564692,0.085205078125,-0.965576171875,0.079345703125,4.878048896789551,0.21341463923454285,2.5609755516052246,0.8999999761581421,28.649999618530273,-13.199999809265137,39.30652618408203,0,
 1564702,0.065673828125,-0.963623046875,0.091064453125,5.396341800689697,0.21341463923454285,3.5365853309631348,1.0499999523162842,27.600000381469727,-13.800000190734863,39.35445022583008,0,
 1564712,0.06884765625,-0.968994140625,0.09814453125,4.939024448394775,-0.12195122241973877,4.420732021331787,1.7999999523162842,28.049999237060547,-13.5,39.35445022583008,0,
 1564722,0.059326171875,-0.966552734375,0.092041015625,4.359755992889404,0.060975611209869385,3.353658676147461,2.8499999046325684,27.899999618530273,-13.949999809265137,39.49821853637695,0,
 1564732,0.06201171875,-0.961181640625,0.088623046875,3.3231709003448486,-0.060975611209869385,2.2560975551605225,2.25,28.799999237060547,-13.5,39.30652618408203,0,
 1564742,0.05419921875,-0.95703125,0.09912109375,2.2865853309631348,0.21341463923454285,1.1280487775802612,1.0499999523162842,29.25,-11.550000190734863,39.30652618408203,0,
 1564752,0.056640625,-0.955322265625,0.10400390625,1.0060975551605225,0.24390244483947754,0.4573170840740204,1.0499999523162842,29.25,-11.550000190734863,39.35445022583008,0,
 1564762,0.064208984375,-0.96435546875,0.09716796875,-0.060975611209869385,0.4878048896789551,-0.21341463923454285,0.30000001192092896,27.299999237060547,-13.050000190734863,39.450294494628906,0,
 1564773,0.069580078125,-0.965576171875,0.096923828125,-1.0365853309631348,0.792682945728302,-0.7317073345184326,4.199999809265137,30.450000762939453,-14.25,39.35445022583008,0,
 1564783,0.070556640625,-0.962890625,0.09814453125,-1.585365891456604,0.7317073345184326,-1.3109756708145142,2.0999999046325684,27.450000762939453,-13.199999809265137,39.35445022583008,0,
 1564793,0.072998046875,-0.9599609375,0.09521484375,-2.0426828861236572,0.8841463327407837,-1.2804877758026123,2.0999999046325684,27.450000762939453,-13.199999809265137,39.30652618408203,0,
 1564803,0.072265625,-0.95947265625,0.09033203125,-2.2560975551605225,0.5792682766914368,-0.7621951103210449,2.8499999046325684,28.200000762939453,-12.899999618530273,39.64198684692383,0,
 1564813,0.0673828125,-0.970947265625,0.091552734375,-2.2560975551605225,0.792682945728302,-0.6402438879013062,1.0499999523162842,26.399999618530273,-13.800000190734863,39.30652618408203,0,
 1564823,0.068359375,-0.967041015625,0.08935546875,-1.920731782913208,0.6707317233085632,-0.21341463923454285,2.25,28.049999237060547,-13.050000190734863,39.2106819152832,0,
 1564843,0.066162109375,-0.972412109375,0.09033203125,-1.8902438879013062,0.6402438879013062,0.7317073345184326,2.549999952316284,29.25,-13.800000190734863,39.450294494628906,0,
 1564853,0.0625,-0.9736328125,0.087646484375,-1.2195122241973877,0.3048780560493469,0.7621951103210449,1.5,27.299999237060547,-13.050000190734863,39.49821853637695,0,
 1564863,0.05859375,-0.966064453125,0.092041015625,-1.2804877758026123,0.4268292784690857,0.4573170840740204,2.0999999046325684,27.899999618530273,-13.199999809265137,39.35445022583008,0,
 1564873,0.05859375,-0.97216796875,0.092529296875,-1.2804877758026123,0.4878048896789551,0.21341463923454285,2.4000000953674316,29.399999618530273,-15.149999618530273,39.450294494628906,0,
 1564883,0.0673828125,-0.96875,0.09326171875,-1.1585365533828735,0.4878048896789551,0.21341463923454285,2.4000000953674316,29.399999618530273,-15.149999618530273,39.35445022583008,0,
 1564893,0.06982421875,-0.966552734375,0.090087890625,-0.8536585569381714,0.3658536672592163,0.3658536672592163,1.7999999523162842,26.850000381469727,-13.5,39.30652618408203,0,
 1564903,0.06689453125,-0.9658203125,0.08984375,-1.2195122241973877,0.4878048896789551,0.4268292784690857,2.0999999046325684,28.200000762939453,-12.899999618530273,39.30652618408203,0,
 1564913,0.069091796875,-0.963623046875,0.0888671875,-1.5548781156539917,0.4573170840740204,-0.030487805604934692,2.4000000953674316,29.399999618530273,-13.949999809265137,39.49821853637695,0,
 1564923,0.0712890625,-0.959716796875,0.086181640625,-1.1585365533828735,0.4268292784690857,0.060975611209869385,2.4000000953674316,29.399999618530273,-13.949999809265137,39.450294494628906,0,
 1564933,0.06494140625,-0.96240234375,0.08984375,-1.402438998222351,0.5182926654815674,0.27439025044441223,1.5,27.600000381469727,-13.050000190734863,39.450294494628906,0,
 1564943,0.06298828125,-0.95849609375,0.0849609375,-1.4939024448394775,0.396341472864151,0.060975611209869385,3.1500000953674316,28.649999618530273,-12.449999809265137,38.971065521240234,0,
 1564953,0.06787109375,-0.9619140625,0.087890625,-1.3109756708145142,0.7317073345184326,0.060975611209869385,2.4000000953674316,26.700000762939453,-14.399999618530273,39.450294494628906,0,
 1564963,0.072265625,-0.9658203125,0.0859375,-1.585365891456604,0.5182926654815674,-0.09146341681480408,1.7999999523162842,28.799999237060547,-13.800000190734863,39.35445022583008,0,
 1564973,0.0625,-0.970703125,0.087890625,-1.7073171138763428,0.6402438879013062,-0.15243902802467346,1.7999999523162842,28.799999237060547,-13.800000190734863,39.35445022583008,0,
 1564983,0.068115234375,-0.9677734375,0.089599609375,-2.195122003555298,0.6097561120986938,-0.4573170840740204,1.7999999523162842,26.850000381469727,-13.5,39.2106819152832,0,
 1564993,0.064453125,-0.966552734375,0.0888671875,-1.8292683362960815,0.5182926654815674,-0.5792682766914368,2.4000000953674316,29.850000381469727,-13.949999809265137,39.35445022583008,0,
 1565003,0.0654296875,-0.96728515625,0.08740234375,-1.6158536672592163,0.7012194991111755,-0.396341472864151,1.0499999523162842,28.5,-13.050000190734863,39.35445022583008,0,
 1565013,0.06982421875,-0.961181640625,0.08203125,-1.737804889678955,0.8231707215309143,0.0,1.0499999523162842,28.5,-13.050000190734863,39.450294494628906,0,
 1565023,0.063232421875,-0.967041015625,0.091552734375,-0.8536585569381714,0.4573170840740204,0.030487805604934692,2.8499999046325684,27.450000762939453,-13.649999618530273,39.546142578125,0,
 1565043,0.065673828125,-0.966064453125,0.08447265625,-0.6402438879013062,0.5182926654815674,0.4573170840740204,1.0499999523162842,28.5,-13.800000190734863,39.35445022583008,0,
 1565053,0.072509765625,-0.970947265625,0.086669921875,-0.4268292784690857,0.4878048896789551,0.21341463923454285,1.0499999523162842,28.5,-13.800000190734863,39.450294494628906,0,
 1565063,0.064453125,-0.96923828125,0.085693359375,-0.6097561120986938,0.5182926654815674,-0.21341463923454285,2.25,26.850000381469727,-13.800000190734863,39.450294494628906,0,
 1565073,0.0712890625,-0.965576171875,0.082275390625,-0.396341472864151,0.4268292784690857,0.3658536672592163,1.649999976158142,29.399999618530273,-13.199999809265137,39.49821853637695,0,
 1565083,0.061279296875,-0.964111328125,0.0849609375,-0.4573170840740204,0.4268292784690857,0.24390244483947754,2.25,28.799999237060547,-17.25,39.01898956298828,0,
 1565103,0.0732421875,-0.963134765625,0.090087890625,-0.4878048896789551,0.6097561120986938,0.21341463923454285,0.30000001192092896,27.600000381469727,-12.300000190734863,39.35445022583008,0,
 1565113,0.063720703125,-0.96337890625,0.084716796875,-0.8536585569381714,0.6402438879013062,0.21341463923454285,2.8499999046325684,28.200000762939453,-13.649999618530273,39.35445022583008,0,
 1565123,0.066162109375,-0.966552734375,0.084228515625,-0.4268292784690857,0.3353658616542816,0.18292683362960815,0.8999999761581421,27.0,-13.199999809265137,39.546142578125,0,
 1565133,0.066650390625,-0.968017578125,0.08447265625,-0.6402438879013062,0.7012194991111755,0.396341472864151,0.30000001192092896,28.799999237060547,-13.050000190734863,39.162757873535156,0,
 1565143,0.06689453125,-0.96337890625,0.082275390625,-0.8231707215309143,0.5792682766914368,0.3658536672592163,0.30000001192092896,28.799999237060547,-13.050000190734863,39.450294494628906,0,
 1565153,0.065673828125,-0.962890625,0.0849609375,-0.4878048896789551,0.5792682766914368,0.12195122241973877,2.549999952316284,27.299999237060547,-12.300000190734863,39.546142578125,0,
 1565163,0.06640625,-0.964111328125,0.08251953125,-0.12195122241973877,0.6707317233085632,0.396341472864151,2.25,28.5,-13.050000190734863,39.64198684692383,0,
 1565173,0.064453125,-0.961669921875,0.084228515625,-0.3048780560493469,0.4573170840740204,0.27439025044441223,1.0499999523162842,28.049999237060547,-13.050000190734863,39.49821853637695,0,
 1565183,0.06591796875,-0.963623046875,0.087890625,-0.4573170840740204,0.4573170840740204,0.5487805008888245,1.0499999523162842,28.049999237060547,-13.050000190734863,39.35445022583008,0,
 1565193,0.063232421875,-0.970703125,0.0830078125,-0.24390244483947754,0.4878048896789551,0.3353658616542816,0.75,26.850000381469727,-13.050000190734863,39.35445022583008,0,
 1565203,0.066162109375,-0.96875,0.081298828125,-0.5182926654815674,0.3658536672592163,0.21341463923454285,2.25,28.5,-12.300000190734863,39.30652618408203,0,
 1565213,0.067138671875,-0.964111328125,0.087646484375,-0.3658536672592163,0.12195122241973877,0.18292683362960815,2.0999999046325684,29.399999618530273,-13.199999809265137,39.546142578125,0,
 1565223,0.063232421875,-0.965087890625,0.0888671875,-0.7621951103210449,0.7317073345184326,0.060975611209869385,2.4000000953674316,28.200000762939453,-14.399999618530273,39.35445022583008,0,
 1565233,0.068359375,-0.965576171875,0.085693359375,-0.7317073345184326,0.5487805008888245,0.15243902802467346,2.4000000953674316,28.200000762939453,-14.399999618530273,39.2106819152832,0,
 1565243,0.068603515625,-0.96630859375,0.086181640625,-0.6097561120986938,0.5792682766914368,0.6707317233085632,2.25,28.5,-14.550000190734863,39.49821853637695,0,
 1565253,0.068359375,-0.967041015625,0.08447265625,-0.6402438879013062,0.12195122241973877,0.5487805008888245,2.549999952316284,26.850000381469727,-12.75,39.35445022583008,0,
 1565263,0.06494140625,-0.9677734375,0.083740234375,-0.5487805008888245,0.4878048896789551,0.5792682766914368,2.8499999046325684,27.450000762939453,-12.899999618530273,39.2106819152832,0,
 1565273,0.0693359375,-0.964599609375,0.09033203125,-0.8231707215309143,0.4878048896789551,0.7012194991111755,2.8499999046325684,27.450000762939453,-12.899999618530273,39.450294494628906,0,
 1565283,0.06787109375,-0.9697265625,0.090576171875,-0.5792682766914368,0.5487805008888245,0.4878048896789551,1.7999999523162842,28.799999237060547,-14.550000190734863,39.30652618408203,0,
 1565293,0.0673828125,-0.968505859375,0.087646484375,-0.7317073345184326,0.27439025044441223,0.060975611209869385,2.0999999046325684,28.200000762939453,-12.899999618530273,39.2106819152832,0,
 1565303,0.0625,-0.9638671875,0.084228515625,-0.792682945728302,0.4268292784690857,0.24390244483947754,-0.44999998807907104,27.899999618530273,-13.199999809265137,39.35445022583008,0,
 1565313,0.06640625,-0.968017578125,0.090087890625,-0.8536585569381714,0.3353658616542816,0.0,-0.44999998807907104,27.899999618530273,-13.199999809265137,39.546142578125,0,
 1565323,0.0693359375,-0.968994140625,0.084228515625,-0.7317073345184326,0.3048780560493469,0.4268292784690857,2.4000000953674316,28.649999618530273,-12.899999618530273,39.450294494628906,0,
 1565333,0.068115234375,-0.96875,0.0859375,-1.0365853309631348,0.792682945728302,0.030487805604934692,1.0499999523162842,28.799999237060547,-13.5,39.30652618408203,0,
 1565343,0.065673828125,-0.9638671875,0.083984375,-0.6707317233085632,0.5182926654815674,0.4268292784690857,0.8999999761581421,27.0,-12.149999618530273,39.2106819152832,0,
 1565353,0.072265625,-0.97021484375,0.0859375,-0.9146341681480408,0.4878048896789551,0.21341463923454285,1.649999976158142,27.899999618530273,-13.199999809265137,39.49821853637695,0,
 1565363,0.064208984375,-0.973388671875,0.084716796875,-0.4268292784690857,0.792682945728302,0.3353658616542816,1.649999976158142,27.899999618530273,-13.199999809265137,39.450294494628906,0,
 1565373,0.069580078125,-0.97265625,0.084716796875,-0.396341472864151,0.5792682766914368,0.5792682766914368,3.0,29.700000762939453,-13.050000190734863,39.546142578125,0,
 1565383,0.060546875,-0.9716796875,0.08447265625,-0.5487805008888245,0.3048780560493469,0.24390244483947754,2.0999999046325684,26.700000762939453,-12.449999809265137,39.11483383178711,0,
 1565393,0.068115234375,-0.970703125,0.0849609375,-0.5792682766914368,0.3353658616542816,0.5182926654815674,1.0499999523162842,26.850000381469727,-16.5,39.49821853637695,0,
 1565403,0.065185546875,-0.966796875,0.08154296875,-0.12195122241973877,0.21341463923454285,0.3658536672592163,1.0499999523162842,26.850000381469727,-16.5,39.450294494628906,0,
 1565413,0.0625,-0.96484375,0.0849609375,-0.24390244483947754,0.3048780560493469,0.18292683362960815,2.0999999046325684,27.899999618530273,-11.399999618530273,39.2106819152832,0,
 1565423,0.06640625,-0.971435546875,0.086181640625,-0.4878048896789551,0.27439025044441223,0.396341472864151,1.7999999523162842,27.299999237060547,-12.0,39.450294494628906,0,
 1565433,0.069580078125,-0.970947265625,0.08642578125,0.12195122241973877,0.24390244483947754,0.6707317233085632,3.1500000953674316,29.399999618530273,-12.899999618530273,39.546142578125,0,
 1565443,0.06640625,-0.96728515625,0.089111328125,-0.12195122241973877,0.3353658616542816,0.8536585569381714,3.1500000953674316,29.399999618530273,-12.899999618530273,39.546142578125,0,
 1565453,0.065185546875,-0.96923828125,0.08642578125,-0.4878048896789551,0.3658536672592163,0.18292683362960815,1.5,28.049999237060547,-14.550000190734863,39.450294494628906,0,
 1565463,0.064208984375,-0.966796875,0.080322265625,-0.6707317233085632,0.4268292784690857,0.3658536672592163,1.2000000476837158,27.450000762939453,-12.899999618530273,39.49821853637695,0,
 1565473,0.0634765625,-0.96435546875,0.0859375,-0.3353658616542816,0.3048780560493469,0.4268292784690857,0.75,26.850000381469727,-11.550000190734863,39.01898956298828,0,
 1565483,0.0654296875,-0.96240234375,0.0830078125,0.0,0.4573170840740204,0.030487805604934692,3.0,28.049999237060547,-11.550000190734863,39.49821853637695,0,
 1565493,0.064697265625,-0.966796875,0.084716796875,-0.09146341681480408,0.5182926654815674,0.27439025044441223,3.0,28.049999237060547,-11.550000190734863,39.546142578125,0,
 1565504,0.06982421875,-0.973876953125,0.082275390625,-0.24390244483947754,0.5487805008888245,0.396341472864151,3.0,26.850000381469727,-12.75,39.2106819152832,0,
 1565514,0.064208984375,-0.97216796875,0.08544921875,-0.4878048896789551,0.3353658616542816,0.3353658616542816,3.0,27.600000381469727,-12.75,39.35445022583008,0,
 1565524,0.063720703125,-0.965087890625,0.087646484375,-0.3353658616542816,0.4878048896789551,0.5487805008888245,2.8499999046325684,28.200000762939453,-13.949999809265137,39.35445022583008,0,
 1565534,0.062744140625,-0.96630859375,0.094482421875,-0.6097561120986938,0.5182926654815674,0.7317073345184326,2.8499999046325684,28.200000762939453,-13.949999809265137,39.49821853637695,0,
 1565544,0.070556640625,-0.96337890625,0.085693359375,-0.4573170840740204,0.3658536672592163,0.6402438879013062,0.8999999761581421,27.899999618530273,-12.899999618530273,39.450294494628906,0,
 1565554,0.06982421875,-0.963134765625,0.087646484375,0.0,0.4268292784690857,0.27439025044441223,2.4000000953674316,27.450000762939453,-12.899999618530273,39.35445022583008,0,
 1565564,0.067626953125,-0.96533203125,0.08544921875,-0.6097561120986938,0.27439025044441223,0.27439025044441223,2.25,28.799999237060547,-12.75,39.450294494628906,0,
 1565574,0.067138671875,-0.9716796875,0.089111328125,-0.27439025044441223,0.09146341681480408,0.3658536672592163,2.25,28.799999237060547,-12.75,39.2106819152832,0,
 1565584,0.065185546875,-0.9609375,0.088134765625,-0.24390244483947754,0.27439025044441223,0.4878048896789551,2.0999999046325684,27.899999618530273,-12.449999809265137,39.546142578125,0,
 1565594,0.069091796875,-0.9658203125,0.087646484375,-0.3048780560493469,0.21341463923454285,0.6402438879013062,3.0,28.799999237060547,-16.049999237060547,39.30652618408203,0,
 1565604,0.06689453125,-0.965576171875,0.085205078125,-0.7012194991111755,0.3353658616542816,0.3048780560493469,1.2000000476837158,27.899999618530273,-13.649999618530273,39.35445022583008,0,
 1565614,0.063720703125,-0.9697265625,0.093994140625,-0.27439025044441223,0.6402438879013062,0.5487805008888245,-0.15000000596046448,28.200000762939453,-12.899999618530273,39.450294494628906,0,
 1565624,0.064208984375,-0.964599609375,0.085693359375,-0.3048780560493469,0.6707317233085632,0.15243902802467346,-0.15000000596046448,28.200000762939453,-12.899999618530273,39.2106819152832,0,
 1565634,0.06396484375,-0.964111328125,0.08740234375,-0.12195122241973877,0.396341472864151,0.15243902802467346,2.4000000953674316,27.0,-13.949999809265137,39.546142578125,0,
 1565644,0.068603515625,-0.96826171875,0.0859375,-0.4878048896789551,0.21341463923454285,0.3658536672592163,1.2000000476837158,30.299999237060547,-13.199999809265137,39.450294494628906,0,
 1565654,0.06298828125,-0.968994140625,0.08984375,-0.4268292784690857,0.3048780560493469,0.27439025044441223,2.8499999046325684,28.649999618530273,-12.899999618530273,39.49821853637695,0,
 1565664,0.06494140625,-0.9638671875,0.088623046875,-0.4573170840740204,0.396341472864151,0.396341472864151,2.8499999046325684,28.649999618530273,-12.899999618530273,39.35445022583008,0,
 1565674,0.065673828125,-0.966796875,0.084228515625,-0.21341463923454285,0.15243902802467346,0.4268292784690857,1.7999999523162842,28.049999237060547,-13.800000190734863,39.2106819152832,0,
 1565684,0.06787109375,-0.96875,0.087890625,0.21341463923454285,0.18292683362960815,0.24390244483947754,1.7999999523162842,27.299999237060547,-14.550000190734863,39.546142578125,0,
 1565694,0.065673828125,-0.970458984375,0.088134765625,0.09146341681480408,0.24390244483947754,0.8231707215309143,2.25,30.0,-14.25,39.35445022583008,0,
 1565704,0.062744140625,-0.970703125,0.086669921875,-0.24390244483947754,0.4268292784690857,0.7621951103210449,2.25,30.0,-14.25,39.2106819152832,0,
 1565714,0.0654296875,-0.9697265625,0.086669921875,-0.4573170840740204,0.3658536672592163,0.6097561120986938,1.0499999523162842,27.299999237060547,-12.75,39.546142578125,0,
 1565724,0.071044921875,-0.966064453125,0.085205078125,-0.060975611209869385,0.09146341681480408,0.6097561120986938,2.549999952316284,28.799999237060547,-13.800000190734863,39.2106819152832,0,
 1565734,0.066650390625,-0.967041015625,0.08203125,0.030487805604934692,0.3658536672592163,0.7012194991111755,0.75,28.5,-13.050000190734863,39.162757873535156,0,
 1565744,0.063232421875,-0.964111328125,0.087158203125,-0.15243902802467346,0.27439025044441223,0.3658536672592163,1.7999999523162842,26.850000381469727,-12.75,39.35445022583008,0,
 1565754,0.06640625,-0.965087890625,0.091796875,-0.060975611209869385,0.24390244483947754,0.060975611209869385,1.7999999523162842,26.850000381469727,-12.75,39.30652618408203,0,
 1565764,0.069580078125,-0.97119140625,0.082763671875,-0.3658536672592163,0.15243902802467346,0.3353658616542816,2.549999952316284,26.100000381469727,-12.300000190734863,39.49821853637695,0,
 1565774,0.067626953125,-0.9619140625,0.088134765625,-0.4268292784690857,0.27439025044441223,0.21341463923454285,2.549999952316284,28.5,-13.800000190734863,39.30652618408203,0,
 1565784,0.069580078125,-0.964111328125,0.088134765625,-0.396341472864151,-0.030487805604934692,0.27439025044441223,2.25,26.850000381469727,-12.300000190734863,39.49821853637695,0,
 1565794,0.068115234375,-0.964599609375,0.0869140625,-0.21341463923454285,0.3353658616542816,0.15243902802467346,2.25,26.850000381469727,-12.300000190734863,39.35445022583008,0,
 1565804,0.06591796875,-0.96826171875,0.08837890625,0.030487805604934692,0.3048780560493469,0.18292683362960815,2.25,24.450000762939453,-14.25,39.546142578125,0,
 1565814,0.069580078125,-0.968017578125,0.0859375,-0.5487805008888245,0.396341472864151,-0.060975611209869385,0.8999999761581421,29.100000381469727,-13.199999809265137,39.546142578125,0,
 1565824,0.061767578125,-0.9677734375,0.08544921875,-0.4573170840740204,0.3048780560493469,0.18292683362960815,2.0999999046325684,27.450000762939453,-13.649999618530273,38.92314529418945,0,
 1565834,0.063720703125,-0.965087890625,0.087890625,-0.3353658616542816,0.12195122241973877,0.060975611209869385,2.0999999046325684,27.450000762939453,-13.649999618530273,39.49821853637695,0,
 1565844,0.06591796875,-0.9677734375,0.088623046875,-0.24390244483947754,0.18292683362960815,0.3048780560493469,3.299999952316284,26.850000381469727,-13.800000190734863,39.35445022583008,0,
 1565854,0.06591796875,-0.966796875,0.0830078125,-0.21341463923454285,0.09146341681480408,-0.24390244483947754,1.5,26.100000381469727,-13.800000190734863,39.450294494628906,0,
 1565864,0.066162109375,-0.96875,0.08349609375,-0.15243902802467346,0.09146341681480408,-0.030487805604934692,2.4000000953674316,28.200000762939453,-12.149999618530273,39.64198684692383,0,
 1565874,0.06494140625,-0.969970703125,0.090087890625,-0.060975611209869385,-0.060975611209869385,0.060975611209869385,2.0999999046325684,28.200000762939453,-14.699999809265137,39.2106819152832,0,
 1565884,0.06640625,-0.9677734375,0.08251953125,-0.15243902802467346,0.060975611209869385,-0.060975611209869385,2.0999999046325684,28.200000762939453,-14.699999809265137,39.30652618408203,0,
 1565894,0.06396484375,-0.965576171875,0.089599609375,-0.6097561120986938,0.060975611209869385,-0.3048780560493469,1.649999976158142,28.200000762939453,-12.449999809265137,39.35445022583008,0,
 1565904,0.06396484375,-0.970703125,0.089599609375,-0.6707317233085632,-0.3353658616542816,0.030487805604934692,3.1500000953674316,26.25,-14.399999618530273,39.49821853637695,0,
 1565914,0.06982421875,-0.962890625,0.08544921875,-0.12195122241973877,-0.396341472864151,0.7317073345184326,1.649999976158142,26.700000762939453,-12.149999618530273,39.30652618408203,0,
 1565924,0.06396484375,-0.966796875,0.082763671875,-0.6097561120986938,-0.3048780560493469,0.4268292784690857,1.649999976158142,26.700000762939453,-12.149999618530273,39.450294494628906,0,
 1565934,0.061767578125,-0.970703125,0.083984375,-0.09146341681480408,-0.3048780560493469,0.060975611209869385,3.299999952316284,28.049999237060547,-13.050000190734863,39.35445022583008,0,
 1565944,0.06396484375,-0.9736328125,0.084716796875,-0.7317073345184326,-0.5182926654815674,0.0,1.7999999523162842,28.049999237060547,-13.5,39.49821853637695,0,
 1565954,0.056884765625,-0.967041015625,0.08251953125,-0.8231707215309143,-0.4268292784690857,0.030487805604934692,1.649999976158142,28.649999618530273,-13.649999618530273,39.35445022583008,0,
 1565964,0.065673828125,-0.970703125,0.09033203125,-0.7621951103210449,-0.12195122241973877,-0.5792682766914368,1.649999976158142,28.649999618530273,-13.649999618530273,39.35445022583008,0,
 1565974,0.065673828125,-0.97216796875,0.090087890625,-1.0365853309631348,-0.3048780560493469,-0.21341463923454285,2.25,28.5,-13.050000190734863,39.49821853637695,0,
 1565984,0.067626953125,-0.970703125,0.0888671875,-0.8841463327407837,-0.5182926654815674,-0.09146341681480408,1.649999976158142,27.899999618530273,-14.399999618530273,39.2106819152832,0,
 1565994,0.06640625,-0.97021484375,0.083984375,-1.1280487775802612,-0.27439025044441223,0.060975611209869385,1.649999976158142,29.100000381469727,-12.449999809265137,39.35445022583008,0,
 1566004,0.070068359375,-0.96630859375,0.08251953125,-0.8841463327407837,-0.4573170840740204,0.0,4.5,28.5,-16.799999237060547,39.546142578125,0,
 1566014,0.068359375,-0.966064453125,0.084716796875,-0.3353658616542816,-0.6707317233085632,0.030487805604934692,4.5,28.5,-16.799999237060547,39.01898956298828,0,
 1566024,0.072509765625,-0.966064453125,0.08056640625,0.12195122241973877,-0.7621951103210449,0.060975611209869385,2.549999952316284,28.5,-13.5,39.689910888671875,0,
 1566034,0.0595703125,-0.973388671875,0.085693359375,0.4573170840740204,-1.0670732259750366,0.12195122241973877,2.4000000953674316,27.450000762939453,-13.949999809265137,39.450294494628906,0,
 1566044,0.068115234375,-0.96923828125,0.085693359375,0.8536585569381714,-0.9756097793579102,0.4268292784690857,3.1500000953674316,27.450000762939453,-12.449999809265137,39.2106819152832,0,
 1566054,0.068359375,-0.973388671875,0.0849609375,0.6097561120986938,-1.1280487775802612,0.8231707215309143,3.1500000953674316,27.450000762939453,-12.449999809265137,39.450294494628906,0,
 1566064,0.06298828125,-0.9794921875,0.0869140625,1.25,-1.2195122241973877,0.8536585569381714,2.4000000953674316,27.899999618530273,-12.149999618530273,39.30652618408203,0,
 1566074,0.06787109375,-0.977783203125,0.0849609375,1.1890244483947754,-1.6158536672592163,1.402438998222351,2.549999952316284,28.5,-13.5,39.35445022583008,0,
 1566084,0.066650390625,-0.983154296875,0.089111328125,1.402438998222351,-1.9512195587158203,1.737804889678955,0.44999998807907104,27.450000762939453,-11.399999618530273,39.49821853637695,0,
 1566094,0.0634765625,-0.980224609375,0.090576171875,2.22560977935791,-2.0731706619262695,1.7073171138763428,0.44999998807907104,27.450000762939453,-11.399999618530273,39.64198684692383,0,
 1566104,0.065185546875,-0.973876953125,0.083740234375,3.2012195587158203,-2.103658676147461,1.6768293380737305,2.25,29.700000762939453,-15.300000190734863,39.689910888671875,0,
 1566114,0.060302734375,-0.971923828125,0.0810546875,3.75,-2.5609755516052246,1.6768293380737305,2.8499999046325684,28.200000762939453,-12.899999618530273,39.11483383178711,0,
 1566124,0.059326171875,-0.972412109375,0.08935546875,5.884146690368652,-2.7439024448394775,1.737804889678955,1.7999999523162842,27.600000381469727,-13.5,39.64198684692383,0,
 1566134,0.0634765625,-0.969482421875,0.0849609375,5.945122241973877,-3.628048896789551,1.920731782913208,2.4000000953674316,28.649999618530273,-13.949999809265137,39.35445022583008,0,
 1566144,0.064697265625,-0.98046875,0.083984375,7.347561359405518,-3.3841464519500732,2.591463565826416,2.4000000953674316,28.649999618530273,-13.949999809265137,39.30652618408203,0,
 1566154,0.0673828125,-0.97021484375,0.09326171875,7.804878234863281,-3.445122003555298,2.4390244483947754,2.0999999046325684,27.450000762939453,-12.899999618530273,39.450294494628906,0,
 1566164,0.084228515625,-0.976318359375,0.098876953125,7.591463565826416,-3.9024391174316406,3.170731782913208,2.25,27.600000381469727,-13.800000190734863,39.2106819152832,0,
 1566174,0.066162109375,-0.96240234375,0.1064453125,6.920732021331787,-4.390244007110596,3.658536672592163,1.7999999523162842,27.299999237060547,-13.5,39.01898956298828,0,
 1566184,0.07421875,-0.973388671875,0.087890625,5.853658676147461,-4.5731706619262695,3.75,1.7999999523162842,27.299999237060547,-13.5,39.546142578125,0,
 1566194,0.072998046875,-0.96875,0.08740234375,4.542683124542236,-4.115853786468506,3.353658676147461,0.75,28.049999237060547,-13.5,39.30652618408203,0,
 1566204,0.061279296875,-0.982177734375,0.086669921875,5.396341800689697,-4.146341323852539,3.2317073345184326,2.8499999046325684,28.649999618530273,-12.899999618530273,39.450294494628906,0,
 1566214,0.067138671875,-0.972900390625,0.1015625,4.329268455505371,-4.390244007110596,2.896341562271118,1.7999999523162842,26.850000381469727,-13.050000190734863,39.30652618408203,0,
 1566224,0.066650390625,-0.96728515625,0.096435546875,4.146341323852539,-4.634146213531494,2.2865853309631348,1.7999999523162842,26.850000381469727,-13.050000190734863,39.35445022583008,0,
 1566234,0.067626953125,-0.972900390625,0.099609375,3.841463565826416,-5.060975551605225,1.6463414430618286,3.0,28.5,-13.5,39.2106819152832,0,
 1566244,0.0654296875,-0.96630859375,0.1103515625,2.2560975551605225,-5.060975551605225,1.402438998222351,1.5,27.299999237060547,-12.300000190734863,39.35445022583008,0,
 1566254,0.05810546875,-0.96923828125,0.114501953125,1.585365891456604,-5.5182929039001465,1.3414634466171265,1.7999999523162842,28.799999237060547,-12.300000190734863,39.2106819152832,0,
 1566265,0.065673828125,-0.964599609375,0.11083984375,1.1890244483947754,-5.884146690368652,1.6158536672592163,2.25,28.049999237060547,-12.75,39.2106819152832,0,
 1566275,0.0654296875,-0.970947265625,0.09375,0.396341472864151,-5.670732021331787,1.4634146690368652,2.25,28.049999237060547,-12.75,39.35445022583008,0,
 1566285,0.064208984375,-0.962158203125,0.0859375,0.0,-6.036585330963135,1.9512195587158203,2.0999999046325684,27.450000762939453,-13.199999809265137,39.49821853637695,0,
 1566295,0.065185546875,-0.960693359375,0.093505859375,0.6707317233085632,-5.731707572937012,1.6158536672592163,3.299999952316284,26.399999618530273,-15.0,39.2106819152832,0,
 1566305,0.072998046875,-0.962890625,0.095458984375,1.7987805604934692,-5.731707572937012,2.0731706619262695,2.4000000953674316,27.450000762939453,-12.899999618530273,39.35445022583008,0,
 1566315,0.07861328125,-0.96142578125,0.09619140625,1.0365853309631348,-6.432927131652832,2.77439022064209,2.4000000953674316,27.450000762939453,-12.899999618530273,39.450294494628906,0,
 1566325,0.07666015625,-0.98046875,0.0859375,1.1890244483947754,-7.134146690368652,3.75,3.0,26.100000381469727,-13.5,39.546142578125,0,
 1566335,0.068115234375,-0.9609375,0.08203125,0.0,-8.140244483947754,4.908536911010742,3.0,27.299999237060547,-12.75,39.49821853637695,0,
 1566345,0.07275390625,-0.97607421875,0.074462890625,-0.3353658616542816,-8.841464042663574,5.54878044128418,3.5999999046325684,27.0,-12.149999618530273,39.450294494628906,0,
 1566355,0.076416015625,-0.956298828125,0.083984375,0.8536585569381714,-10.518293380737305,5.97560977935791,3.5999999046325684,27.0,-12.149999618530273,39.49821853637695,0,
 1566365,0.08251953125,-0.961669921875,0.075439453125,1.9817073345184326,-12.5,7.378048896789551,3.1500000953674316,26.700000762939453,-12.149999618530273,39.35445022583008,0,
 1566375,0.074462890625,-0.97900390625,0.0849609375,1.2195122241973877,-13.445122718811035,8.04878044128418,3.5999999046325684,28.200000762939453,-12.899999618530273,39.35445022583008,0,
 1566385,0.072998046875,-0.968017578125,0.09619140625,0.15243902802467346,-13.963415145874023,8.353658676147461,4.650000095367432,26.700000762939453,-13.649999618530273,39.49821853637695,0,
 1566395,0.0576171875,-0.9541015625,0.115478515625,-0.09146341681480408,-13.414634704589844,8.079268455505371,4.199999809265137,26.399999618530273,-13.800000190734863,39.35445022583008,0,
 1566405,0.05029296875,-0.957763671875,0.115234375,-0.15243902802467346,-12.865854263305664,7.9268293380737305,4.199999809265137,26.399999618530273,-13.800000190734863,39.2106819152832,0,
 1566415,0.04443359375,-0.96826171875,0.110107421875,1.0670732259750366,-11.737805366516113,7.713414669036865,6.0,26.850000381469727,-15.75,39.450294494628906,0,
 1566425,0.036376953125,-0.9775390625,0.112548828125,1.25,-11.341464042663574,7.408536911010742,4.199999809265137,25.649999618530273,-13.800000190734863,39.450294494628906,0,
 1566435,0.04443359375,-0.957763671875,0.115234375,1.6768293380737305,-10.42682933807373,7.5,3.1500000953674316,27.899999618530273,-12.149999618530273,39.30652618408203,0,
 1566445,0.039794921875,-0.956298828125,0.12109375,2.408536672592163,-9.87804889678955,7.469512462615967,3.1500000953674316,27.899999618530273,-12.149999618530273,39.450294494628906,0,
 1566455,0.038818359375,-0.97314453125,0.119140625,1.8902438879013062,-8.689024925231934,6.920732021331787,4.349999904632568,27.0,-12.449999809265137,39.35445022583008,0,
 1566465,0.03466796875,-0.97607421875,0.132568359375,0.8231707215309143,-7.682927131652832,6.554878234863281,3.1500000953674316,27.450000762939453,-13.649999618530273,39.35445022583008,0,
 1566475,0.02685546875,-0.99267578125,0.1298828125,0.4268292784690857,-7.103658676147461,6.615853786468506,3.9000000953674316,27.899999618530273,-13.649999618530273,39.64198684692383,0,
 1566495,0.026611328125,-0.968994140625,0.125,0.15243902802467346,-3.7804877758026123,5.884146690368652,2.8499999046325684,28.200000762939453,-12.149999618530273,39.450294494628906,0,
 1566505,0.031982421875,-0.956787109375,0.12060546875,1.3109756708145142,-2.3475611209869385,4.634146213531494,4.199999809265137,27.299999237060547,-13.050000190734863,39.2106819152832,0,
 1566515,0.020263671875,-0.9541015625,0.12744140625,2.408536672592163,-0.7012194991111755,3.6890244483947754,3.9000000953674316,29.399999618530273,-13.949999809265137,39.546142578125,0,
 1566525,0.014404296875,-0.95947265625,0.111572265625,3.445122003555298,0.18292683362960815,2.317073106765747,5.099999904632568,26.700000762939453,-12.449999809265137,39.2106819152832,0,
 1566535,0.025146484375,-0.969482421875,0.1171875,3.567073345184326,0.5182926654815674,0.4878048896789551,5.099999904632568,26.700000762939453,-12.449999809265137,39.49821853637695,0,
 1566545,0.0283203125,-0.977294921875,0.108154296875,3.353658676147461,0.9756097793579102,-1.6768293380737305,4.349999904632568,26.25,-12.899999618530273,39.35445022583008,0,
 1566555,0.038330078125,-0.948974609375,0.11181640625,1.6158536672592163,0.396341472864151,-3.7804877758026123,4.949999809265137,26.850000381469727,-12.300000190734863,39.162757873535156,0,
 1566565,0.02587890625,-0.9404296875,0.108154296875,1.3109756708145142,0.6097561120986938,-5.70121955871582,3.9000000953674316,26.25,-13.649999618530273,39.450294494628906,0,
 1566575,0.046875,-0.92529296875,0.11767578125,1.0670732259750366,1.432926893234253,-6.920732021331787,3.9000000953674316,26.25,-13.649999618530273,39.546142578125,0,
 1566585,0.04736328125,-0.927734375,0.119873046875,2.0426828861236572,1.585365891456604,-8.079268455505371,5.099999904632568,27.450000762939453,-12.899999618530273,39.49821853637695,0,
 1566595,0.0498046875,-0.9482421875,0.112060546875,2.804877996444702,1.432926893234253,-8.292682647705078,3.75,26.850000381469727,-12.0,39.737831115722656,0,
 1566605,0.0693359375,-0.93115234375,0.097412109375,2.317073106765747,1.2195122241973877,-8.810976028442383,3.5999999046325684,27.450000762939453,-12.449999809265137,39.35445022583008,0,
 1566615,0.058837890625,-0.950439453125,0.084228515625,3.3231709003448486,0.8841463327407837,-9.268292427062988,3.5999999046325684,27.450000762939453,-12.449999809265137,39.450294494628906,0,
 1566625,0.062255859375,-0.954833984375,0.08984375,4.45121955871582,-0.12195122241973877,-10.060976028442383,1.5,25.649999618530273,-14.25,39.546142578125,0,
 1566635,0.0712890625,-0.962158203125,0.098876953125,4.817073345184326,-1.1890244483947754,-11.067073822021484,4.199999809265137,26.100000381469727,-13.050000190734863,39.35445022583008,0,
 1566645,0.060546875,-0.973876953125,0.0947265625,4.0853657722473145,-2.22560977935791,-12.22560977935791,3.299999952316284,26.850000381469727,-13.050000190734863,39.450294494628906,0,
 1566655,0.17236328125,-0.8408203125,0.25634765625,2.317073106765747,-2.5304877758026123,-12.92682933807373,3.5999999046325684,25.5,-12.899999618530273,39.2106819152832,0,
 1566665,0.08056640625,-0.903564453125,0.149169921875,2.804877996444702,-1.6463414430618286,-13.170731544494629,3.5999999046325684,25.5,-12.899999618530273,39.49821853637695,0,
 1566675,0.036865234375,-0.947021484375,0.143798828125,2.012195110321045,-1.6768293380737305,-14.237805366516113,3.75,26.100000381469727,-12.0,39.11483383178711,0,
 1566685,0.036865234375,-0.95263671875,0.158203125,1.3109756708145142,-0.6097561120986938,-13.689024925231934,2.8499999046325684,25.799999237060547,-13.199999809265137,39.2106819152832,0,
 1566695,0.071533203125,-0.90576171875,0.148681640625,0.3353658616542816,1.2804877758026123,-13.414634704589844,3.0,25.350000381469727,-12.300000190734863,39.546142578125,0,
 1566705,0.0791015625,-0.88330078125,0.146484375,-0.3353658616542816,3.2926828861236572,-12.865854263305664,3.0,25.350000381469727,-12.300000190734863,39.30652618408203,0,
 1566715,0.076171875,-0.910400390625,0.145263671875,-1.1890244483947754,4.969512462615967,-12.195121765136719,3.0,26.100000381469727,-12.300000190734863,39.450294494628906,0,
 1566725,0.08154296875,-0.929443359375,0.144775390625,-3.2317073345184326,6.036585330963135,-10.54878044128418,2.8499999046325684,25.049999237060547,-15.899999618530273,39.30652618408203,0,
 1566735,0.087158203125,-0.9033203125,0.14892578125,-7.0731706619262695,7.987804889678955,-8.292682647705078,3.1500000953674316,25.799999237060547,-12.899999618530273,39.30652618408203,0,
 1566745,0.10498046875,-0.84814453125,0.15869140625,-11.006097793579102,10.12195110321045,-5.0,3.1500000953674316,25.799999237060547,-12.899999618530273,39.689910888671875,0,
 1566755,0.125244140625,-0.8544921875,0.144287109375,-10.030488014221191,11.67682933807373,0.7012194991111755,2.8499999046325684,27.450000762939453,-14.399999618530273,39.450294494628906,0,
 1566765,0.16748046875,-0.876220703125,0.100830078125,-11.432927131652832,12.34756088256836,7.743902683258057,1.7999999523162842,26.399999618530273,-13.800000190734863,39.2106819152832,0,
 1566775,0.20849609375,-0.87109375,0.0712890625,-15.762195587158203,12.530488014221191,16.79878044128418,1.7999999523162842,26.850000381469727,-13.050000190734863,39.35445022583008,0,
 1566785,0.26123046875,-0.944580078125,0.037841796875,-18.079269409179688,12.987805366516113,25.670732498168945,4.349999904632568,27.450000762939453,-12.899999618530273,39.450294494628906,0,
 1566795,0.201904296875,-0.80908203125,0.046875,-25.85365867614746,12.37804889678955,34.5121955871582,4.349999904632568,27.450000762939453,-12.899999618530273,39.450294494628906,0,
 1566805,0.18115234375,-0.729736328125,0.079345703125,-23.53658676147461,12.408536911010742,47.8658561706543,4.949999809265137,26.850000381469727,-12.75,39.49821853637695,0,
 1566815,0.173583984375,-0.876708984375,0.05029296875,-17.164634704589844,9.634146690368652,74.7256088256836,2.549999952316284,26.399999618530273,-11.550000190734863,39.35445022583008,0,
 1566825,0.096435546875,-0.9365234375,0.021728515625,-13.414634704589844,8.262195587158203,75.06097412109375,4.949999809265137,27.299999237060547,-15.75,39.546142578125,0,
 1566835,-0.013427734375,-1.05419921875,0.028564453125,-10.853658676147461,6.128048896789551,67.04268646240234,4.949999809265137,27.299999237060547,-15.75,39.450294494628906,0,
 1566845,-0.055908203125,-1.172607421875,0.0283203125,-4.512195110321045,4.390244007110596,51.371952056884766,4.5,28.5,-12.75,39.30652618408203,0,
 1566875,0.28857421875,-1.44873046875,0.25244140625,-26.95121955871582,2.896341562271118,13.079268455505371,6.0,29.25,-12.0,39.2106819152832,0,
 1566885,-1.238037109375,-2.48291015625,-0.1943359375,-55.73170852661133,38.29268264770508,-73.81097412109375,7.199999809265137,30.0,-13.5,39.64198684692383,0,
 1566895,-0.04833984375,1.493896484375,-0.556884765625,67.80487823486328,35.3658561706543,27.926830291748047,5.699999809265137,29.700000762939453,-13.050000190734863,39.2106819152832,0,
 1566905,-0.681640625,-0.349609375,0.773193359375,18.719512939453125,-16.40243911743164,70.42683410644531,5.699999809265137,29.25,-12.0,39.35445022583008,0,
 1566915,-0.309326171875,-1.00146484375,-0.152587890625,18.109756469726562,-21.64634132385254,73.41463470458984,5.099999904632568,25.799999237060547,-11.699999809265137,39.2106819152832,0,
 1566925,0.222412109375,-1.27734375,0.025634765625,-40.24390411376953,0.5487805008888245,58.23170852661133,5.099999904632568,25.799999237060547,-11.699999809265137,39.35445022583008,0,
 1566935,-0.2890625,-0.7705078125,0.006103515625,-5.27439022064209,5.182927131652832,33.567073822021484,7.050000190734863,30.299999237060547,-11.399999618530273,39.450294494628906,0,
 1566945,-0.1982421875,-0.902587890625,0.026123046875,8.292682647705078,11.40243911743164,16.128049850463867,6.75,29.700000762939453,-11.550000190734863,39.30652618408203,0,
 1566965,0.004150390625,-0.85888671875,0.130615234375,-12.012195587158203,0.09146341681480408,18.567073822021484,7.949999809265137,28.799999237060547,-12.300000190734863,39.546142578125,0,
 1566975,-0.112548828125,-0.729736328125,0.0625,-3.9939024448394775,1.0670732259750366,23.75,6.449999809265137,30.0,-11.25,39.450294494628906,0,
 1566985,-0.062255859375,-0.984619140625,0.080810546875,2.896341562271118,2.1341464519500732,22.13414764404297,8.100000381469727,29.399999618530273,-13.649999618530273,39.450294494628906,0,
 1566995,-0.07373046875,-0.890380859375,0.0302734375,-5.70121955871582,-1.25,15.182927131652832,7.949999809265137,28.5,-11.550000190734863,39.30652618408203,0,
 1567005,-0.0517578125,-0.809814453125,0.0732421875,-9.085366249084473,1.5548781156539917,5.579268455505371,7.949999809265137,28.5,-11.550000190734863,39.546142578125,0,
 1567015,-0.0302734375,-0.847900390625,0.054931640625,-1.3719512224197388,3.841463565826416,-1.737804889678955,7.5,29.700000762939453,-12.300000190734863,39.2106819152832,0,
 1567025,-0.0419921875,-0.8369140625,0.068359375,-2.9268293380737305,2.3475611209869385,-5.762195110321045,8.100000381469727,29.399999618530273,-12.449999809265137,39.30652618408203,0,
 1567035,-0.06298828125,-0.813720703125,0.07080078125,-2.9573171138763428,-1.3109756708145142,-10.518293380737305,8.699999809265137,28.5,-12.75,39.546142578125,0,
 1567045,-0.113037109375,-0.888427734375,0.046142578125,-0.18292683362960815,-2.195122003555298,-17.012195587158203,8.699999809265137,29.700000762939453,-12.300000190734863,39.450294494628906,0,
 1567055,-0.1025390625,-0.93994140625,0.066162109375,-0.4878048896789551,-0.09146341681480408,-23.35365867614746,8.699999809265137,29.700000762939453,-12.300000190734863,39.35445022583008,0,
 1567065,-0.044189453125,-0.972412109375,0.08740234375,0.3658536672592163,1.7987805604934692,-26.707317352294922,8.100000381469727,29.100000381469727,-9.149999618530273,39.30652618408203,0,
 1567075,-0.019287109375,-1.011962890625,0.060791015625,0.18292683362960815,1.7073171138763428,-26.18902587890625,7.5,29.700000762939453,-13.050000190734863,39.546142578125,0,
 1567086,-0.023193359375,-0.991455078125,0.060546875,-0.3048780560493469,0.4268292784690857,-23.780488967895508,7.5,29.25,-12.75,39.450294494628906,0,
 1567096,-0.03515625,-1.039794921875,0.059814453125,-0.5792682766914368,-0.4268292784690857,-21.25,7.5,29.25,-12.75,39.01898956298828,0,
 1567106,-0.05029296875,-1.032470703125,0.05859375,-1.8902438879013062,-0.060975611209869385,-18.810976028442383,7.050000190734863,30.299999237060547,-12.149999618530273,39.49821853637695,0,
 1567116,-0.04052734375,-1.02197265625,0.0556640625,-1.3414634466171265,-0.12195122241973877,-17.2560977935791,6.75,28.5,-12.0,39.64198684692383,0,
 1567126,-0.025146484375,-1.0322265625,0.0595703125,-0.9146341681480408,-0.12195122241973877,-15.487805366516113,7.199999809265137,29.25,-12.300000190734863,39.64198684692383,0,
 1567136,-0.02783203125,-1.0205078125,0.074462890625,1.5548781156539917,-0.6402438879013062,-14.390244483947754,7.199999809265137,29.25,-12.300000190734863,39.35445022583008,0,
 1567146,-0.035888671875,-1.018798828125,0.07177734375,3.9634146690368652,-0.9146341681480408,-13.414634704589844,7.349999904632568,29.100000381469727,-10.949999809265137,39.30652618408203,0,
 1567156,-0.03564453125,-1.06884765625,0.09130859375,4.146341323852539,-1.3414634466171265,-11.737805366516113,5.400000095367432,29.399999618530273,-11.399999618530273,39.546142578125,0,
 1567166,-0.044677734375,-1.043212890625,0.0966796875,1.5548781156539917,-1.097561001777649,-11.859756469726562,6.449999809265137,28.799999237060547,-10.800000190734863,39.35445022583008,0,
 1567176,-0.048095703125,-1.00732421875,0.069091796875,0.3353658616542816,-1.4634146690368652,-12.77439022064209,6.449999809265137,29.700000762939453,-12.0,39.35445022583008,0,
 1567186,-0.02880859375,-0.977294921875,0.05908203125,0.09146341681480408,-1.2195122241973877,-14.29878044128418,6.449999809265137,29.700000762939453,-12.0,39.49821853637695,0,
 1567196,-0.028564453125,-0.96142578125,0.08740234375,2.1646342277526855,-1.7682926654815674,-14.84756088256836,5.25,29.25,-11.550000190734863,39.11483383178711,0,
 1567206,-0.019287109375,-0.968994140625,0.094970703125,3.1097562313079834,-2.4390244483947754,-13.810976028442383,6.75,30.0,-12.0,39.49821853637695,0,
 1567216,-0.008544921875,-0.986572265625,0.07958984375,1.402438998222351,-2.6524391174316406,-13.109756469726562,5.849999904632568,29.399999618530273,-11.699999809265137,39.64198684692383,0,
 1567226,-0.00244140625,-0.9404296875,0.051025390625,-0.5792682766914368,-2.103658676147461,-13.262195587158203,5.849999904632568,29.399999618530273,-11.699999809265137,39.11483383178711,0,
 1567236,0.007080078125,-0.908447265625,0.060791015625,0.27439025044441223,-1.737804889678955,-13.47560977935791,5.699999809265137,27.299999237060547,-15.300000190734863,39.35445022583008,0,
 1567246,-0.000732421875,-0.9248046875,0.07080078125,0.8841463327407837,-1.097561001777649,-14.115854263305664,5.699999809265137,28.5,-10.5,39.450294494628906,0,
 1567256,-0.0029296875,-0.9619140625,0.0771484375,0.7012194991111755,-0.4268292784690857,-14.72560977935791,5.699999809265137,28.799999237060547,-11.550000190734863,39.30652618408203,0,
 1567266,0.001220703125,-0.95849609375,0.067626953125,-1.0060975551605225,0.6097561120986938,-16.158536911010742,5.699999809265137,28.799999237060547,-11.550000190734863,39.450294494628906,0,
 1567276,0.017578125,-0.946533203125,0.053955078125,1.6158536672592163,1.1585365533828735,-19.664634704589844,5.400000095367432,29.850000381469727,-10.949999809265137,39.450294494628906,0,
 1567286,0.02685546875,-0.938232421875,0.072998046875,3.47560977935791,0.8536585569381714,-20.030488967895508,4.199999809265137,28.5,-12.0,38.971065521240234,0,
 1567296,0.00341796875,-0.965576171875,0.06396484375,3.3841464519500732,0.7012194991111755,-20.792682647705078,5.400000095367432,28.649999618530273,-12.899999618530273,39.49821853637695,0,
 1567306,0.00244140625,-0.97412109375,0.065673828125,2.77439022064209,0.9756097793579102,-20.609756469726562,4.199999809265137,28.049999237060547,-12.75,39.689910888671875,0,
 1567316,0.016845703125,-0.974853515625,0.081298828125,4.0853657722473145,1.3719512224197388,-21.40243911743164,4.199999809265137,28.049999237060547,-12.75,39.49821853637695,0,
 1567326,0.022216796875,-0.977783203125,0.08642578125,3.658536672592163,1.3719512224197388,-20.792682647705078,5.099999904632568,27.899999618530273,-11.699999809265137,39.49821853637695,0,
 1567336,0.026611328125,-0.9736328125,0.06689453125,2.682926893234253,1.25,-20.487804412841797,5.699999809265137,28.049999237060547,-13.5,39.30652618408203,0,
 1567346,0.02783203125,-0.98291015625,0.08056640625,0.8536585569381714,1.7073171138763428,-19.390243530273438,4.5,28.5,-12.300000190734863,39.30652618408203,0,
 1567356,0.024658203125,-0.999267578125,0.087890625,1.1280487775802612,1.5243902206420898,-18.292682647705078,4.5,28.5,-12.300000190734863,39.35445022583008,0,
 1567366,0.04345703125,-0.99755859375,0.078857421875,0.3658536672592163,1.5548781156539917,-15.914634704589844,3.299999952316284,27.600000381469727,-12.75,39.35445022583008,0,
 1567376,0.04296875,-0.99365234375,0.094482421875,-0.9451219439506531,1.737804889678955,-12.92682933807373,3.75,27.600000381469727,-12.0,39.30652618408203,0,
 1567386,0.043701171875,-0.986083984375,0.085693359375,0.21341463923454285,1.6158536672592163,-9.481707572937012,1.649999976158142,28.200000762939453,-10.949999809265137,39.30652618408203,0,
 1567396,0.064453125,-0.98388671875,0.06787109375,0.3658536672592163,1.1890244483947754,-5.945122241973877,1.649999976158142,28.200000762939453,-10.949999809265137,39.35445022583008,0,
 1567406,0.057373046875,-0.96435546875,0.0634765625,1.7073171138763428,0.7317073345184326,-3.2012195587158203,2.549999952316284,27.600000381469727,-10.5,39.30652618408203,0,
 1567416,0.0576171875,-0.9658203125,0.0732421875,2.896341562271118,0.24390244483947754,-1.3719512224197388,3.299999952316284,26.100000381469727,-12.300000190734863,39.450294494628906,0,
 1567426,0.05908203125,-0.98486328125,0.114990234375,4.420732021331787,-0.12195122241973877,-0.3353658616542816,3.75,28.049999237060547,-12.0,39.35445022583008,0,
 1567436,0.04541015625,-0.973876953125,0.0703125,4.756097793579102,-0.9146341681480408,-0.060975611209869385,2.25,28.5,-12.75,39.11483383178711,0,
 1567446,0.029052734375,-0.97607421875,0.07861328125,6.6768293380737305,-0.9756097793579102,-0.060975611209869385,2.25,28.5,-12.75,39.450294494628906,0,
 1567456,0.04345703125,-0.967041015625,0.079833984375,6.920732021331787,-1.1585365533828735,-0.3658536672592163,4.349999904632568,28.200000762939453,-12.149999618530273,39.546142578125,0,
 1567466,0.040771484375,-0.97314453125,0.093017578125,6.52439022064209,-1.3109756708145142,-1.097561001777649,4.199999809265137,28.799999237060547,-11.25,39.35445022583008,0,
 1567476,0.03271484375,-0.966552734375,0.084228515625,6.006097793579102,-1.097561001777649,-1.6768293380737305,3.1500000953674316,27.0,-12.149999618530273,39.35445022583008,0,
 1567486,0.04052734375,-0.9501953125,0.08984375,5.609755992889404,-0.8841463327407837,-1.8902438879013062,3.1500000953674316,27.0,-12.149999618530273,39.35445022583008,0,
 1567496,0.05419921875,-0.95361328125,0.100830078125,5.4268293380737305,-0.3048780560493469,-2.012195110321045,3.5999999046325684,26.700000762939453,-12.899999618530273,39.01898956298828,0,
 1567506,0.0458984375,-0.9462890625,0.094970703125,4.603658676147461,0.3353658616542816,-0.7317073345184326,3.1500000953674316,29.100000381469727,-12.899999618530273,39.450294494628906,0,
 1567516,0.0576171875,-0.952880859375,0.095703125,4.359755992889404,0.3353658616542816,0.27439025044441223,1.7999999523162842,28.5,-12.0,39.450294494628906,0,
 1567526,0.066650390625,-0.945556640625,0.106201171875,2.7134146690368652,0.7012194991111755,0.8841463327407837,1.7999999523162842,28.5,-12.0,39.49821853637695,0,
 1567536,0.0576171875,-0.9462890625,0.088134765625,1.9817073345184326,0.3048780560493469,0.6707317233085632,4.5,26.399999618530273,-12.75,39.2106819152832,0,
 1567546,0.06005859375,-0.97802734375,0.05908203125,2.012195110321045,0.4268292784690857,0.3658536672592163,3.299999952316284,27.299999237060547,-14.25,39.450294494628906,0,
 1567556,0.06640625,-0.972412109375,0.093505859375,1.585365891456604,0.18292683362960815,-0.6402438879013062,3.299999952316284,28.5,-12.0,39.35445022583008,0,
 1567566,0.05908203125,-0.961181640625,0.089599609375,1.25,0.21341463923454285,-0.3353658616542816,2.25,29.25,-12.0,39.49821853637695,0,
 1567586,0.060791015625,-0.9482421875,0.101806640625,0.15243902802467346,0.15243902802467346,0.9451219439506531,3.75,27.600000381469727,-12.300000190734863,39.2106819152832,0,
 1567596,0.04248046875,-0.971923828125,0.098388671875,-0.6707317233085632,0.5487805008888245,2.22560977935791,4.199999809265137,27.299999237060547,-11.550000190734863,39.2106819152832,0,
 1567606,0.047607421875,-0.970703125,0.0888671875,-1.25,0.5792682766914368,2.5609755516052246,5.25,26.850000381469727,-12.300000190734863,39.64198684692383,0,
 1567616,0.043701171875,-0.978759765625,0.089111328125,-1.6768293380737305,0.5182926654815674,1.6463414430618286,5.25,26.850000381469727,-12.300000190734863,39.64198684692383,0,
 1567626,0.036865234375,-0.97705078125,0.093505859375,-1.737804889678955,0.7317073345184326,1.2804877758026123,3.75,28.049999237060547,-12.0,39.35445022583008,0,
 1567636,0.032958984375,-0.977783203125,0.093994140625,-1.920731782913208,0.9756097793579102,0.7012194991111755,4.199999809265137,28.049999237060547,-12.75,39.450294494628906,0,
 1567646,0.03955078125,-0.97705078125,0.0908203125,-1.9817073345184326,0.5182926654815674,0.24390244483947754,5.25,28.5,-16.799999237060547,39.450294494628906,0,
 1567656,0.0458984375,-0.970947265625,0.088134765625,-1.7073171138763428,0.9451219439506531,-0.030487805604934692,5.25,28.5,-16.799999237060547,39.49821853637695,0,
 1567666,0.0419921875,-0.9716796875,0.087890625,-1.585365891456604,0.5487805008888245,0.15243902802467346,2.0999999046325684,27.0,-11.699999809265137,39.30652618408203,0,
 1567676,0.046875,-0.966064453125,0.086181640625,-1.1585365533828735,0.3658536672592163,-0.030487805604934692,3.75,28.5,-11.550000190734863,39.450294494628906,0,
 1567686,0.049560546875,-0.96142578125,0.0888671875,-0.6402438879013062,0.3658536672592163,0.24390244483947754,1.7999999523162842,28.649999618530273,-13.649999618530273,39.2106819152832,0,
 1567696,0.050537109375,-0.963134765625,0.09033203125,-0.8231707215309143,0.5182926654815674,0.6707317233085632,1.7999999523162842,28.049999237060547,-12.300000190734863,39.64198684692383,0,
 1567706,0.047607421875,-0.967529296875,0.0966796875,-0.6707317233085632,-0.030487805604934692,1.6768293380737305,1.7999999523162842,28.049999237060547,-12.300000190734863,39.35445022583008,0,
 1567716,0.044189453125,-0.965087890625,0.090087890625,-0.7621951103210449,0.3658536672592163,1.9512195587158203,3.75,27.600000381469727,-12.0,39.2106819152832,0,
 1567726,0.040283203125,-0.962646484375,0.09521484375,-1.1280487775802612,0.18292683362960815,1.7682926654815674,1.649999976158142,26.700000762939453,-12.149999618530273,39.01898956298828,0,
 1567736,0.04443359375,-0.96337890625,0.09814453125,-1.4939024448394775,0.4878048896789551,1.432926893234253,1.649999976158142,28.649999618530273,-12.899999618530273,39.49821853637695,0,
 1567746,0.035400390625,-0.967529296875,0.091796875,-1.3719512224197388,0.396341472864151,1.0365853309631348,1.649999976158142,28.649999618530273,-12.899999618530273,39.35445022583008,0,
 1567756,0.046875,-0.972412109375,0.088623046875,-1.402438998222351,0.5182926654815674,0.6402438879013062,4.199999809265137,28.5,-12.300000190734863,39.546142578125,0,
 1567766,0.044921875,-0.958984375,0.088623046875,-0.8231707215309143,0.7317073345184326,0.4878048896789551,2.0999999046325684,27.0,-11.699999809265137,39.546142578125,0,
 1567776,0.041259765625,-0.966796875,0.08837890625,-1.097561001777649,0.4573170840740204,0.3353658616542816,2.0999999046325684,27.0,-12.449999809265137,39.35445022583008,0,
 1567786,0.043701171875,-0.966796875,0.089599609375,-1.402438998222351,0.3658536672592163,-0.3353658616542816,2.0999999046325684,27.0,-12.449999809265137,39.2106819152832,0,
 1567796,0.04248046875,-0.965576171875,0.089111328125,-1.402438998222351,0.5182926654815674,-0.3353658616542816,4.199999809265137,27.600000381469727,-13.050000190734863,39.64198684692383,0,
 1567807,0.044189453125,-0.965576171875,0.089111328125,-1.097561001777649,0.6402438879013062,-0.3658536672592163,3.299999952316284,28.049999237060547,-12.0,39.35445022583008,0,
 1567817,0.0537109375,-0.957763671875,0.087890625,-0.8536585569381714,0.4573170840740204,0.030487805604934692,3.5999999046325684,27.450000762939453,-13.649999618530273,39.450294494628906,0,
 1567827,0.047607421875,-0.961181640625,0.087646484375,-0.7317073345184326,0.3353658616542816,0.27439025044441223,3.5999999046325684,27.450000762939453,-13.649999618530273,39.2106819152832,0,
 1567837,0.052001953125,-0.964599609375,0.08740234375,-0.9756097793579102,0.6707317233085632,0.6097561120986938,3.5999999046325684,27.450000762939453,-13.649999618530273,39.49821853637695,0,
 1567847,0.04638671875,-0.97216796875,0.08984375,-0.8536585569381714,0.792682945728302,0.9146341681480408,1.0499999523162842,30.0,-14.550000190734863,39.450294494628906,0,
 1567867,0.045166015625,-0.971923828125,0.094482421875,-0.8841463327407837,0.5792682766914368,0.9756097793579102,1.7999999523162842,27.299999237060547,-11.25,39.546142578125,0,
 1567877,0.044677734375,-0.9658203125,0.0859375,-0.4878048896789551,0.5182926654815674,0.9451219439506531,1.7999999523162842,27.299999237060547,-11.25,39.162757873535156,0,
 1567887,0.046875,-0.969970703125,0.089111328125,-0.6402438879013062,0.5487805008888245,0.7317073345184326,2.8499999046325684,27.450000762939453,-12.149999618530273,39.35445022583008,0,
 1567897,0.03759765625,-0.968505859375,0.0908203125,-0.18292683362960815,0.6097561120986938,0.4573170840740204,1.7999999523162842,28.799999237060547,-11.25,39.450294494628906,0,
 1567907,0.044189453125,-0.96630859375,0.0927734375,-0.15243902802467346,0.5487805008888245,0.12195122241973877,1.7999999523162842,28.799999237060547,-11.25,39.35445022583008,0,
 1567917,0.039794921875,-0.9677734375,0.09326171875,-0.3048780560493469,1.0365853309631348,0.27439025044441223,1.7999999523162842,28.799999237060547,-11.25,39.64198684692383,0,
 1567927,0.0400390625,-0.969482421875,0.090576171875,0.0,0.5182926654815674,-0.030487805604934692,3.9000000953674316,29.100000381469727,-13.199999809265137,39.01898956298828,0,
 1567937,0.041015625,-0.966552734375,0.08349609375,-0.24390244483947754,0.5792682766914368,0.3658536672592163,2.4000000953674316,29.399999618530273,-11.399999618530273,39.35445022583008,0,
 1567957,0.048583984375,-0.972412109375,0.09326171875,-0.27439025044441223,0.5487805008888245,0.030487805604934692,3.0,26.850000381469727,-12.75,39.689910888671875,0,
 1567967,0.044189453125,-0.9716796875,0.0888671875,0.12195122241973877,0.4878048896789551,0.060975611209869385,3.0,26.850000381469727,-12.75,39.546142578125,0,
 1567977,0.039306640625,-0.970458984375,0.08935546875,-0.3048780560493469,0.5487805008888245,-0.3048780560493469,3.5999999046325684,29.100000381469727,-13.5,39.35445022583008,0,
 1567987,0.040283203125,-0.969482421875,0.091552734375,0.030487805604934692,0.3658536672592163,-0.15243902802467346,3.5999999046325684,27.899999618530273,-13.199999809265137,39.450294494628906,0,
 1567997,0.04931640625,-0.970947265625,0.0859375,-0.27439025044441223,0.7621951103210449,-0.18292683362960815,3.5999999046325684,27.899999618530273,-13.199999809265137,39.49821853637695,0,
 1568007,0.04736328125,-0.973388671875,0.095947265625,-0.3658536672592163,0.5792682766914368,0.060975611209869385,3.5999999046325684,27.899999618530273,-13.199999809265137,39.450294494628906,0,
 1568017,0.043212890625,-0.966064453125,0.089111328125,-0.21341463923454285,0.6707317233085632,-0.060975611209869385,2.549999952316284,28.5,-11.25,39.450294494628906,0,
 1568027,0.0390625,-0.974365234375,0.086181640625,-0.27439025044441223,0.6707317233085632,0.21341463923454285,2.549999952316284,28.049999237060547,-12.75,39.2106819152832,0,
 1568037,0.046875,-0.968994140625,0.091552734375,-0.6097561120986938,0.7012194991111755,0.4573170840740204,2.549999952316284,28.049999237060547,-12.75,39.35445022583008,0,
 1568047,0.046630859375,-0.970947265625,0.09033203125,-0.5487805008888245,0.5792682766914368,0.3658536672592163,2.549999952316284,28.049999237060547,-12.75,39.450294494628906,0,
 1568057,0.0458984375,-0.9658203125,0.091064453125,-0.5792682766914368,0.3353658616542816,0.7012194991111755,2.0999999046325684,27.299999237060547,-15.300000190734863,39.35445022583008,0,
 1568067,0.040283203125,-0.96826171875,0.08984375,-0.4878048896789551,0.6402438879013062,0.7012194991111755,3.1500000953674316,26.700000762939453,-11.699999809265137,39.546142578125,0,
 1568077,0.046875,-0.97265625,0.08984375,-0.27439025044441223,0.7317073345184326,0.6707317233085632,1.5,29.25,-13.050000190734863,39.450294494628906,0,
 1568087,0.046875,-0.970703125,0.0908203125,-0.3048780560493469,0.3658536672592163,0.792682945728302,1.5,29.25,-13.050000190734863,39.450294494628906,0,
 1568097,0.044189453125,-0.96826171875,0.083740234375,-0.8536585569381714,0.6402438879013062,0.09146341681480408,3.1500000953674316,29.25,-13.050000190734863,39.35445022583008,0,
 1568107,0.044189453125,-0.96728515625,0.08251953125,-0.6097561120986938,0.4573170840740204,0.4268292784690857,2.549999952316284,28.5,-11.550000190734863,39.35445022583008,0,
 1568117,0.048095703125,-0.969970703125,0.08837890625,-0.7317073345184326,0.5487805008888245,0.3353658616542816,3.75,29.25,-12.300000190734863,39.2106819152832,0,
 1568127,0.043212890625,-0.969482421875,0.0849609375,-0.7012194991111755,0.396341472864151,0.3353658616542816,3.75,29.25,-12.300000190734863,39.2106819152832,0,
 1568137,0.040283203125,-0.966064453125,0.091796875,-0.7621951103210449,0.3353658616542816,0.3048780560493469,3.75,29.25,-12.300000190734863,39.35445022583008,0,
 1568147,0.040283203125,-0.964599609375,0.084716796875,-0.8536585569381714,0.4573170840740204,0.21341463923454285,3.75,24.899999618530273,-13.800000190734863,39.35445022583008,0,
 1568157,0.04638671875,-0.968017578125,0.092041015625,-0.7012194991111755,0.6097561120986938,0.15243902802467346,5.099999904632568,27.899999618530273,-12.899999618530273,39.689910888671875,0,
 1568167,0.04638671875,-0.96484375,0.092041015625,-0.7621951103210449,0.3658536672592163,0.18292683362960815,5.099999904632568,27.899999618530273,-12.899999618530273,39.64198684692383,0,
 1568177,0.05029296875,-0.971435546875,0.090576171875,-0.3658536672592163,0.24390244483947754,0.3048780560493469,5.099999904632568,27.899999618530273,-12.899999618530273,39.64198684692383,0,
 1568187,0.050537109375,-0.96875,0.083740234375,-0.5487805008888245,0.7621951103210449,0.3658536672592163,3.75,28.5,-11.25,39.35445022583008,0,
 1568197,0.045654296875,-0.96435546875,0.090087890625,-0.3658536672592163,0.27439025044441223,0.7012194991111755,3.299999952316284,28.5,-12.75,39.35445022583008,0,
 1568207,0.048095703125,-0.96875,0.0888671875,-0.8231707215309143,0.4573170840740204,0.396341472864151,3.75,27.299999237060547,-13.050000190734863,39.35445022583008,0,
 1568217,0.0478515625,-0.968994140625,0.08984375,-0.6402438879013062,0.396341472864151,0.3048780560493469,3.75,27.299999237060547,-13.050000190734863,39.11483383178711,0,
 1568227,0.0517578125,-0.969482421875,0.09130859375,-0.5792682766914368,0.5487805008888245,0.3658536672592163,3.1500000953674316,28.200000762939453,-12.449999809265137,39.2106819152832,0,
 1568237,0.044921875,-0.968994140625,0.092041015625,-0.4878048896789551,0.6707317233085632,0.15243902802467346,3.1500000953674316,27.899999618530273,-10.649999618530273,39.64198684692383,0,
 1568247,0.041748046875,-0.965576171875,0.08447265625,-0.7621951103210449,0.4573170840740204,0.030487805604934692,3.299999952316284,30.450000762939453,-14.550000190734863,39.64198684692383,0,
 1568257,0.044921875,-0.963134765625,0.093505859375,-0.7317073345184326,0.4878048896789551,0.24390244483947754,3.299999952316284,30.450000762939453,-14.550000190734863,39.30652618408203,0,
 1568267,0.04638671875,-0.969970703125,0.090576171875,-0.8231707215309143,0.3353658616542816,-0.060975611209869385,5.25,27.600000381469727,-14.550000190734863,39.162757873535156,0,
 1568277,0.045166015625,-0.970947265625,0.085693359375,-0.4878048896789551,0.18292683362960815,0.15243902802467346,4.199999809265137,27.299999237060547,-12.0,39.49821853637695,0,
 1568287,0.044921875,-0.965087890625,0.08984375,-0.396341472864151,0.5792682766914368,0.3048780560493469,3.9000000953674316,27.899999618530273,-12.449999809265137,39.450294494628906,0,
 1568297,0.04833984375,-0.969482421875,0.085693359375,-0.27439025044441223,0.27439025044441223,0.27439025044441223,3.9000000953674316,27.899999618530273,-12.449999809265137,39.450294494628906,0,
 1568307,0.04443359375,-0.966552734375,0.090087890625,-0.21341463923454285,0.21341463923454285,0.18292683362960815,2.549999952316284,28.049999237060547,-12.449999809265137,39.689910888671875,0,
 1568317,0.04443359375,-0.96728515625,0.0859375,-0.4573170840740204,0.7012194991111755,0.18292683362960815,3.1500000953674316,27.899999618530273,-13.199999809265137,39.30652618408203,0,
 1568327,0.041015625,-0.967041015625,0.088623046875,-0.4573170840740204,0.3353658616542816,0.12195122241973877,3.9000000953674316,27.899999618530273,-13.949999809265137,39.450294494628906,0,
 1568337,0.044921875,-0.96533203125,0.0869140625,-0.12195122241973877,0.3658536672592163,0.15243902802467346,3.1500000953674316,27.450000762939453,-12.899999618530273,39.49821853637695,0,
 1568347,0.0478515625,-0.96337890625,0.09130859375,-0.12195122241973877,0.4573170840740204,0.0,3.1500000953674316,27.450000762939453,-12.899999618530273,39.2106819152832,0,
 1568357,0.04931640625,-0.96826171875,0.089599609375,0.12195122241973877,0.3658536672592163,0.15243902802467346,3.1500000953674316,27.899999618530273,-12.899999618530273,39.546142578125,0,
 1568367,0.047607421875,-0.961669921875,0.085205078125,-0.060975611209869385,0.21341463923454285,-0.18292683362960815,1.7999999523162842,28.5,-12.75,39.2106819152832,0,
 1568377,0.04443359375,-0.966796875,0.08740234375,-0.12195122241973877,0.09146341681480408,-0.18292683362960815,2.549999952316284,26.850000381469727,-10.800000190734863,39.35445022583008,0,
 1568387,0.044921875,-0.967529296875,0.09423828125,0.0,0.18292683362960815,0.0,2.549999952316284,26.850000381469727,-10.800000190734863,39.49821853637695,0,
 1568397,0.0478515625,-0.972412109375,0.0830078125,-0.21341463923454285,0.396341472864151,-0.4573170840740204,3.75,27.299999237060547,-12.0,39.35445022583008,0,
 1568407,0.048583984375,-0.966552734375,0.082275390625,-0.5487805008888245,0.7012194991111755,-0.12195122241973877,3.75,28.799999237060547,-11.550000190734863,39.546142578125,0,
 1568417,0.043701171875,-0.9697265625,0.087158203125,-0.3658536672592163,0.7012194991111755,0.21341463923454285,1.5,26.399999618530273,-13.800000190734863,39.35445022583008,0,
 1568427,0.044677734375,-0.96484375,0.08740234375,-0.3658536672592163,0.4268292784690857,0.12195122241973877,1.5,26.399999618530273,-13.800000190734863,39.450294494628906,0,
 1568437,0.04736328125,-0.968505859375,0.08544921875,-0.6097561120986938,0.3048780560493469,0.12195122241973877,3.0,28.799999237060547,-14.550000190734863,39.35445022583008,0,
 1568447,0.04248046875,-0.96630859375,0.091064453125,-0.24390244483947754,0.5182926654815674,0.396341472864151,1.0499999523162842,27.600000381469727,-12.75,39.450294494628906,0,
 1568457,0.047119140625,-0.967529296875,0.08935546875,-0.21341463923454285,0.27439025044441223,0.3048780560493469,2.4000000953674316,26.25,-11.699999809265137,39.35445022583008,0,
 1568467,0.045166015625,-0.967041015625,0.08837890625,-0.5792682766914368,0.15243902802467346,0.4878048896789551,3.299999952316284,28.799999237060547,-12.300000190734863,39.49821853637695,0,
 1568477,0.044677734375,-0.97119140625,0.089111328125,-0.24390244483947754,0.4573170840740204,0.4268292784690857,3.299999952316284,28.799999237060547,-12.300000190734863,39.64198684692383,0,
 1568487,0.04541015625,-0.96923828125,0.08935546875,-0.4268292784690857,0.4878048896789551,0.5792682766914368,3.1500000953674316,28.200000762939453,-13.649999618530273,39.64198684692383,0,
 1568497,0.046142578125,-0.96630859375,0.08984375,-0.4268292784690857,0.6097561120986938,0.3353658616542816,2.25,28.5,-12.75,39.49821853637695,0,
 1568507,0.043212890625,-0.962158203125,0.092529296875,-0.4878048896789551,0.4268292784690857,-0.030487805604934692,3.299999952316284,28.5,-12.0,39.546142578125,0,
 1568517,0.04296875,-0.96484375,0.09326171875,-0.3658536672592163,0.3353658616542816,-0.060975611209869385,3.299999952316284,28.5,-12.0,39.162757873535156,0,
 1568527,0.044677734375,-0.96875,0.086669921875,-0.18292683362960815,0.4268292784690857,-0.3048780560493469,3.75,28.799999237060547,-13.800000190734863,39.546142578125,0,
 1568537,0.04443359375,-0.96435546875,0.0966796875,-0.5487805008888245,0.3658536672592163,-0.060975611209869385,2.4000000953674316,27.450000762939453,-14.699999809265137,39.546142578125,0,
 1568547,0.041015625,-0.966552734375,0.090576171875,-0.4573170840740204,0.3048780560493469,0.0,3.9000000953674316,27.899999618530273,-12.449999809265137,39.64198684692383,0,
 1568557,0.041259765625,-0.96337890625,0.089599609375,-0.6402438879013062,0.3658536672592163,0.12195122241973877,3.9000000953674316,27.899999618530273,-12.449999809265137,39.30652618408203,0,
 1568568,0.0458984375,-0.96630859375,0.085205078125,-0.6097561120986938,0.5792682766914368,-0.15243902802467346,3.0,27.600000381469727,-12.75,39.49821853637695,0,
 1568578,0.047119140625,-0.969970703125,0.0986328125,-0.9146341681480408,0.3353658616542816,0.09146341681480408,2.8499999046325684,27.450000762939453,-10.649999618530273,39.450294494628906,0,
 1568588,0.047119140625,-0.97607421875,0.0888671875,-0.7317073345184326,0.24390244483947754,0.15243902802467346,4.199999809265137,27.299999237060547,-12.300000190734863,39.49821853637695,0,
 1568598,0.04541015625,-0.96240234375,0.086181640625,-0.9451219439506531,0.6097561120986938,0.21341463923454285,3.9000000953674316,28.200000762939453,-12.149999618530273,39.35445022583008,0,
 1568608,0.049560546875,-0.968017578125,0.090087890625,-0.7012194991111755,0.27439025044441223,0.4268292784690857,3.9000000953674316,28.200000762939453,-12.149999618530273,39.49821853637695,0,
 1568618,0.04296875,-0.9638671875,0.08837890625,-0.4573170840740204,0.3048780560493469,0.3353658616542816,3.5999999046325684,27.899999618530273,-11.399999618530273,39.30652618408203,0,
 1568628,0.0458984375,-0.967041015625,0.08740234375,-0.09146341681480408,0.18292683362960815,0.4878048896789551,2.549999952316284,27.600000381469727,-11.550000190734863,39.35445022583008,0,
 1568638,0.04248046875,-0.96826171875,0.093505859375,-0.060975611209869385,0.4573170840740204,0.09146341681480408,3.75,27.299999237060547,-13.050000190734863,39.49821853637695,0,
 1568648,0.038330078125,-0.968505859375,0.0908203125,-0.4268292784690857,0.6097561120986938,-0.3353658616542816,3.75,27.299999237060547,-13.050000190734863,39.450294494628906,0,
 1568658,0.0478515625,-0.9716796875,0.08984375,-0.24390244483947754,0.18292683362960815,-0.4268292784690857,5.25,28.799999237060547,-15.300000190734863,39.35445022583008,0,
 1568668,0.0458984375,-0.962890625,0.088623046875,-0.21341463923454285,0.4573170840740204,-0.6402438879013062,4.199999809265137,26.850000381469727,-12.0,39.35445022583008,0,
 1568678,0.047607421875,-0.973388671875,0.085205078125,-0.3353658616542816,0.396341472864151,-0.5182926654815674,3.299999952316284,27.299999237060547,-12.0,39.450294494628906,0,
 1568688,0.0419921875,-0.962158203125,0.089599609375,-0.5792682766914368,0.24390244483947754,-0.3353658616542816,3.299999952316284,27.299999237060547,-12.0,39.35445022583008,0,
 1568698,0.05029296875,-0.965576171875,0.08349609375,-0.030487805604934692,0.12195122241973877,-0.12195122241973877,2.4000000953674316,27.450000762939453,-13.199999809265137,39.49821853637695,0,
 1568708,0.05029296875,-0.9677734375,0.087646484375,-0.27439025044441223,0.27439025044441223,-0.15243902802467346,3.299999952316284,26.100000381469727,-12.0,39.35445022583008,0,
 1568718,0.0498046875,-0.968994140625,0.085693359375,-0.27439025044441223,0.4573170840740204,-0.3048780560493469,2.8499999046325684,26.25,-13.949999809265137,39.450294494628906,0,
 1568728,0.044921875,-0.9677734375,0.08447265625,-0.3048780560493469,0.24390244483947754,-0.27439025044441223,3.5999999046325684,27.899999618530273,-13.199999809265137,39.64198684692383,0,
 1568738,0.047119140625,-0.962646484375,0.090087890625,-0.27439025044441223,0.24390244483947754,-0.6402438879013062,3.5999999046325684,27.899999618530273,-13.199999809265137,39.450294494628906,0,
 1568748,0.0380859375,-0.965087890625,0.0869140625,-0.3048780560493469,0.396341472864151,-0.9756097793579102,3.1500000953674316,28.649999618530273,-13.199999809265137,39.450294494628906,0,
 1568758,0.04736328125,-0.9677734375,0.088134765625,0.15243902802467346,0.4878048896789551,-1.1280487775802612,0.44999998807907104,27.899999618530273,-13.199999809265137,39.30652618408203,0,
 1568768,0.05126953125,-0.964599609375,0.09033203125,0.12195122241973877,0.6707317233085632,-1.2804877758026123,1.649999976158142,28.200000762939453,-11.699999809265137,39.450294494628906,0,
 1568778,0.04638671875,-0.968994140625,0.093505859375,0.15243902802467346,0.3658536672592163,-2.1341464519500732,1.649999976158142,28.200000762939453,-11.699999809265137,39.2106819152832,0,
 1568788,0.047607421875,-0.974853515625,0.09423828125,-0.24390244483947754,0.3353658616542816,-2.9268293380737305,3.75,26.100000381469727,-12.0,39.450294494628906,0,
 1568798,0.042724609375,-0.9677734375,0.091796875,0.12195122241973877,0.18292683362960815,-3.1402440071105957,2.0999999046325684,26.700000762939453,-12.149999618530273,39.64198684692383,0,
 1568808,0.04248046875,-0.973388671875,0.086669921875,-0.24390244483947754,0.030487805604934692,-4.542683124542236,0.75,27.600000381469727,-12.300000190734863,39.450294494628906,0,
 1568818,0.04248046875,-0.9736328125,0.083251953125,0.27439025044441223,0.24390244483947754,-6.219512462615967,0.8999999761581421,28.649999618530273,-13.649999618530273,39.49821853637695,0,
 1568828,0.037353515625,-0.97314453125,0.087890625,0.4878048896789551,0.27439025044441223,-8.689024925231934,2.25,26.850000381469727,-12.75,39.35445022583008,0,
 1568838,0.031005859375,-0.970458984375,0.092529296875,0.792682945728302,-0.27439025044441223,-11.006097793579102,3.9000000953674316,28.649999618530273,-12.899999618530273,39.64198684692383,0,
 1568848,0.0283203125,-0.985107421875,0.089111328125,1.402438998222351,-0.396341472864151,-13.445122718811035,3.299999952316284,28.049999237060547,-12.75,39.450294494628906,0,
 1568858,0.044921875,-0.9619140625,0.09033203125,1.6768293380737305,-0.8536585569381714,-16.09756088256836,2.8499999046325684,29.399999618530273,-12.449999809265137,39.35445022583008,0,
 1568868,0.049072265625,-0.961181640625,0.0859375,1.097561001777649,-0.396341472864151,-18.38414764404297,2.8499999046325684,29.399999618530273,-12.449999809265137,39.35445022583008,0,
 1568878,0.07421875,-0.9775390625,0.094970703125,1.920731782913208,1.1585365533828735,-18.231708526611328,1.649999976158142,26.700000762939453,-12.899999618530273,39.49821853637695,0,
 1568888,0.099609375,-0.972900390625,0.085693359375,1.0365853309631348,1.0670732259750366,-16.341463088989258,2.25,27.299999237060547,-12.300000190734863,39.35445022583008,0,
 1568898,0.117431640625,-0.9443359375,0.0830078125,-0.12195122241973877,-0.09146341681480408,-13.841464042663574,2.25,26.850000381469727,-11.550000190734863,39.450294494628906,0,
 1568908,0.09326171875,-0.945068359375,0.0595703125,-0.396341472864151,0.15243902802467346,-11.40243911743164,2.25,26.850000381469727,-11.550000190734863,39.35445022583008,0,
 1568918,0.083984375,-0.968505859375,0.1005859375,0.4878048896789551,0.5182926654815674,-8.59756088256836,1.7999999523162842,28.049999237060547,-13.800000190734863,39.450294494628906,0,
 1568928,0.09619140625,-0.94970703125,0.0771484375,2.1646342277526855,-0.060975611209869385,-6.371951580047607,1.5,27.600000381469727,-12.75,39.35445022583008,0,
 1568938,0.121826171875,-0.9892578125,0.0654296875,2.0426828861236572,-0.396341472864151,-4.390244007110596,2.0999999046325684,26.700000762939453,-10.949999809265137,39.64198684692383,0,
 1568948,0.08837890625,-0.975830078125,0.083251953125,4.786585330963135,-0.15243902802467346,-4.542683124542236,1.5,27.600000381469727,-13.5,39.546142578125,0,
 1568958,0.075439453125,-0.97900390625,0.084228515625,6.310975551605225,-0.6402438879013062,-3.5365853309631348,2.25,27.299999237060547,-12.75,39.2106819152832,0,
 1568968,0.076416015625,-0.96533203125,0.084228515625,6.920732021331787,-0.9756097793579102,-4.237804889678955,2.25,23.700000762939453,-14.25,39.64198684692383,0,
 1568978,0.066650390625,-0.97119140625,0.09521484375,7.042683124542236,-0.5792682766914368,-5.213414669036865,1.2000000476837158,27.899999618530273,-12.449999809265137,39.546142578125,0,
 1568988,0.073486328125,-0.9609375,0.104248046875,7.378048896789551,-0.060975611209869385,-5.9146342277526855,1.649999976158142,27.0,-12.449999809265137,39.35445022583008,0,
 1568998,0.08203125,-0.973388671875,0.103759765625,7.286585330963135,-0.7012194991111755,-6.95121955871582,1.649999976158142,27.0,-12.449999809265137,39.35445022583008,0,
 1569008,0.075927734375,-0.94970703125,0.10986328125,6.280488014221191,-0.9146341681480408,-8.231707572937012,0.44999998807907104,26.700000762939453,-13.199999809265137,39.35445022583008,0,
 1569018,0.084716796875,-0.9658203125,0.117431640625,6.890244007110596,-0.6097561120986938,-9.146341323852539,1.2000000476837158,27.450000762939453,-14.399999618530273,39.450294494628906,0,
 1569028,0.092041015625,-0.945556640625,0.107421875,5.152439117431641,-0.21341463923454285,-7.682927131652832,1.649999976158142,26.25,-13.949999809265137,39.35445022583008,0,
 1569038,0.104736328125,-0.955322265625,0.113525390625,6.097560882568359,0.5792682766914368,-6.097560882568359,1.649999976158142,26.25,-13.949999809265137,39.450294494628906,0,
 1569048,0.115234375,-0.96142578125,0.116943359375,4.02439022064209,0.8841463327407837,-2.865853786468506,1.7999999523162842,26.100000381469727,-13.050000190734863,39.450294494628906,0,
 1569058,0.105712890625,-0.942626953125,0.12353515625,2.9573171138763428,1.0365853309631348,-0.12195122241973877,1.649999976158142,27.0,-12.449999809265137,39.30652618408203,0,
 1569068,0.105712890625,-0.973388671875,0.120361328125,3.2926828861236572,0.6707317233085632,2.591463565826416,3.1500000953674316,26.25,-15.449999809265137,39.49821853637695,0,
 1569078,0.099609375,-0.96728515625,0.1103515625,2.103658676147461,0.030487805604934692,3.5060975551605225,2.0999999046325684,25.799999237060547,-11.699999809265137,39.2106819152832,0,
 1569088,0.098876953125,-0.97705078125,0.1123046875,1.3109756708145142,-0.09146341681480408,3.4146342277526855,1.649999976158142,27.0,-13.199999809265137,39.49821853637695,0,
 1569098,0.086181640625,-0.953369140625,0.102783203125,1.4634146690368652,0.12195122241973877,3.5365853309631348,0.75,26.399999618530273,-12.0,39.35445022583008,0,
 1569108,0.089599609375,-0.94970703125,0.113037109375,1.4634146690368652,0.3658536672592163,4.634146213531494,2.4000000953674316,27.0,-11.699999809265137,39.35445022583008,0,
 1569118,0.083984375,-0.95166015625,0.113037109375,0.5487805008888245,0.12195122241973877,4.542683124542236,1.5,27.299999237060547,-13.050000190734863,39.689910888671875,0,
 1569128,0.076171875,-0.957763671875,0.116943359375,0.3658536672592163,0.24390244483947754,3.5975611209869385,1.5,27.299999237060547,-13.050000190734863,39.49821853637695,0,
 1569138,0.07275390625,-0.97509765625,0.1103515625,-0.4878048896789551,0.4878048896789551,1.432926893234253,1.0499999523162842,27.600000381469727,-14.25,39.35445022583008,0,
 1569148,0.074951171875,-0.96533203125,0.110595703125,-0.21341463923454285,0.3048780560493469,-0.060975611209869385,1.0499999523162842,26.399999618530273,-12.300000190734863,39.2106819152832,0,
 1569158,0.075439453125,-0.96630859375,0.116455078125,-0.5792682766914368,0.12195122241973877,-0.8841463327407837,-0.30000001192092896,27.600000381469727,-11.550000190734863,39.35445022583008,0,
 1569168,0.080078125,-0.963623046875,0.116455078125,-1.8292683362960815,0.4573170840740204,-1.6463414430618286,-0.30000001192092896,27.600000381469727,-11.550000190734863,39.30652618408203,0,
 1569178,0.07861328125,-0.96142578125,0.111083984375,-1.737804889678955,0.5487805008888245,-2.1646342277526855,0.15000000596046448,26.25,-12.899999618530273,39.450294494628906,0,
 1569188,0.083984375,-0.9638671875,0.1064453125,-1.8292683362960815,0.5182926654815674,-2.408536672592163,1.649999976158142,26.25,-11.699999809265137,39.689910888671875,0,
 1569198,0.101806640625,-0.95068359375,0.11376953125,-2.0426828861236572,-0.24390244483947754,-1.6768293380737305,-0.30000001192092896,27.600000381469727,-13.5,39.11483383178711,0,
 1569208,0.090576171875,-0.966552734375,0.124267578125,-3.3841464519500732,0.09146341681480408,-1.1890244483947754,1.2000000476837158,25.799999237060547,-13.649999618530273,39.450294494628906,0,
 1569218,0.099853515625,-0.957275390625,0.112060546875,-3.47560977935791,0.4878048896789551,-0.12195122241973877,-0.44999998807907104,27.450000762939453,-12.449999809265137,39.689910888671875,0,
 1569228,0.1005859375,-0.962158203125,0.10107421875,-3.4146342277526855,0.5487805008888245,0.792682945728302,2.0999999046325684,27.0,-13.649999618530273,39.30652618408203,0,
 1569238,0.084228515625,-0.95654296875,0.1005859375,-2.591463565826416,0.7317073345184326,1.5243902206420898,1.7999999523162842,25.350000381469727,-13.5,39.35445022583008,0,
 1569248,0.09521484375,-0.955810546875,0.093994140625,-2.1341464519500732,0.5487805008888245,1.7987805604934692,0.8999999761581421,27.0,-13.649999618530273,39.11483383178711,0,
 1569258,0.087890625,-0.95751953125,0.1005859375,-1.7073171138763428,0.4573170840740204,1.920731782913208,0.8999999761581421,27.0,-13.649999618530273,39.2106819152832,0,
 1569269,0.083740234375,-0.964599609375,0.1025390625,-1.0670732259750366,0.4573170840740204,1.6463414430618286,0.8999999761581421,27.450000762939453,-12.149999618530273,39.64198684692383,0,
 1569279,0.079345703125,-0.963623046875,0.104736328125,-0.3658536672592163,0.3658536672592163,1.5548781156539917,3.0,25.649999618530273,-14.25,39.35445022583008,0,
 1569289,0.079345703125,-0.970703125,0.110595703125,-1.0365853309631348,0.4573170840740204,0.4268292784690857,1.7999999523162842,26.850000381469727,-14.25,39.35445022583008,0,
 1569299,0.08203125,-0.96875,0.11181640625,-0.6707317233085632,0.396341472864151,0.12195122241973877,1.7999999523162842,26.850000381469727,-14.25,39.2106819152832,0,
 1569309,0.082275390625,-0.9658203125,0.10498046875,-1.0060975551605225,0.3353658616542816,-0.6097561120986938,2.0999999046325684,28.200000762939453,-11.699999809265137,39.450294494628906,0,
 1569319,0.084228515625,-0.96142578125,0.10595703125,-1.402438998222351,0.27439025044441223,-1.1280487775802612,1.0499999523162842,26.100000381469727,-13.5,39.49821853637695,0,
 1569329,0.0888671875,-0.96435546875,0.10546875,-0.7621951103210449,0.3353658616542816,-1.402438998222351,1.649999976158142,26.25,-12.899999618530273,39.450294494628906,0,
 1569339,0.087646484375,-0.959228515625,0.100830078125,-0.7317073345184326,0.3353658616542816,-1.2195122241973877,1.5,26.850000381469727,-14.25,39.35445022583008,0,
 1569349,0.086181640625,-0.95849609375,0.10400390625,-1.097561001777649,0.5487805008888245,-1.432926893234253,0.8999999761581421,27.0,-12.899999618530273,39.162757873535156,0,
 1569359,0.08984375,-0.958740234375,0.106689453125,-0.792682945728302,0.27439025044441223,-0.4878048896789551,0.44999998807907104,27.450000762939453,-13.649999618530273,39.49821853637695,0,
 1569369,0.089599609375,-0.9599609375,0.1044921875,-0.9146341681480408,0.5487805008888245,-0.09146341681480408,3.299999952316284,27.299999237060547,-13.5,39.2106819152832,0,
 1569379,0.09423828125,-0.96240234375,0.10595703125,-0.9146341681480408,0.4573170840740204,0.5487805008888245,2.8499999046325684,26.25,-17.700000762939453,39.450294494628906,0,
 1569389,0.093505859375,-0.957275390625,0.10400390625,-0.6707317233085632,0.5182926654815674,0.8231707215309143,2.8499999046325684,26.25,-17.700000762939453,39.35445022583008,0,
 1569399,0.08544921875,-0.961181640625,0.1005859375,-0.5792682766914368,0.6097561120986938,1.3719512224197388,1.7999999523162842,27.299999237060547,-12.300000190734863,39.2106819152832,0,
 1569409,0.087158203125,-0.960693359375,0.098876953125,-0.6097561120986938,0.7012194991111755,1.432926893234253,1.0499999523162842,25.649999618530273,-13.050000190734863,39.49821853637695,0,
 1569419,0.08935546875,-0.9658203125,0.104736328125,-0.4878048896789551,0.7621951103210449,1.2195122241973877,0.30000001192092896,27.600000381469727,-14.550000190734863,39.35445022583008,0,
 1569429,0.082763671875,-0.9638671875,0.102783203125,0.030487805604934692,0.5487805008888245,0.792682945728302,0.30000001192092896,27.600000381469727,-14.550000190734863,39.450294494628906,0,
 1569439,0.0810546875,-0.963623046875,0.107666015625,-0.24390244483947754,0.6402438879013062,0.6707317233085632,2.25,28.049999237060547,-13.5,39.30652618408203,0,
