timestamp,accl_x,accl_y,accl_z,gyro_x,gyro_y,gyro_z,mag_x,mag_y,mag_z,temp,emg,
 2925963,0.04833984375,-0.96435546875,0.146484375,-2.896341562271118,-0.030487805604934692,-0.3353658616542816,4.949999809265137,28.799999237060547,3.75,39.2106819152832,0,
 2925973,0.044189453125,-0.96435546875,0.145263671875,-3.0182926654815674,-0.21341463923454285,-0.030487805604934692,5.25,30.0,3.299999952316284,39.450294494628906,0,
 2925983,0.041015625,-0.95166015625,0.14306640625,-3.4146342277526855,-0.3048780560493469,0.060975611209869385,4.650000095367432,27.899999618530273,3.1500000953674316,39.2106819152832,0,
 2925993,0.046142578125,-0.9599609375,0.1328125,-3.2926828861236572,0.396341472864151,0.4268292784690857,5.400000095367432,29.850000381469727,4.949999809265137,39.49821853637695,0,
 2926003,0.044677734375,-0.953857421875,0.1337890625,-3.1402440071105957,0.060975611209869385,0.3658536672592163,5.699999809265137,29.25,3.75,39.162757873535156,0,
 2926013,0.041015625,-0.956787109375,0.134521484375,-2.6524391174316406,0.15243902802467346,0.4573170840740204,4.949999809265137,28.5,4.050000190734863,39.64198684692383,0,
 2926023,0.041748046875,-0.95947265625,0.135986328125,-2.9268293380737305,0.060975611209869385,0.7317073345184326,4.349999904632568,27.899999618530273,4.199999809265137,39.450294494628906,0,
 2926033,0.04052734375,-0.959228515625,0.129638671875,-2.6524391174316406,0.09146341681480408,0.27439025044441223,4.949999809265137,29.700000762939453,3.299999952316284,39.30652618408203,0,
 2926043,0.044677734375,-0.96044921875,0.1357421875,-1.920731782913208,0.4878048896789551,0.5792682766914368,4.199999809265137,30.450000762939453,3.75,39.30652618408203,0,
 2926053,0.05126953125,-0.957763671875,0.135498046875,-1.3414634466171265,-0.030487805604934692,0.4878048896789551,4.199999809265137,30.450000762939453,3.75,39.2106819152832,0,
 2926063,0.037353515625,-0.96337890625,0.131103515625,-1.1280487775802612,0.030487805604934692,0.5182926654815674,5.400000095367432,30.600000381469727,3.1500000953674316,39.450294494628906,0,
 2926073,0.04443359375,-0.965087890625,0.138916015625,-0.6402438879013062,0.3353658616542816,0.15243902802467346,7.199999809265137,26.850000381469727,1.0499999523162842,39.450294494628906,0,
 2926083,0.04345703125,-0.957763671875,0.1376953125,-0.7621951103210449,0.18292683362960815,0.4878048896789551,5.25,28.049999237060547,3.299999952316284,39.35445022583008,0,
 2926093,0.0439453125,-0.95947265625,0.13818359375,-0.7317073345184326,0.3658536672592163,0.24390244483947754,5.25,28.049999237060547,3.299999952316284,39.2106819152832,0,
 2926103,0.042724609375,-0.960693359375,0.138427734375,-0.18292683362960815,0.5487805008888245,0.0,4.199999809265137,29.700000762939453,4.800000190734863,39.35445022583008,0,
 2926113,0.038330078125,-0.95654296875,0.134765625,-0.4878048896789551,0.060975611209869385,0.09146341681480408,4.650000095367432,29.399999618530273,3.450000047683716,39.35445022583008,0,
 2926123,0.046630859375,-0.962646484375,0.14013671875,-0.030487805604934692,0.4573170840740204,-0.030487805604934692,6.599999904632568,28.649999618530273,3.9000000953674316,39.64198684692383,0,
 2926133,0.03857421875,-0.9599609375,0.142333984375,-0.15243902802467346,0.3048780560493469,-0.18292683362960815,6.599999904632568,28.649999618530273,3.9000000953674316,39.737831115722656,0,
 2926143,0.045654296875,-0.95458984375,0.141357421875,0.060975611209869385,0.27439025044441223,-0.24390244483947754,5.400000095367432,31.049999237060547,1.9500000476837158,39.162757873535156,0,
 2926153,0.040771484375,-0.954345703125,0.141845703125,0.3353658616542816,0.3353658616542816,-0.060975611209869385,4.199999809265137,30.75,3.0,39.49821853637695,0,
 2926163,0.04638671875,-0.961181640625,0.138671875,0.15243902802467346,0.6707317233085632,-0.3658536672592163,3.5999999046325684,29.399999618530273,3.1500000953674316,39.49821853637695,0,
 2926173,0.040771484375,-0.960205078125,0.138916015625,0.09146341681480408,0.4573170840740204,-0.030487805604934692,3.9000000953674316,28.649999618530273,1.9500000476837158,39.35445022583008,0,
 2926183,0.04833984375,-0.95703125,0.13232421875,0.4573170840740204,0.5792682766914368,0.030487805604934692,3.75,29.700000762939453,3.299999952316284,39.49821853637695,0,
 2926193,0.04296875,-0.9541015625,0.1396484375,0.9451219439506531,0.4268292784690857,0.24390244483947754,5.25,30.0,3.299999952316284,39.35445022583008,0,
 2926203,0.047607421875,-0.962158203125,0.1416015625,0.7012194991111755,0.3658536672592163,0.8841463327407837,6.0,30.0,4.050000190734863,39.35445022583008,0,
 2926213,0.044189453125,-0.964111328125,0.141845703125,0.8231707215309143,0.4878048896789551,0.3658536672592163,5.25,28.5,4.050000190734863,39.64198684692383,0,
 2926223,0.04052734375,-0.958740234375,0.1484375,0.792682945728302,0.4878048896789551,0.5487805008888245,5.25,28.5,4.050000190734863,39.35445022583008,0,
 2926233,0.05029296875,-0.962646484375,0.1416015625,0.5182926654815674,0.5487805008888245,0.6097561120986938,5.849999904632568,30.299999237060547,3.450000047683716,39.35445022583008,0,
 2926243,0.046875,-0.961181640625,0.14111328125,0.27439025044441223,0.27439025044441223,0.27439025044441223,5.099999904632568,29.100000381469727,2.4000000953674316,39.30652618408203,0,
 2926253,0.037841796875,-0.962158203125,0.14453125,-0.12195122241973877,0.24390244483947754,0.18292683362960815,5.25,28.5,3.0,39.2106819152832,0,
 2926263,0.041259765625,-0.9599609375,0.139404296875,0.21341463923454285,0.4573170840740204,0.24390244483947754,5.25,28.5,3.0,39.35445022583008,0,
 2926273,0.042236328125,-0.966064453125,0.14306640625,0.0,0.6707317233085632,0.5487805008888245,6.449999809265137,28.5,1.0499999523162842,39.30652618408203,0,
 2926283,0.041259765625,-0.95703125,0.13916015625,0.09146341681480408,0.7317073345184326,0.3353658616542816,5.099999904632568,29.100000381469727,3.9000000953674316,39.35445022583008,0,
 2926293,0.045166015625,-0.9609375,0.1396484375,-0.3658536672592163,0.7317073345184326,0.4268292784690857,5.25,30.75,4.050000190734863,39.11483383178711,0,
 2926303,0.04638671875,-0.95703125,0.13720703125,-0.030487805604934692,0.5487805008888245,0.6097561120986938,5.25,30.75,4.050000190734863,39.35445022583008,0,
 2926313,0.043701171875,-0.95751953125,0.143798828125,0.060975611209869385,0.6402438879013062,0.4268292784690857,5.25,28.5,2.549999952316284,39.35445022583008,0,
 2926323,0.041748046875,-0.957275390625,0.140869140625,0.09146341681480408,0.4878048896789551,0.4878048896789551,5.699999809265137,29.700000762939453,3.75,39.2106819152832,0,
 2926333,0.04296875,-0.964111328125,0.141845703125,0.09146341681480408,0.6097561120986938,0.4268292784690857,4.349999904632568,28.649999618530273,4.199999809265137,39.35445022583008,0,
 2926343,0.050048828125,-0.964599609375,0.136474609375,0.3353658616542816,0.7317073345184326,0.4878048896789551,4.5,28.5,2.25,39.2106819152832,0,
 2926353,0.043701171875,-0.957763671875,0.142578125,0.030487805604934692,0.7012194991111755,0.6402438879013062,4.5,28.5,2.25,39.35445022583008,0,
 2926363,0.041259765625,-0.968994140625,0.14404296875,-0.12195122241973877,0.5487805008888245,0.7621951103210449,5.400000095367432,29.399999618530273,4.199999809265137,39.450294494628906,0,
 2926373,0.040283203125,-0.962890625,0.1357421875,-0.21341463923454285,0.5487805008888245,0.6707317233085632,4.5,31.200000762939453,1.0499999523162842,39.546142578125,0,
 2926383,0.044677734375,-0.956298828125,0.142333984375,-0.4268292784690857,0.7012194991111755,0.9146341681480408,4.650000095367432,29.399999618530273,3.1500000953674316,39.162757873535156,0,
 2926393,0.042236328125,-0.956787109375,0.1357421875,-0.27439025044441223,0.4573170840740204,0.8231707215309143,4.650000095367432,29.399999618530273,3.1500000953674316,39.11483383178711,0,
 2926403,0.045166015625,-0.957763671875,0.1396484375,0.0,0.396341472864151,0.6097561120986938,3.75,29.700000762939453,1.7999999523162842,39.35445022583008,0,
 2926413,0.04638671875,-0.960205078125,0.140625,0.396341472864151,0.6707317233085632,0.9146341681480408,5.099999904632568,29.399999618530273,1.9500000476837158,39.35445022583008,0,
 2926423,0.0419921875,-0.96044921875,0.142333984375,0.4573170840740204,0.4573170840740204,0.7012194991111755,3.5999999046325684,29.399999618530273,3.450000047683716,39.450294494628906,0,
 2926433,0.04736328125,-0.957275390625,0.1376953125,0.7317073345184326,0.7012194991111755,1.0365853309631348,3.5999999046325684,29.399999618530273,3.450000047683716,39.49821853637695,0,
 2926443,0.0400390625,-0.9560546875,0.141357421875,0.9146341681480408,0.792682945728302,1.2804877758026123,4.349999904632568,29.850000381469727,3.1500000953674316,39.11483383178711,0,
 2926453,0.0400390625,-0.963134765625,0.142333984375,1.1890244483947754,0.792682945728302,1.5548781156539917,5.099999904632568,29.100000381469727,2.4000000953674316,39.35445022583008,0,
 2926463,0.0439453125,-0.95849609375,0.144775390625,0.7317073345184326,0.4268292784690857,1.3414634466171265,3.9000000953674316,30.600000381469727,3.1500000953674316,39.49821853637695,0,
 2926473,0.040283203125,-0.959228515625,0.139404296875,0.9756097793579102,0.6707317233085632,1.2804877758026123,3.9000000953674316,30.600000381469727,3.1500000953674316,39.01898956298828,0,
 2926483,0.03955078125,-0.9580078125,0.140625,0.8841463327407837,0.7012194991111755,1.0670732259750366,5.849999904632568,29.399999618530273,2.700000047683716,39.30652618408203,0,
 2926493,0.04150390625,-0.9619140625,0.14501953125,0.8231707215309143,0.8841463327407837,1.3414634466171265,5.099999904632568,29.850000381469727,3.1500000953674316,39.546142578125,0,
 2926503,0.0361328125,-0.966796875,0.135498046875,0.6097561120986938,0.5182926654815674,1.097561001777649,5.400000095367432,28.649999618530273,2.4000000953674316,39.450294494628906,0,
 2926513,0.044189453125,-0.959228515625,0.13427734375,1.3109756708145142,0.792682945728302,0.9451219439506531,5.699999809265137,28.799999237060547,3.0,39.35445022583008,0,
 2926523,0.0439453125,-0.968017578125,0.139892578125,1.0365853309631348,1.0365853309631348,0.8231707215309143,5.699999809265137,28.799999237060547,3.0,39.30652618408203,0,
 2926533,0.037841796875,-0.955078125,0.140380859375,1.7987805604934692,0.9756097793579102,0.6097561120986938,5.699999809265137,29.700000762939453,2.25,39.35445022583008,0,
 2926543,0.0380859375,-0.9609375,0.143798828125,1.3719512224197388,1.2195122241973877,1.0670732259750366,5.849999904632568,30.299999237060547,3.1500000953674316,39.30652618408203,0,
 2926553,0.043701171875,-0.955810546875,0.147705078125,1.8292683362960815,0.7317073345184326,0.4573170840740204,5.099999904632568,30.299999237060547,1.9500000476837158,39.2106819152832,0,
 2926563,0.039794921875,-0.963623046875,0.14453125,1.3719512224197388,1.0670732259750366,0.7317073345184326,5.099999904632568,30.299999237060547,1.9500000476837158,39.35445022583008,0,
 2926573,0.041015625,-0.95654296875,0.147216796875,1.5243902206420898,0.6097561120986938,0.7317073345184326,5.099999904632568,27.899999618530273,4.199999809265137,39.2106819152832,0,
 2926583,0.03857421875,-0.96484375,0.148193359375,1.4939024448394775,0.8231707215309143,0.8841463327407837,3.9000000953674316,27.0,0.8999999761581421,39.162757873535156,0,
 2926593,0.034423828125,-0.96044921875,0.150390625,1.2195122241973877,0.7012194991111755,0.6402438879013062,4.349999904632568,29.100000381469727,2.4000000953674316,39.450294494628906,0,
 2926603,0.037353515625,-0.96240234375,0.146240234375,0.8536585569381714,0.8536585569381714,0.9146341681480408,4.349999904632568,29.100000381469727,2.4000000953674316,39.30652618408203,0,
 2926614,0.042236328125,-0.953125,0.14892578125,1.0365853309631348,0.792682945728302,0.4878048896789551,5.25,30.0,4.5,39.35445022583008,0,
 2926624,0.0400390625,-0.96044921875,0.14501953125,0.7012194991111755,0.6097561120986938,0.24390244483947754,5.699999809265137,29.700000762939453,1.7999999523162842,39.162757873535156,0,
 2926634,0.04052734375,-0.958740234375,0.1474609375,0.9146341681480408,0.5792682766914368,0.792682945728302,5.25,29.25,1.7999999523162842,39.162757873535156,0,
 2926644,0.045654296875,-0.963623046875,0.143310546875,1.1280487775802612,0.6402438879013062,0.27439025044441223,4.199999809265137,29.700000762939453,3.75,39.30652618408203,0,
 2926654,0.035400390625,-0.9638671875,0.146484375,1.1280487775802612,0.27439025044441223,0.5182926654815674,4.949999809265137,28.5,3.299999952316284,39.11483383178711,0,
 2926664,0.0439453125,-0.962158203125,0.143310546875,1.2195122241973877,0.6097561120986938,0.6097561120986938,3.75,30.450000762939453,3.75,39.35445022583008,0,
 2926674,0.04638671875,-0.958984375,0.146484375,1.1585365533828735,0.4573170840740204,0.7012194991111755,6.449999809265137,28.799999237060547,3.75,39.450294494628906,0,
 2926684,0.04150390625,-0.952392578125,0.158447265625,1.6768293380737305,0.6402438879013062,0.3353658616542816,7.050000190734863,28.649999618530273,0.15000000596046448,39.2106819152832,0,
 2926694,0.021240234375,-0.96826171875,0.11962890625,1.9817073345184326,0.18292683362960815,0.6402438879013062,7.050000190734863,28.649999618530273,0.15000000596046448,39.450294494628906,0,
 2926704,0.03515625,-0.96240234375,0.16455078125,1.9512195587158203,0.396341472864151,0.7012194991111755,5.400000095367432,30.299999237060547,1.649999976158142,39.2106819152832,0,
 2926714,0.036865234375,-0.95849609375,0.14697265625,1.4634146690368652,0.15243902802467346,0.4878048896789551,3.5999999046325684,29.100000381469727,3.9000000953674316,39.450294494628906,0,
 2926724,0.036865234375,-0.9560546875,0.15673828125,0.9146341681480408,0.6402438879013062,0.4268292784690857,3.1500000953674316,30.600000381469727,2.4000000953674316,39.30652618408203,0,
 2926734,0.0458984375,-0.957763671875,0.15966796875,1.0670732259750366,0.396341472864151,0.5182926654815674,3.1500000953674316,30.600000381469727,2.4000000953674316,39.01898956298828,0,
 2926744,0.0361328125,-0.957275390625,0.149658203125,0.5182926654815674,0.12195122241973877,0.5487805008888245,5.699999809265137,30.0,3.0,39.35445022583008,0,
 2926754,0.042724609375,-0.958740234375,0.154541015625,0.9756097793579102,0.3048780560493469,1.0060975551605225,4.650000095367432,30.600000381469727,3.1500000953674316,39.2106819152832,0,
 2926764,0.048828125,-0.9560546875,0.14990234375,0.9146341681480408,0.18292683362960815,0.6097561120986938,5.25,30.450000762939453,3.75,39.64198684692383,0,
 2926774,0.041259765625,-0.964111328125,0.154052734375,0.9756097793579102,0.15243902802467346,0.4268292784690857,5.25,30.450000762939453,3.75,39.2106819152832,0,
 2926784,0.032958984375,-0.970703125,0.15771484375,0.8841463327407837,0.060975611209869385,0.6402438879013062,4.949999809265137,30.0,2.25,39.11483383178711,0,
 2926794,0.0361328125,-0.963134765625,0.158203125,0.4268292784690857,0.18292683362960815,0.21341463923454285,4.5,28.049999237060547,1.7999999523162842,39.30652618408203,0,
 2926804,0.04052734375,-0.960693359375,0.158203125,-0.24390244483947754,0.0,0.09146341681480408,6.599999904632568,29.850000381469727,2.4000000953674316,39.450294494628906,0,
 2926814,0.042724609375,-0.959228515625,0.15234375,-1.3414634466171265,0.18292683362960815,-0.18292683362960815,7.050000190734863,28.649999618530273,1.2000000476837158,39.35445022583008,0,
 2926824,0.038330078125,-0.958740234375,0.1552734375,-1.7987805604934692,0.3353658616542816,-0.060975611209869385,7.050000190734863,28.649999618530273,1.2000000476837158,39.450294494628906,0,
 2926834,0.037109375,-0.9619140625,0.15380859375,-1.8597561120986938,0.27439025044441223,-0.27439025044441223,5.400000095367432,29.850000381469727,1.649999976158142,39.162757873535156,0,
 2926844,0.04150390625,-0.964111328125,0.150390625,-1.4634146690368652,0.21341463923454285,-0.09146341681480408,7.050000190734863,29.100000381469727,3.450000047683716,39.11483383178711,0,
 2926854,0.03857421875,-0.9560546875,0.1494140625,-1.6158536672592163,0.3353658616542816,0.030487805604934692,4.349999904632568,27.0,3.9000000953674316,39.450294494628906,0,
 2926864,0.037353515625,-0.961669921875,0.153076171875,-1.8902438879013062,0.09146341681480408,0.09146341681480408,4.349999904632568,27.0,3.9000000953674316,39.35445022583008,0,
 2926874,0.043212890625,-0.95361328125,0.153076171875,-2.1646342277526855,0.0,-0.12195122241973877,5.25,29.25,2.549999952316284,39.2106819152832,0,
 2926884,0.041748046875,-0.958740234375,0.15185546875,-2.22560977935791,0.12195122241973877,-0.15243902802467346,6.0,29.700000762939453,3.75,39.2106819152832,0,
 2926894,0.0400390625,-0.9619140625,0.147705078125,-2.103658676147461,-0.030487805604934692,-0.15243902802467346,4.199999809265137,27.299999237060547,0.30000001192092896,39.30652618408203,0,
 2926904,0.0390625,-0.96240234375,0.153564453125,-2.6524391174316406,0.6097561120986938,-0.27439025044441223,4.199999809265137,27.299999237060547,0.30000001192092896,39.35445022583008,0,
 2926914,0.047607421875,-0.960205078125,0.144775390625,-2.6219513416290283,0.15243902802467346,-0.4268292784690857,7.199999809265137,28.5,4.050000190734863,39.30652618408203,0,
 2926924,0.041015625,-0.9619140625,0.146484375,-2.7134146690368652,0.09146341681480408,-0.3658536672592163,5.099999904632568,31.350000381469727,2.4000000953674316,39.49821853637695,0,
 2926934,0.043701171875,-0.9638671875,0.14794921875,-2.8353660106658936,0.24390244483947754,-0.18292683362960815,6.300000190734863,30.600000381469727,2.700000047683716,39.2106819152832,0,
 2926944,0.037841796875,-0.96630859375,0.150390625,-2.378048896789551,0.12195122241973877,-0.3048780560493469,5.25,28.5,3.299999952316284,39.450294494628906,0,
 2926954,0.03955078125,-0.967041015625,0.149658203125,-2.5304877758026123,-0.27439025044441223,-0.27439025044441223,6.0,28.5,2.549999952316284,39.35445022583008,0,
 2926964,0.045166015625,-0.9609375,0.1474609375,-2.5,0.12195122241973877,-0.396341472864151,5.099999904632568,28.649999618530273,2.700000047683716,39.11483383178711,0,
 2926974,0.044677734375,-0.96875,0.149169921875,-3.2012195587158203,0.12195122241973877,-0.030487805604934692,5.25,29.25,3.299999952316284,39.30652618408203,0,
 2926984,0.044189453125,-0.95263671875,0.145263671875,-2.7134146690368652,-0.12195122241973877,0.09146341681480408,5.25,28.799999237060547,3.299999952316284,39.2106819152832,0,
 2926994,0.039306640625,-0.960693359375,0.150390625,-3.1097562313079834,0.030487805604934692,-0.12195122241973877,5.25,28.799999237060547,3.299999952316284,39.450294494628906,0,
 2927004,0.04052734375,-0.959716796875,0.1416015625,-2.5609755516052246,0.21341463923454285,-0.3048780560493469,6.300000190734863,29.399999618530273,2.4000000953674316,39.64198684692383,0,
 2927014,0.038330078125,-0.95849609375,0.140625,-2.378048896789551,0.21341463923454285,-0.15243902802467346,5.400000095367432,29.399999618530273,3.450000047683716,39.450294494628906,0,
 2927024,0.041259765625,-0.9521484375,0.140380859375,-1.9512195587158203,0.24390244483947754,-0.4268292784690857,5.849999904632568,27.450000762939453,3.1500000953674316,38.971065521240234,0,
 2927034,0.045166015625,-0.957763671875,0.14404296875,-2.1341464519500732,0.18292683362960815,-0.15243902802467346,5.849999904632568,27.450000762939453,3.1500000953674316,39.64198684692383,0,
 2927044,0.037353515625,-0.9599609375,0.1416015625,-1.7987805604934692,0.060975611209869385,-0.15243902802467346,4.5,28.5,4.050000190734863,39.30652618408203,0,
 2927054,0.041259765625,-0.959716796875,0.14501953125,-1.6768293380737305,0.12195122241973877,0.030487805604934692,4.199999809265137,29.700000762939453,2.549999952316284,39.2106819152832,0,
 2927064,0.051025390625,-0.96435546875,0.148193359375,-1.5243902206420898,0.030487805604934692,-0.030487805604934692,6.449999809265137,29.25,2.25,39.450294494628906,0,
 2927074,0.04150390625,-0.95703125,0.147216796875,-1.6158536672592163,0.3048780560493469,-0.12195122241973877,6.449999809265137,29.25,2.25,39.01898956298828,0,
 2927084,0.038818359375,-0.955078125,0.138427734375,-1.5243902206420898,0.21341463923454285,-0.12195122241973877,4.199999809265137,27.600000381469727,3.299999952316284,39.35445022583008,0,
 2927094,0.04248046875,-0.96044921875,0.140625,-1.3719512224197388,0.24390244483947754,0.09146341681480408,7.199999809265137,30.0,-1.5,39.30652618408203,0,
 2927104,0.045166015625,-0.955810546875,0.1416015625,-0.4878048896789551,0.3048780560493469,-0.030487805604934692,3.9000000953674316,30.299999237060547,2.700000047683716,39.30652618408203,0,
 2927114,0.04443359375,-0.95849609375,0.146728515625,-0.5792682766914368,0.12195122241973877,0.4573170840740204,5.099999904632568,29.399999618530273,3.450000047683716,39.30652618408203,0,
 2927124,0.04150390625,-0.958740234375,0.143798828125,-0.060975611209869385,0.396341472864151,0.4573170840740204,5.099999904632568,29.100000381469727,4.949999809265137,39.2106819152832,0,
 2927134,0.044921875,-0.96044921875,0.139892578125,-0.3353658616542816,0.21341463923454285,0.5182926654815674,4.650000095367432,28.200000762939453,4.199999809265137,39.30652618408203,0,
 2927144,0.04296875,-0.96240234375,0.141357421875,-0.3048780560493469,0.4268292784690857,0.3048780560493469,3.5999999046325684,29.850000381469727,2.4000000953674316,39.2106819152832,0,
 2927154,0.0498046875,-0.958740234375,0.139892578125,0.030487805604934692,0.4268292784690857,0.4878048896789551,4.949999809265137,30.0,3.75,39.35445022583008,0,
 2927164,0.042236328125,-0.95849609375,0.14208984375,-0.15243902802467346,0.4268292784690857,0.27439025044441223,4.949999809265137,30.0,3.75,39.30652618408203,0,
 2927174,0.037841796875,-0.961669921875,0.14599609375,0.5182926654815674,0.3658536672592163,0.3658536672592163,5.25,30.0,3.0,39.162757873535156,0,
 2927184,0.041748046875,-0.96142578125,0.138916015625,0.18292683362960815,0.3353658616542816,0.3048780560493469,5.400000095367432,30.299999237060547,3.450000047683716,39.30652618408203,0,
 2927194,0.04638671875,-0.9580078125,0.14501953125,0.4268292784690857,0.5487805008888245,0.3353658616542816,6.75,31.649999618530273,1.5,39.35445022583008,0,
 2927204,0.033935546875,-0.963623046875,0.1455078125,0.4573170840740204,0.3048780560493469,0.4878048896789551,6.75,31.649999618530273,1.5,39.11483383178711,0,
 2927214,0.04296875,-0.9609375,0.143798828125,0.4268292784690857,0.27439025044441223,0.18292683362960815,3.75,30.0,3.0,39.2106819152832,0,
 2927224,0.041259765625,-0.96142578125,0.14599609375,0.3048780560493469,0.4573170840740204,0.4573170840740204,5.25,29.25,1.5,39.2106819152832,0,
 2927234,0.044677734375,-0.962646484375,0.14599609375,0.396341472864151,0.27439025044441223,0.3048780560493469,6.599999904632568,29.399999618530273,2.700000047683716,39.49821853637695,0,
 2927244,0.04345703125,-0.961181640625,0.143798828125,0.27439025044441223,0.5792682766914368,0.7012194991111755,6.599999904632568,29.399999618530273,2.700000047683716,39.689910888671875,0,
 2927254,0.0400390625,-0.959228515625,0.1435546875,0.3048780560493469,0.4268292784690857,0.4878048896789551,4.5,29.25,3.299999952316284,39.2106819152832,0,
 2927264,0.037841796875,-0.96240234375,0.141357421875,0.09146341681480408,0.4268292784690857,0.0,4.5,29.700000762939453,4.050000190734863,39.162757873535156,0,
 2927274,0.042724609375,-0.961181640625,0.1484375,0.15243902802467346,0.396341472864151,0.6097561120986938,5.849999904632568,29.100000381469727,2.4000000953674316,39.2106819152832,0,
 2927284,0.042724609375,-0.9560546875,0.145751953125,0.27439025044441223,0.4573170840740204,0.18292683362960815,5.849999904632568,29.100000381469727,1.2000000476837158,39.35445022583008,0,
 2927294,0.045654296875,-0.958740234375,0.144287109375,0.24390244483947754,0.4268292784690857,0.4878048896789551,5.849999904632568,29.100000381469727,1.2000000476837158,39.2106819152832,0,
 2927304,0.041259765625,-0.962646484375,0.14404296875,-0.060975611209869385,0.24390244483947754,0.4268292784690857,4.949999809265137,28.799999237060547,1.5,39.450294494628906,0,
 2927314,0.036376953125,-0.959716796875,0.14697265625,-0.18292683362960815,0.09146341681480408,0.3658536672592163,5.849999904632568,30.299999237060547,3.9000000953674316,39.35445022583008,0,
 2927324,0.041748046875,-0.963134765625,0.14306640625,-0.21341463923454285,0.24390244483947754,0.27439025044441223,6.75,28.799999237060547,3.0,39.2106819152832,0,
 2927334,0.043701171875,-0.9580078125,0.144775390625,-0.7621951103210449,0.396341472864151,0.27439025044441223,6.75,28.799999237060547,3.0,39.450294494628906,0,
 2927344,0.04150390625,-0.9658203125,0.140869140625,-0.4573170840740204,0.24390244483947754,0.24390244483947754,5.25,28.799999237060547,3.75,39.546142578125,0,
 2927354,0.0439453125,-0.96044921875,0.146240234375,-0.4573170840740204,0.3658536672592163,0.4268292784690857,5.099999904632568,29.399999618530273,3.1500000953674316,39.162757873535156,0,
 2927364,0.042236328125,-0.9580078125,0.143310546875,-1.0670732259750366,0.21341463923454285,0.27439025044441223,5.849999904632568,29.399999618530273,2.700000047683716,39.689910888671875,0,
 2927374,0.044189453125,-0.95849609375,0.142822265625,-0.4268292784690857,0.4878048896789551,0.3658536672592163,5.849999904632568,29.399999618530273,2.700000047683716,39.49821853637695,0,
 2927384,0.0400390625,-0.955322265625,0.146240234375,-0.3658536672592163,0.4268292784690857,0.4878048896789551,3.1500000953674316,27.899999618530273,3.9000000953674316,39.450294494628906,0,
 2927394,0.0361328125,-0.958251953125,0.14453125,-0.6097561120986938,0.27439025044441223,0.5182926654815674,4.650000095367432,28.200000762939453,3.450000047683716,39.35445022583008,0,
 2927404,0.03662109375,-0.96435546875,0.14892578125,-0.3353658616542816,0.27439025044441223,0.396341472864151,7.050000190734863,27.450000762939453,0.44999998807907104,39.450294494628906,0,
 2927414,0.04052734375,-0.9599609375,0.147216796875,-0.7621951103210449,0.396341472864151,0.6707317233085632,7.050000190734863,27.450000762939453,0.44999998807907104,39.450294494628906,0,
 2927424,0.0380859375,-0.955810546875,0.145263671875,-0.9146341681480408,0.3353658616542816,0.5487805008888245,5.699999809265137,29.700000762939453,3.75,39.49821853637695,0,
 2927435,0.044677734375,-0.95703125,0.14013671875,-0.7012194991111755,0.396341472864151,0.5487805008888245,6.300000190734863,27.899999618530273,3.9000000953674316,39.30652618408203,0,
 2927445,0.0390625,-0.9599609375,0.142333984375,-0.6707317233085632,0.3658536672592163,0.6097561120986938,4.199999809265137,30.0,3.75,39.546142578125,0,
 2927455,0.041259765625,-0.961181640625,0.145751953125,-0.5487805008888245,0.3048780560493469,0.396341472864151,5.400000095367432,28.649999618530273,2.700000047683716,39.546142578125,0,
 2927465,0.045166015625,-0.955078125,0.13916015625,-0.4878048896789551,0.5792682766914368,0.27439025044441223,5.400000095367432,28.649999618530273,2.700000047683716,39.11483383178711,0,
 2927475,0.039794921875,-0.9638671875,0.141845703125,-0.5487805008888245,0.4268292784690857,0.3658536672592163,5.25,29.700000762939453,3.299999952316284,39.49821853637695,0,
 2927485,0.044189453125,-0.962158203125,0.144287109375,-0.9146341681480408,0.396341472864151,0.6402438879013062,4.5,29.25,1.7999999523162842,39.450294494628906,0,
 2927495,0.0478515625,-0.958984375,0.143798828125,-0.5792682766914368,0.18292683362960815,0.5792682766914368,5.699999809265137,28.799999237060547,3.299999952316284,39.35445022583008,0,
 2927505,0.052734375,-0.95458984375,0.145263671875,-0.3658536672592163,0.4878048896789551,0.6402438879013062,5.699999809265137,28.799999237060547,3.299999952316284,39.546142578125,0,
 2927515,0.036376953125,-0.95263671875,0.140625,-0.030487805604934692,0.18292683362960815,0.7012194991111755,3.75,29.700000762939453,3.299999952316284,39.2106819152832,0,
 2927525,0.046142578125,-0.962158203125,0.14453125,-0.3048780560493469,0.3658536672592163,0.7317073345184326,4.949999809265137,29.25,3.299999952316284,39.2106819152832,0,
 2927535,0.048583984375,-0.9609375,0.14501953125,-0.3048780560493469,0.4878048896789551,0.9756097793579102,6.0,30.75,4.5,39.35445022583008,0,
 2927545,0.0380859375,-0.958251953125,0.147216796875,-0.3658536672592163,0.5487805008888245,0.5792682766914368,6.0,30.75,4.5,39.2106819152832,0,
 2927555,0.041015625,-0.956298828125,0.1435546875,-0.12195122241973877,0.3353658616542816,0.396341472864151,4.650000095367432,29.850000381469727,1.9500000476837158,39.35445022583008,0,
 2927565,0.036865234375,-0.961181640625,0.144775390625,-0.15243902802467346,0.21341463923454285,0.060975611209869385,6.0,29.700000762939453,2.25,39.2106819152832,0,
 2927575,0.037109375,-0.9619140625,0.142822265625,0.0,0.3353658616542816,0.060975611209869385,5.849999904632568,29.100000381469727,2.700000047683716,39.30652618408203,0,
 2927585,0.03857421875,-0.96142578125,0.13916015625,-0.21341463923454285,0.4878048896789551,0.15243902802467346,5.849999904632568,29.100000381469727,2.700000047683716,39.2106819152832,0,
 2927595,0.041748046875,-0.9609375,0.14794921875,0.18292683362960815,0.3658536672592163,0.15243902802467346,4.5,30.75,2.549999952316284,39.450294494628906,0,
 2927605,0.040283203125,-0.95703125,0.14794921875,-0.12195122241973877,0.3353658616542816,0.3353658616542816,6.75,31.649999618530273,0.75,39.546142578125,0,
 2927615,0.044677734375,-0.966552734375,0.1455078125,-0.5487805008888245,0.3658536672592163,0.3658536672592163,4.650000095367432,29.850000381469727,3.9000000953674316,39.35445022583008,0,
 2927625,0.045654296875,-0.95849609375,0.143310546875,0.060975611209869385,0.396341472864151,0.7621951103210449,4.949999809265137,28.799999237060547,4.050000190734863,39.35445022583008,0,
 2927635,0.0390625,-0.95703125,0.139404296875,-0.15243902802467346,0.4268292784690857,0.3048780560493469,4.949999809265137,28.799999237060547,4.050000190734863,39.35445022583008,0,
 2927645,0.04345703125,-0.95751953125,0.14111328125,0.21341463923454285,0.3658536672592163,0.4268292784690857,4.949999809265137,29.25,3.75,39.2106819152832,0,
 2927655,0.03955078125,-0.9560546875,0.147705078125,0.3658536672592163,0.5487805008888245,0.7012194991111755,4.650000095367432,29.399999618530273,4.949999809265137,39.2106819152832,0,
 2927665,0.044921875,-0.9609375,0.147705078125,0.3658536672592163,0.4573170840740204,0.5182926654815674,6.300000190734863,29.850000381469727,1.649999976158142,39.30652618408203,0,
 2927675,0.039306640625,-0.9599609375,0.140625,0.09146341681480408,0.4268292784690857,0.9756097793579102,6.300000190734863,29.850000381469727,1.649999976158142,39.2106819152832,0,
 2927685,0.040771484375,-0.959716796875,0.14599609375,-0.12195122241973877,0.4878048896789551,0.396341472864151,4.650000095367432,29.100000381469727,3.9000000953674316,39.49821853637695,0,
 2927695,0.038330078125,-0.963623046875,0.148681640625,-0.4573170840740204,0.6707317233085632,0.7012194991111755,4.949999809265137,30.0,3.299999952316284,39.35445022583008,0,
 2927705,0.041015625,-0.963134765625,0.147216796875,-0.21341463923454285,0.5792682766914368,0.4573170840740204,3.299999952316284,30.75,2.25,39.450294494628906,0,
 2927715,0.037353515625,-0.9609375,0.146728515625,-0.3658536672592163,0.5182926654815674,0.7621951103210449,3.299999952316284,30.75,2.25,39.35445022583008,0,
 2927725,0.045166015625,-0.962890625,0.151611328125,-0.396341472864151,0.3353658616542816,0.5487805008888245,5.849999904632568,28.649999618530273,2.700000047683716,39.30652618408203,0,
 2927735,0.038330078125,-0.96337890625,0.147216796875,-0.3353658616542816,0.5792682766914368,0.3658536672592163,4.650000095367432,27.899999618530273,3.450000047683716,39.35445022583008,0,
 2927745,0.03662109375,-0.9599609375,0.151611328125,-0.18292683362960815,0.3353658616542816,0.4878048896789551,3.75,28.799999237060547,4.050000190734863,39.49821853637695,0,
 2927755,0.041259765625,-0.955810546875,0.15234375,-0.21341463923454285,0.396341472864151,0.5487805008888245,3.75,28.799999237060547,4.050000190734863,39.35445022583008,0,
 2927765,0.03662109375,-0.958740234375,0.144775390625,-0.24390244483947754,0.5182926654815674,0.5487805008888245,5.699999809265137,28.5,2.25,39.2106819152832,0,
 2927775,0.04443359375,-0.9560546875,0.1435546875,-0.09146341681480408,0.6707317233085632,0.3353658616542816,5.400000095367432,30.299999237060547,4.199999809265137,39.450294494628906,0,
 2927785,0.035400390625,-0.960693359375,0.149169921875,-0.21341463923454285,0.4878048896789551,0.3353658616542816,5.099999904632568,30.299999237060547,4.650000095367432,39.30652618408203,0,
 2927795,0.0419921875,-0.95751953125,0.139892578125,0.27439025044441223,0.4268292784690857,0.7012194991111755,4.650000095367432,30.600000381469727,1.9500000476837158,39.30652618408203,0,
 2927805,0.044189453125,-0.9619140625,0.1484375,0.3048780560493469,0.3048780560493469,0.5487805008888245,4.650000095367432,30.600000381469727,1.9500000476837158,39.546142578125,0,
 2927815,0.04248046875,-0.958984375,0.148193359375,0.18292683362960815,0.12195122241973877,0.4878048896789551,3.0,28.799999237060547,2.549999952316284,39.49821853637695,0,
 2927825,0.036865234375,-0.96337890625,0.14697265625,0.3353658616542816,0.030487805604934692,0.7317073345184326,5.099999904632568,29.850000381469727,3.1500000953674316,39.30652618408203,0,
 2927835,0.043701171875,-0.959228515625,0.146240234375,0.24390244483947754,0.12195122241973877,0.8841463327407837,3.5999999046325684,28.649999618530273,2.700000047683716,39.450294494628906,0,
 2927845,0.041259765625,-0.960205078125,0.14990234375,0.3048780560493469,0.4878048896789551,0.6402438879013062,3.5999999046325684,28.649999618530273,2.700000047683716,39.450294494628906,0,
 2927855,0.041748046875,-0.96337890625,0.1474609375,-0.27439025044441223,0.27439025044441223,0.4878048896789551,4.5,30.0,2.549999952316284,39.450294494628906,0,
 2927865,0.0361328125,-0.95556640625,0.149169921875,0.030487805604934692,0.5487805008888245,0.7317073345184326,5.849999904632568,29.399999618530273,1.9500000476837158,39.49821853637695,0,
 2927875,0.041748046875,-0.96435546875,0.145751953125,0.09146341681480408,0.3658536672592163,0.5792682766914368,5.400000095367432,29.100000381469727,2.4000000953674316,39.450294494628906,0,
 2927885,0.037841796875,-0.95849609375,0.146240234375,-0.5792682766914368,0.4268292784690857,0.8841463327407837,5.400000095367432,29.100000381469727,2.4000000953674316,39.35445022583008,0,
 2927895,0.03857421875,-0.957763671875,0.150634765625,-0.6097561120986938,0.5182926654815674,0.4268292784690857,5.099999904632568,28.200000762939453,3.9000000953674316,39.450294494628906,0,
 2927905,0.0419921875,-0.96044921875,0.14306640625,-0.060975611209869385,0.21341463923454285,0.4268292784690857,4.949999809265137,28.5,2.549999952316284,39.01898956298828,0,
 2927915,0.041015625,-0.956298828125,0.149169921875,-0.3353658616542816,0.4268292784690857,0.6402438879013062,5.099999904632568,29.399999618530273,-1.649999976158142,39.35445022583008,0,
 2927925,0.04052734375,-0.96142578125,0.1474609375,-0.6402438879013062,0.27439025044441223,0.5792682766914368,4.949999809265137,29.25,3.299999952316284,39.35445022583008,0,
 2927935,0.044677734375,-0.95654296875,0.146484375,-0.9146341681480408,0.12195122241973877,0.4268292784690857,5.699999809265137,29.25,2.25,39.35445022583008,0,
 2927945,0.033447265625,-0.9609375,0.15478515625,-0.8536585569381714,0.3353658616542816,0.6097561120986938,5.699999809265137,28.5,5.25,39.546142578125,0,
 2927955,0.040771484375,-0.9658203125,0.148681640625,-1.0670732259750366,0.6097561120986938,0.6402438879013062,5.400000095367432,29.399999618530273,3.1500000953674316,39.30652618408203,0,
 2927965,0.043701171875,-0.955322265625,0.148193359375,-0.9451219439506531,0.24390244483947754,0.3353658616542816,5.099999904632568,28.200000762939453,3.1500000953674316,39.30652618408203,0,
 2927975,0.039794921875,-0.9599609375,0.153076171875,-1.1280487775802612,0.24390244483947754,0.4268292784690857,5.099999904632568,28.200000762939453,3.1500000953674316,39.35445022583008,0,
 2927985,0.041748046875,-0.958251953125,0.1494140625,-1.1585365533828735,0.396341472864151,0.5792682766914368,5.400000095367432,28.200000762939453,2.700000047683716,39.450294494628906,0,
 2927995,0.043701171875,-0.955810546875,0.14599609375,-1.1280487775802612,0.15243902802467346,0.7012194991111755,5.400000095367432,29.100000381469727,3.9000000953674316,39.49821853637695,0,
 2928005,0.04638671875,-0.954833984375,0.14501953125,-1.6768293380737305,0.5182926654815674,0.6707317233085632,6.300000190734863,29.100000381469727,3.450000047683716,39.49821853637695,0,
 2928015,0.03515625,-0.958984375,0.143310546875,-1.432926893234253,0.7012194991111755,1.2804877758026123,6.300000190734863,29.100000381469727,3.450000047683716,39.35445022583008,0,
 2928025,0.041748046875,-0.95947265625,0.14892578125,-1.1585365533828735,0.5792682766914368,1.2804877758026123,5.099999904632568,29.850000381469727,2.4000000953674316,39.2106819152832,0,
 2928035,0.04052734375,-0.9599609375,0.14208984375,-0.9451219439506531,0.9451219439506531,1.737804889678955,3.9000000953674316,29.850000381469727,3.450000047683716,39.35445022583008,0,
 2928045,0.043212890625,-0.954833984375,0.13720703125,-0.09146341681480408,0.5182926654815674,2.195122003555298,5.849999904632568,29.399999618530273,3.1500000953674316,39.35445022583008,0,
 2928055,0.043212890625,-0.957275390625,0.143310546875,0.3353658616542816,0.7621951103210449,3.0182926654815674,5.849999904632568,29.399999618530273,3.1500000953674316,39.35445022583008,0,
 2928065,0.045654296875,-0.951171875,0.14599609375,0.24390244483947754,0.7317073345184326,3.2012195587158203,5.099999904632568,28.649999618530273,3.450000047683716,39.49821853637695,0,
 2928075,0.042236328125,-0.95263671875,0.14501953125,0.3048780560493469,0.4878048896789551,3.353658676147461,4.199999809265137,30.450000762939453,3.299999952316284,39.546142578125,0,
 2928085,0.03564453125,-0.959228515625,0.1455078125,0.5487805008888245,0.396341472864151,3.567073345184326,6.300000190734863,29.399999618530273,3.1500000953674316,39.2106819152832,0,
 2928095,0.00732421875,-0.9931640625,0.137451171875,-1.6463414430618286,0.18292683362960815,4.0853657722473145,5.400000095367432,30.299999237060547,3.1500000953674316,39.49821853637695,0,
 2928105,0.040283203125,-0.96484375,0.146728515625,-0.792682945728302,0.0,3.658536672592163,6.300000190734863,30.299999237060547,1.9500000476837158,39.2106819152832,0,
 2928115,0.033203125,-0.953369140625,0.133056640625,1.585365891456604,0.27439025044441223,3.5365853309631348,4.650000095367432,31.350000381469727,2.4000000953674316,39.35445022583008,0,
 2928125,0.03857421875,-0.967041015625,0.154296875,0.7317073345184326,0.15243902802467346,2.9268293380737305,3.9000000953674316,30.299999237060547,2.4000000953674316,39.64198684692383,0,
 2928135,0.030517578125,-0.9599609375,0.144287109375,1.3414634466171265,-0.030487805604934692,2.0731706619262695,5.699999809265137,28.5,3.75,39.2106819152832,0,
 2928145,0.02978515625,-0.95556640625,0.146484375,1.0365853309631348,-0.09146341681480408,1.3414634466171265,5.699999809265137,28.5,3.75,39.30652618408203,0,
 2928155,0.031982421875,-0.95556640625,0.13720703125,1.1585365533828735,-0.5487805008888245,0.8231707215309143,4.949999809265137,29.700000762939453,3.0,39.2106819152832,0,
 2928165,0.037841796875,-0.951171875,0.142822265625,1.0670732259750366,-0.7317073345184326,-0.060975611209869385,3.75,30.0,4.050000190734863,39.162757873535156,0,
 2928175,0.0361328125,-0.95947265625,0.140869140625,3.0487804412841797,-1.432926893234253,-0.8231707215309143,4.949999809265137,29.700000762939453,2.549999952316284,39.2106819152832,0,
 2928185,0.036865234375,-0.96044921875,0.15478515625,2.804877996444702,-1.432926893234253,-1.6158536672592163,4.949999809265137,29.700000762939453,2.549999952316284,39.64198684692383,0,
 2928195,0.034423828125,-0.960693359375,0.164306640625,2.7439024448394775,-1.3109756708145142,-2.195122003555298,6.75,30.0,3.0,39.546142578125,0,
 2928205,0.030029296875,-0.9677734375,0.162353515625,1.9817073345184326,-1.097561001777649,-2.317073106765747,5.25,29.700000762939453,3.299999952316284,39.01898956298828,0,
 2928215,0.0361328125,-0.96826171875,0.16650390625,0.6097561120986938,-0.792682945728302,-2.195122003555298,5.25,29.700000762939453,2.25,39.35445022583008,0,
 2928225,0.034912109375,-0.972900390625,0.165283203125,-0.6402438879013062,-0.12195122241973877,-1.737804889678955,5.25,29.700000762939453,2.25,39.35445022583008,0,
 2928235,0.0390625,-0.958251953125,0.153076171875,-2.1341464519500732,0.5182926654815674,-1.2804877758026123,6.0,28.049999237060547,3.0,39.450294494628906,0,
 2928245,0.040771484375,-0.96337890625,0.15380859375,-2.7134146690368652,0.7012194991111755,-0.3353658616542816,5.849999904632568,29.850000381469727,4.199999809265137,39.64198684692383,0,
 2928255,0.038330078125,-0.964599609375,0.153564453125,-2.8353660106658936,0.9451219439506531,0.24390244483947754,4.949999809265137,29.700000762939453,4.800000190734863,39.35445022583008,0,
 2928265,0.0400390625,-0.967529296875,0.147216796875,-2.77439022064209,1.0365853309631348,0.8536585569381714,6.300000190734863,28.649999618530273,3.1500000953674316,39.2106819152832,0,
 2928276,0.0380859375,-0.971923828125,0.15380859375,-2.2560975551605225,1.25,1.3719512224197388,5.25,29.700000762939453,3.0,39.450294494628906,0,
 2928286,0.031982421875,-0.96240234375,0.155029296875,-2.0426828861236572,1.0670732259750366,1.25,4.650000095367432,27.899999618530273,2.4000000953674316,39.546142578125,0,
 2928296,0.029296875,-0.97119140625,0.15380859375,-2.012195110321045,1.0060975551605225,1.7987805604934692,5.400000095367432,28.649999618530273,3.450000047683716,39.49821853637695,0,
 2928306,0.033203125,-0.965087890625,0.1533203125,-2.195122003555298,1.0365853309631348,1.585365891456604,6.300000190734863,29.850000381469727,3.9000000953674316,39.2106819152832,0,
 2928316,0.029541015625,-0.9619140625,0.14892578125,-2.7134146690368652,1.097561001777649,1.8597561120986938,6.300000190734863,29.850000381469727,3.9000000953674316,39.450294494628906,0,
 2928326,0.029296875,-0.955322265625,0.1435546875,-2.9268293380737305,1.0365853309631348,1.6463414430618286,6.300000190734863,29.850000381469727,-0.44999998807907104,39.2106819152832,0,
 2928336,0.032470703125,-0.958740234375,0.14404296875,-2.865853786468506,1.0365853309631348,1.3414634466171265,6.599999904632568,29.100000381469727,1.2000000476837158,39.450294494628906,0,
 2928346,0.04150390625,-0.959716796875,0.142578125,-2.0731706619262695,0.9451219439506531,1.1585365533828735,5.25,29.25,2.25,39.01898956298828,0,
 2928356,0.039794921875,-0.958740234375,0.137939453125,-2.22560977935791,0.5182926654815674,1.1890244483947754,5.25,29.25,2.25,39.546142578125,0,
 2928366,0.036376953125,-0.951171875,0.144775390625,-1.737804889678955,0.15243902802467346,0.5487805008888245,6.0,31.200000762939453,2.25,39.546142578125,0,
 2928376,0.032470703125,-0.954833984375,0.144287109375,-1.432926893234253,0.4268292784690857,0.7012194991111755,6.449999809265137,30.0,4.050000190734863,39.35445022583008,0,
 2928386,0.03369140625,-0.962890625,0.14697265625,-0.8231707215309143,0.12195122241973877,0.3048780560493469,5.25,28.799999237060547,3.0,39.35445022583008,0,
 2928396,0.029541015625,-0.962890625,0.15087890625,-1.402438998222351,-0.12195122241973877,0.21341463923454285,5.25,28.799999237060547,3.0,39.2106819152832,0,
 2928406,0.034423828125,-0.96044921875,0.14990234375,-1.8292683362960815,-0.12195122241973877,-0.3353658616542816,6.300000190734863,30.299999237060547,2.700000047683716,39.30652618408203,0,
 2928416,0.03466796875,-0.96337890625,0.1435546875,-2.5,-0.12195122241973877,-0.5792682766914368,3.9000000953674316,29.100000381469727,1.9500000476837158,39.546142578125,0,
 2928426,0.03369140625,-0.96240234375,0.1435546875,-2.0426828861236572,-0.030487805604934692,-0.6402438879013062,7.949999809265137,29.25,-0.75,39.49821853637695,0,
 2928436,0.033203125,-0.963623046875,0.14599609375,-1.7682926654815674,-0.09146341681480408,-0.4268292784690857,4.949999809265137,27.299999237060547,3.0,39.49821853637695,0,
 2928446,0.0380859375,-0.957275390625,0.142333984375,-0.9451219439506531,-0.18292683362960815,-0.4878048896789551,4.949999809265137,27.299999237060547,3.0,39.162757873535156,0,
 2928456,0.03466796875,-0.958984375,0.14013671875,-0.7621951103210449,-0.18292683362960815,-0.7012194991111755,4.949999809265137,29.700000762939453,1.7999999523162842,39.35445022583008,0,
 2928466,0.0341796875,-0.95947265625,0.140380859375,0.060975611209869385,-0.09146341681480408,-0.3658536672592163,4.349999904632568,28.649999618530273,3.9000000953674316,39.546142578125,0,
 2928476,0.045166015625,-0.95458984375,0.1396484375,0.7317073345184326,-0.18292683362960815,-0.15243902802467346,4.949999809265137,26.850000381469727,3.0,39.35445022583008,0,
 2928486,0.0400390625,-0.95458984375,0.140380859375,1.25,-0.4878048896789551,0.18292683362960815,4.949999809265137,26.850000381469727,3.0,39.450294494628906,0,
 2928496,0.03515625,-0.956298828125,0.14013671875,1.4634146690368652,-0.15243902802467346,0.4878048896789551,3.75,29.25,3.0,39.30652618408203,0,
 2928506,0.03515625,-0.955810546875,0.14111328125,1.585365891456604,0.24390244483947754,0.3658536672592163,6.0,30.0,1.7999999523162842,39.64198684692383,0,
 2928516,0.0380859375,-0.958251953125,0.14697265625,1.7987805604934692,0.060975611209869385,0.7317073345184326,5.699999809265137,29.25,4.800000190734863,39.64198684692383,0,
 2928526,0.028564453125,-0.95703125,0.140869140625,2.012195110321045,-0.09146341681480408,0.8231707215309143,5.699999809265137,29.25,4.800000190734863,39.2106819152832,0,
 2928536,0.029296875,-0.954833984375,0.1455078125,1.920731782913208,0.5182926654815674,0.5792682766914368,5.699999809265137,28.5,1.7999999523162842,39.30652618408203,0,
 2928546,0.03857421875,-0.96630859375,0.14501953125,2.103658676147461,0.21341463923454285,0.8841463327407837,5.849999904632568,31.049999237060547,2.700000047683716,39.2106819152832,0,
 2928556,0.027099609375,-0.9501953125,0.146484375,2.3475611209869385,0.5182926654815674,0.4268292784690857,7.349999904632568,29.100000381469727,1.9500000476837158,39.49821853637695,0,
 2928566,0.028564453125,-0.96240234375,0.1484375,2.4695122241973877,0.27439025044441223,0.9146341681480408,7.349999904632568,29.100000381469727,1.9500000476837158,39.35445022583008,0,
 2928576,0.039794921875,-0.9541015625,0.157470703125,3.0487804412841797,0.5792682766914368,1.1585365533828735,6.300000190734863,28.649999618530273,2.700000047683716,39.49821853637695,0,
 2928586,0.0390625,-0.96826171875,0.142333984375,2.682926893234253,0.18292683362960815,0.8841463327407837,5.400000095367432,30.299999237060547,4.199999809265137,39.2106819152832,0,
 2928596,0.025390625,-0.948974609375,0.15771484375,3.3231709003448486,0.9451219439506531,0.5182926654815674,5.849999904632568,29.399999618530273,1.9500000476837158,39.2106819152832,0,
 2928606,0.044921875,-0.96484375,0.15771484375,2.195122003555298,0.0,0.9451219439506531,3.75,29.700000762939453,4.5,39.35445022583008,0,
 2928616,0.0244140625,-0.9521484375,0.1650390625,1.8597561120986938,0.4878048896789551,0.4573170840740204,3.75,29.700000762939453,4.5,39.35445022583008,0,
 2928626,0.038818359375,-0.9541015625,0.1640625,1.3414634466171265,0.6707317233085632,0.09146341681480408,4.5,30.0,2.25,39.64198684692383,0,
 2928636,0.04248046875,-0.96533203125,0.150390625,1.585365891456604,0.3048780560493469,0.15243902802467346,4.949999809265137,27.600000381469727,1.5,39.30652618408203,0,
 2928646,0.03271484375,-0.9599609375,0.15087890625,1.2804877758026123,0.6097561120986938,-0.21341463923454285,5.25,28.5,1.7999999523162842,39.01898956298828,0,
 2928656,0.0400390625,-0.962646484375,0.162109375,1.1890244483947754,0.4268292784690857,0.0,5.25,28.5,1.7999999523162842,39.35445022583008,0,
 2928666,0.030517578125,-0.96142578125,0.149658203125,1.0365853309631348,0.4573170840740204,-0.3658536672592163,5.099999904632568,30.600000381469727,2.700000047683716,39.30652618408203,0,
 2928676,0.031982421875,-0.96435546875,0.15576171875,1.3109756708145142,0.396341472864151,-0.030487805604934692,6.0,30.0,2.25,39.11483383178711,0,
 2928686,0.03515625,-0.95849609375,0.155029296875,0.8536585569381714,0.3353658616542816,-0.12195122241973877,3.9000000953674316,29.399999618530273,1.9500000476837158,39.30652618408203,0,
 2928696,0.037109375,-0.9599609375,0.154541015625,0.4878048896789551,0.3658536672592163,-0.21341463923454285,3.9000000953674316,29.399999618530273,1.9500000476837158,39.2106819152832,0,
 2928706,0.03466796875,-0.9658203125,0.15087890625,0.060975611209869385,0.4573170840740204,-0.7012194991111755,5.699999809265137,29.700000762939453,3.299999952316284,39.01898956298828,0,
 2928716,0.03271484375,-0.965087890625,0.150146484375,0.4268292784690857,0.24390244483947754,-0.9451219439506531,4.949999809265137,30.450000762939453,1.5,39.2106819152832,0,
 2928726,0.03173828125,-0.965087890625,0.156494140625,0.7012194991111755,-0.030487805604934692,-1.6158536672592163,6.75,28.799999237060547,1.7999999523162842,39.546142578125,0,
 2928736,0.02783203125,-0.966796875,0.15576171875,0.6097561120986938,-0.3658536672592163,-2.7134146690368652,5.849999904632568,28.649999618530273,-0.15000000596046448,39.450294494628906,0,
 2928746,0.02099609375,-0.9755859375,0.153076171875,0.7012194991111755,-0.9451219439506531,-4.237804889678955,6.599999904632568,28.649999618530273,3.9000000953674316,39.30652618408203,0,
 2928756,0.033203125,-0.971435546875,0.163818359375,0.792682945728302,-1.1280487775802612,-6.25,6.0,30.450000762939453,3.0,39.49821853637695,0,
 2928766,0.022216796875,-0.9921875,0.162841796875,1.3719512224197388,-1.7987805604934692,-8.414634704589844,4.949999809265137,29.25,4.800000190734863,39.2106819152832,0,
 2928776,0.01611328125,-0.991455078125,0.149169921875,0.396341472864151,-2.3475611209869385,-10.70121955871582,5.099999904632568,29.850000381469727,2.700000047683716,39.2106819152832,0,
 2928786,-0.01806640625,-1.067138671875,0.1416015625,0.4268292784690857,-3.5060975551605225,-12.195121765136719,5.099999904632568,29.850000381469727,2.700000047683716,39.2106819152832,0,
 2928796,0.08642578125,-0.827392578125,0.12109375,12.164634704589844,-5.365853786468506,-14.817073822021484,4.349999904632568,29.399999618530273,1.2000000476837158,39.35445022583008,0,
 2928806,0.027099609375,-1.0830078125,0.205810546875,-0.7317073345184326,-4.939024448394775,-15.12195110321045,4.650000095367432,28.200000762939453,1.9500000476837158,39.450294494628906,0,
 2928816,0.0263671875,-0.984619140625,0.135009765625,4.207317352294922,-5.609755992889404,-17.13414764404297,4.199999809265137,29.25,1.7999999523162842,39.35445022583008,0,
 2928826,0.02587890625,-1.05419921875,0.17333984375,2.6524391174316406,-5.487804889678955,-18.04878044128418,4.199999809265137,29.25,1.7999999523162842,39.450294494628906,0,
 2928836,0.02587890625,-1.01025390625,0.184326171875,3.567073345184326,-5.396341800689697,-19.542682647705078,5.849999904632568,27.899999618530273,-1.2000000476837158,39.2106819152832,0,
 2928846,0.02587890625,-1.014404296875,0.178955078125,4.2682929039001465,-6.52439022064209,-20.792682647705078,4.5,27.600000381469727,2.549999952316284,39.450294494628906,0,
 2928856,0.006591796875,-1.041259765625,0.191162109375,-0.15243902802467346,-6.036585330963135,-23.9939022064209,5.25,27.299999237060547,3.75,39.450294494628906,0,
 2928866,-0.0615234375,-1.030029296875,0.204833984375,-0.9146341681480408,-0.21341463923454285,-26.829269409179688,5.25,27.299999237060547,3.75,39.35445022583008,0,
 2928876,-0.133056640625,-0.99755859375,0.173583984375,1.8292683362960815,7.0731706619262695,-33.932926177978516,3.9000000953674316,26.25,2.700000047683716,39.450294494628906,0,
 2928886,-0.171142578125,-0.852294921875,0.2275390625,20.88414764404297,14.359756469726562,-41.463417053222656,4.199999809265137,27.600000381469727,1.5,39.30652618408203,0,
 2928896,-0.18896484375,-0.9794921875,0.194091796875,28.262195587158203,20.2439022064209,-48.44512176513672,3.9000000953674316,28.649999618530273,3.1500000953674316,39.162757873535156,0,
 2928906,-0.210693359375,-1.041259765625,0.257080078125,20.94512176513672,22.957317352294922,-48.20122146606445,3.9000000953674316,27.450000762939453,3.1500000953674316,39.450294494628906,0,
 2928916,-0.208984375,-1.047119140625,0.2021484375,12.22560977935791,28.20121955871582,-43.567073822021484,3.9000000953674316,27.450000762939453,3.1500000953674316,39.64198684692383,0,
 2928926,-0.291259765625,-0.947021484375,0.197509765625,8.170731544494629,33.658538818359375,-37.713417053222656,3.1500000953674316,29.399999618530273,1.2000000476837158,39.450294494628906,0,
 2928936,-0.3427734375,-0.857177734375,0.190673828125,5.54878044128418,39.54268264770508,-27.65243911743164,2.0999999046325684,30.299999237060547,0.15000000596046448,39.11483383178711,0,
 2928946,-0.32470703125,-0.840576171875,0.195556640625,12.012195587158203,44.26829528808594,-18.262195587158203,2.8499999046325684,28.200000762939453,1.2000000476837158,39.2106819152832,0,
 2928956,-0.30517578125,-1.015380859375,0.239501953125,-3.47560977935791,44.84756088256836,-8.018292427062988,2.8499999046325684,28.200000762939453,1.2000000476837158,39.450294494628906,0,
 2928966,-0.291748046875,-1.035888671875,0.22412109375,-7.378048896789551,43.414634704589844,1.1585365533828735,4.199999809265137,28.5,1.5,39.35445022583008,0,
 2928976,-0.37646484375,-0.9423828125,0.197021484375,-30.030488967895508,42.92683029174805,11.036585807800293,1.2000000476837158,29.100000381469727,0.8999999761581421,39.546142578125,0,
 2928986,-0.25634765625,-0.885498046875,0.273681640625,-26.18902587890625,42.59146499633789,15.853658676147461,3.1500000953674316,28.649999618530273,0.8999999761581421,39.2106819152832,0,
 2928996,-0.1083984375,-0.8701171875,0.24462890625,-12.408536911010742,44.57317352294922,12.560976028442383,3.1500000953674316,28.649999618530273,0.8999999761581421,39.49821853637695,0,
 2929006,-0.125244140625,-1.0126953125,0.205078125,-4.512195110321045,44.45122146606445,12.286585807800293,6.449999809265137,29.700000762939453,0.75,39.64198684692383,0,
 2929016,-0.162353515625,-1.00830078125,0.208740234375,-8.506097793579102,45.09146499633789,16.158536911010742,3.75,30.75,2.549999952316284,39.2106819152832,0,
 2929026,-0.125732421875,-0.921875,0.22216796875,-17.34756088256836,46.585365295410156,23.810976028442383,5.400000095367432,32.54999923706055,1.649999976158142,39.35445022583008,0,
 2929036,-0.0947265625,-0.9052734375,0.224853515625,-19.207317352294922,46.524391174316406,31.89024543762207,5.400000095367432,32.54999923706055,1.649999976158142,39.11483383178711,0,
 2929046,-0.06884765625,-0.94677734375,0.2353515625,-16.859756469726562,45.73170852661133,37.682926177978516,6.75,29.700000762939453,1.5,39.546142578125,0,
 2929056,-0.03271484375,-0.986083984375,0.227294921875,-16.09756088256836,43.29268264770508,42.835365295410156,8.399999618530273,34.04999923706055,1.0499999523162842,39.35445022583008,0,
 2929066,-0.02392578125,-1.0078125,0.20654296875,-17.34756088256836,39.756099700927734,47.774391174316406,10.050000190734863,31.350000381469727,1.9500000476837158,39.30652618408203,0,
 2929076,-0.03515625,-1.019287109375,0.201904296875,-20.0,35.94512176513672,52.103660583496094,12.75,32.25,2.4000000953674316,39.64198684692383,0,
 2929086,-0.040771484375,-0.985107421875,0.180419921875,-22.439023971557617,31.73780632019043,57.68292999267578,12.75,32.25,2.4000000953674316,39.35445022583008,0,
 2929096,-0.051025390625,-0.947509765625,0.155517578125,-25.670732498168945,29.39024543762207,64.69512176513672,15.600000381469727,34.04999923706055,3.299999952316284,39.450294494628906,0,
 2929107,-0.05517578125,-0.948486328125,0.15869140625,-28.018293380737305,27.43902587890625,73.26219940185547,19.049999237060547,33.150001525878906,4.050000190734863,39.2106819152832,0,
 2929117,-0.030029296875,-0.951904296875,0.166259765625,-29.05487823486328,24.725610733032227,83.17073059082031,17.850000381469727,33.599998474121094,3.75,39.35445022583008,0,
 2929127,0.005859375,-0.9794921875,0.1669921875,-29.60365867614746,21.463415145874023,90.42683410644531,17.850000381469727,33.599998474121094,3.75,39.35445022583008,0,
 2929137,0.04833984375,-1.021484375,0.17236328125,-28.231708526611328,17.408536911010742,92.92683410644531,22.200000762939453,31.799999237060547,3.9000000953674316,39.35445022583008,0,
 2929147,0.05517578125,-1.036865234375,0.172119140625,-28.53658676147461,11.981707572937012,92.34756469726562,24.600000381469727,31.049999237060547,4.650000095367432,39.35445022583008,0,
 2929157,0.051025390625,-1.029541015625,0.168212890625,-29.969512939453125,6.554878234863281,91.46341705322266,26.549999237060547,31.799999237060547,7.650000095367432,39.35445022583008,0,
 2929167,0.05419921875,-1.00830078125,0.164794921875,-30.914634704589844,1.8597561120986938,90.12195587158203,26.549999237060547,31.799999237060547,7.650000095367432,39.450294494628906,0,
 2929177,0.066162109375,-0.987548828125,0.166259765625,-31.73780632019043,-2.5,89.23780822753906,31.049999237060547,30.600000381469727,9.449999809265137,39.35445022583008,0,
 2929187,0.071533203125,-0.964111328125,0.170654296875,-31.615854263305664,-6.6768293380737305,87.92683410644531,33.29999923706055,32.54999923706055,9.149999618530273,39.35445022583008,0,
 2929197,0.0810546875,-0.93701171875,0.179931640625,-31.067073822021484,-10.70121955871582,87.3780517578125,34.04999923706055,31.799999237060547,11.699999809265137,39.30652618408203,0,
 2929207,0.076416015625,-0.916748046875,0.1845703125,-30.518293380737305,-15.670732498168945,88.53659057617188,34.04999923706055,31.799999237060547,11.699999809265137,39.450294494628906,0,
 2929217,0.07080078125,-0.8916015625,0.183349609375,-30.09146499633789,-20.33536720275879,90.91463470458984,38.25,30.299999237060547,14.399999618530273,39.49821853637695,0,
 2929227,0.05322265625,-0.864501953125,0.167236328125,-29.08536720275879,-23.109756469726562,93.10975646972656,39.599998474121094,29.700000762939453,17.25,39.30652618408203,0,
 2929237,0.028076171875,-0.826416015625,0.155029296875,-28.475610733032227,-23.841463088989258,97.80487823486328,42.75,29.700000762939453,19.5,39.546142578125,0,
 2929247,0.025146484375,-0.78662109375,0.135498046875,-28.475610733032227,-23.109756469726562,104.78659057617188,44.099998474121094,29.100000381469727,18.450000762939453,39.49821853637695,0,
 2929257,0.042724609375,-0.787353515625,0.1103515625,-27.13414764404297,-19.573171615600586,119.42073822021484,44.099998474121094,29.100000381469727,18.450000762939453,39.2106819152832,0,
 2929267,0.09765625,-0.885986328125,0.119140625,-28.810976028442383,-17.83536720275879,112.13414764404297,46.20000076293945,29.25,26.549999237060547,39.689910888671875,0,
 2929277,0.153564453125,-0.991943359375,0.145263671875,-28.658536911010742,-16.585365295410156,90.76219940185547,47.849998474121094,28.200000762939453,28.200000762939453,39.2106819152832,0,
 2929287,0.193603515625,-1.033203125,0.1708984375,-21.768293380737305,-16.768293380737305,59.32926940917969,48.45000076293945,30.0,32.54999923706055,39.2106819152832,0,
 2929297,0.193603515625,-1.024658203125,0.135498046875,-9.664634704589844,-15.731707572937012,27.98780632019043,48.45000076293945,30.0,32.54999923706055,39.49821853637695,0,
 2929307,0.08984375,-1.11572265625,0.064453125,-11.859756469726562,-10.518293380737305,7.042683124542236,46.349998474121094,29.100000381469727,35.70000076293945,39.35445022583008,0,
 2929317,-0.0244140625,-1.1494140625,-0.05126953125,-23.93292808532715,-1.097561001777649,-3.6890244483947754,44.099998474121094,29.100000381469727,35.400001525878906,39.64198684692383,0,
 2929327,-0.11474609375,-1.086669921875,-0.11376953125,-31.89024543762207,11.981707572937012,-8.62804889678955,43.79999923706055,30.0,35.54999923706055,39.2106819152832,0,
 2929337,-0.134765625,-1.029296875,-0.17919921875,-28.93292808532715,26.829269409179688,-15.884146690368652,43.79999923706055,30.0,35.54999923706055,39.450294494628906,0,
 2929347,-0.12353515625,-1.076416015625,-0.20263671875,-25.975610733032227,42.59146499633789,-27.43902587890625,43.04999923706055,31.950000762939453,34.04999923706055,39.35445022583008,0,
 2929357,-0.08740234375,-1.155029296875,-0.231201171875,-29.05487823486328,58.17073440551758,-37.560977935791016,39.900001525878906,29.399999618530273,37.95000076293945,39.35445022583008,0,
 2929367,-0.010009765625,-1.1865234375,-0.242919921875,-33.871952056884766,70.76219940185547,-44.78658676147461,38.25,31.799999237060547,38.400001525878906,39.64198684692383,0,
 2929377,0.09912109375,-1.183349609375,-0.218505859375,-36.219512939453125,78.10975646972656,-51.40243911743164,38.25,31.799999237060547,38.400001525878906,39.35445022583008,0,
 2929387,0.2490234375,-1.1728515625,-0.16015625,-32.8658561706543,78.99390411376953,-60.57926940917969,35.25,31.049999237060547,40.20000076293945,39.30652618408203,0,
 2929397,0.39892578125,-1.204833984375,-0.09326171875,-27.865854263305664,73.99390411376953,-73.68902587890625,33.900001525878906,30.75,40.5,39.49821853637695,0,
 2929407,0.534912109375,-1.176025390625,-0.0625,-22.5,64.75609588623047,-87.80487823486328,31.049999237060547,31.049999237060547,40.95000076293945,39.35445022583008,0,
 2929417,0.59130859375,-1.148193359375,-0.05078125,-18.59756088256836,53.963417053222656,-96.28048706054688,31.799999237060547,29.100000381469727,40.95000076293945,39.450294494628906,0,
 2929427,0.629638671875,-1.030517578125,-0.06201171875,-15.762195587158203,42.65243911743164,-98.81097412109375,31.799999237060547,29.100000381469727,40.95000076293945,39.2106819152832,0,
 2929437,0.649169921875,-0.992431640625,-0.042724609375,-11.432927131652832,30.30487823486328,-96.09756469726562,32.54999923706055,28.649999618530273,39.45000076293945,39.35445022583008,0,
 2929447,0.695556640625,-0.9873046875,-0.03564453125,-5.304878234863281,18.262195587158203,-95.21341705322266,30.149999618530273,31.200000762939453,36.75,39.546142578125,0,
 2929457,0.74462890625,-1.05419921875,-0.013427734375,3.9939024448394775,5.54878044128418,-97.95732116699219,31.649999618530273,26.850000381469727,35.54999923706055,39.450294494628906,0,
 2929467,0.739013671875,-1.09521484375,-0.00390625,9.756097793579102,-9.542683601379395,-105.64024353027344,31.649999618530273,26.850000381469727,35.54999923706055,39.35445022583008,0,
 2929477,0.68359375,-1.079833984375,-0.00048828125,10.12195110321045,-26.25,-111.9817123413086,32.25,27.450000762939453,30.450000762939453,39.11483383178711,0,
 2929487,0.549072265625,-0.997802734375,-0.002197265625,9.908536911010742,-42.59146499633789,-113.68902587890625,33.599998474121094,27.600000381469727,28.049999237060547,39.35445022583008,0,
 2929497,0.39111328125,-0.943359375,-0.013427734375,10.731707572937012,-55.79268264770508,-111.21951293945312,31.649999618530273,27.600000381469727,24.299999237060547,39.2106819152832,0,
 2929507,0.2216796875,-0.922607421875,-0.041748046875,12.987805366516113,-63.29268264770508,-104.57317352294922,31.649999618530273,27.600000381469727,24.299999237060547,39.450294494628906,0,
 2929517,0.06298828125,-0.91357421875,-0.06982421875,14.359756469726562,-64.4817123413086,-97.34756469726562,28.950000762939453,29.700000762939453,17.549999237060547,39.450294494628906,0,
 2929527,-0.0400390625,-0.964599609375,-0.075927734375,13.75,-60.39634323120117,-86.4024429321289,27.299999237060547,30.299999237060547,17.700000762939453,39.2106819152832,0,
 2929537,-0.102294921875,-1.05029296875,-0.0634765625,12.22560977935791,-55.121952056884766,-77.89634704589844,24.600000381469727,29.850000381469727,15.449999809265137,39.35445022583008,0,
 2929547,-0.09814453125,-1.1328125,-0.04736328125,10.518293380737305,-51.585365295410156,-73.01829528808594,22.649999618530273,30.299999237060547,14.399999618530273,39.450294494628906,0,
 2929557,-0.08984375,-1.15478515625,-0.0234375,4.969512462615967,-52.713417053222656,-73.17073059082031,21.299999237060547,29.25,13.050000190734863,39.11483383178711,0,
 2929567,-0.108154296875,-1.037353515625,0.025146484375,-2.591463565826416,-57.65243911743164,-73.71951293945312,19.799999237060547,30.0,11.550000190734863,39.546142578125,0,
 2929577,-0.13720703125,-0.887451171875,0.067626953125,-5.762195110321045,-66.03659057617188,-68.53659057617188,18.299999237060547,30.75,10.800000190734863,39.162757873535156,0,
 2929587,-0.1796875,-0.789794921875,0.09912109375,-2.5609755516052246,-75.79268646240234,-58.10975646972656,17.25,29.399999618530273,9.899999618530273,39.2106819152832,0,
 2929597,-0.213623046875,-0.669921875,0.16455078125,5.304878234863281,-84.51219940185547,-47.774391174316406,17.25,29.399999618530273,9.899999618530273,39.2106819152832,0,
 2929607,-0.241455078125,-0.63623046875,0.195068359375,20.54878044128418,-92.95732116699219,-36.09756088256836,10.949999809265137,28.5,9.75,39.35445022583008,0,
 2929617,-0.30908203125,-0.6357421875,0.21728515625,37.408538818359375,-101.006103515625,-21.280488967895508,10.949999809265137,28.5,8.25,39.450294494628906,0,
 2929627,-0.365966796875,-0.66748046875,0.2373046875,50.3658561706543,-105.54878234863281,-6.097560882568359,10.5,28.649999618530273,9.149999618530273,39.2106819152832,0,
 2929637,-0.374267578125,-0.715576171875,0.23828125,61.76829528808594,-107.98780822753906,8.658536911010742,10.5,28.649999618530273,9.149999618530273,39.35445022583008,0,
 2929647,-0.357666015625,-0.881591796875,0.251953125,73.59756469726562,-108.6280517578125,17.225610733032227,11.399999618530273,28.5,9.300000190734863,39.2106819152832,0,
 2929657,-0.357421875,-1.0419921875,0.222412109375,78.07926940917969,-108.68902587890625,15.97560977935791,8.850000381469727,27.450000762939453,7.199999809265137,39.450294494628906,0,
 2929667,-0.488525390625,-1.381103515625,0.092041015625,70.2743911743164,-107.34756469726562,11.219511985778809,9.149999618530273,29.700000762939453,8.550000190734863,39.162757873535156,0,
 2929677,-0.62060546875,-1.530517578125,0.107666015625,76.03659057617188,-93.14024353027344,-22.591463088989258,9.149999618530273,29.700000762939453,8.550000190734863,39.2106819152832,0,
 2929687,-0.65966796875,-1.353759765625,0.002685546875,45.914634704589844,-78.01829528808594,-40.213417053222656,8.399999618530273,27.299999237060547,7.800000190734863,39.2106819152832,0,
 2929697,-0.7138671875,-1.03857421875,0.109130859375,19.359756469726562,-61.25,-31.310976028442383,8.399999618530273,27.299999237060547,8.25,39.01898956298828,0,
 2929707,-0.668212890625,-0.87060546875,0.217041015625,19.512195587158203,-32.256099700927734,-7.652439117431641,6.449999809265137,26.399999618530273,9.0,39.546142578125,0,
 2929717,-0.584228515625,-0.833740234375,0.298828125,32.28658676147461,-21.615854263305664,-0.9451219439506531,5.25,26.850000381469727,9.75,39.2106819152832,0,
 2929727,-0.4501953125,-0.83740234375,0.31494140625,37.92683029174805,-13.932927131652832,9.115854263305664,7.5,29.25,8.25,39.450294494628906,0,
 2929737,-0.279052734375,-0.87744140625,0.345703125,45.30487823486328,-4.02439022064209,11.40243911743164,7.349999904632568,27.450000762939453,7.949999809265137,39.35445022583008,0,
 2929747,0.068359375,-1.09765625,0.34912109375,31.43292808532715,-2.012195110321045,4.45121955871582,7.349999904632568,28.200000762939453,7.199999809265137,39.35445022583008,0,
 2929757,0.029052734375,-1.161376953125,0.259765625,18.079269409179688,5.152439117431641,1.2804877758026123,9.149999618530273,25.649999618530273,4.5,39.450294494628906,0,
 2929768,0.02783203125,-1.05810546875,0.2294921875,10.70121955871582,10.70121955871582,-4.02439022064209,9.149999618530273,25.649999618530273,4.5,39.2106819152832,0,
 2929778,0.015625,-1.07373046875,0.197021484375,8.445121765136719,16.95121955871582,-10.457317352294922,5.25,27.299999237060547,6.300000190734863,39.35445022583008,0,
 2929788,0.0087890625,-1.06884765625,0.187255859375,6.371951580047607,23.38414764404297,-13.719512939453125,5.849999904632568,27.0,6.449999809265137,39.2106819152832,0,
 2929798,0.03173828125,-0.997802734375,0.160888671875,12.134146690368652,27.68292808532715,-15.731707572937012,6.0,28.5,7.050000190734863,39.450294494628906,0,
 2929808,0.08251953125,-1.0556640625,0.183349609375,7.408536911010742,29.39024543762207,-19.69512176513672,6.0,28.5,7.050000190734863,39.30652618408203,0,
 2929818,0.116455078125,-1.03173828125,0.177978515625,4.146341323852539,30.0,-22.530488967895508,5.099999904632568,27.450000762939453,7.650000095367432,39.2106819152832,0,
 2929828,0.12939453125,-0.99169921875,0.1591796875,3.567073345184326,30.121952056884766,-24.725610733032227,5.25,30.0,6.300000190734863,39.49821853637695,0,
 2929838,0.1611328125,-0.993896484375,0.14208984375,3.0487804412841797,29.329269409179688,-26.920732498168945,5.099999904632568,26.700000762939453,5.699999809265137,39.2106819152832,0,
 2929848,0.143798828125,-1.006103515625,0.109619140625,-3.0487804412841797,28.414634704589844,-27.10365867614746,5.099999904632568,26.700000762939453,5.699999809265137,39.2106819152832,0,
 2929858,0.02685546875,-0.89599609375,0.055419921875,-3.1402440071105957,27.164634704589844,-18.231708526611328,5.400000095367432,31.049999237060547,4.650000095367432,39.450294494628906,0,
 2929868,0.222412109375,-0.92822265625,0.112548828125,-13.47560977935791,21.615854263305664,-11.737805366516113,3.5999999046325684,29.850000381469727,5.400000095367432,39.2106819152832,0,
 2929878,0.285400390625,-0.832275390625,0.096923828125,-20.640243530273438,18.414634704589844,-1.1280487775802612,3.75,28.049999237060547,6.300000190734863,39.2106819152832,0,
 2929888,0.31787109375,-0.94677734375,0.15185546875,-19.664634704589844,20.274391174316406,11.37195110321045,3.9000000953674316,27.899999618530273,4.949999809265137,39.546142578125,0,
 2929898,0.31396484375,-0.814697265625,0.130615234375,-34.57316970825195,21.280488967895508,29.908536911010742,3.1500000953674316,29.399999618530273,5.400000095367432,39.30652618408203,0,
 2929908,0.39404296875,-0.760009765625,0.20361328125,-36.7378044128418,21.615854263305664,53.47561264038086,5.25,28.799999237060547,6.300000190734863,39.450294494628906,0,
 2929918,0.39306640625,-0.78076171875,0.15673828125,-40.24390411376953,19.817073822021484,77.7743911743164,4.199999809265137,27.600000381469727,5.550000190734863,39.2106819152832,0,
 2929928,0.2919921875,-0.78955078125,0.119384765625,-48.17073440551758,19.664634704589844,103.71951293945312,5.699999809265137,28.049999237060547,6.75,39.450294494628906,0,
 2929938,0.217529296875,-0.8271484375,0.0439453125,-55.82317352294922,20.579269409179688,124.63414764404297,5.699999809265137,28.049999237060547,6.75,39.35445022583008,0,
 2929958,-0.18505859375,-1.1171875,-0.059326171875,-57.164634704589844,24.60365867614746,123.93292999267578,6.75,31.950000762939453,6.0,39.30652618408203,0,
 2929968,-0.036376953125,-1.005859375,-0.055419921875,-51.1280517578125,24.664634704589844,96.15853881835938,7.349999904632568,28.649999618530273,7.199999809265137,39.2106819152832,0,
 2929978,0.036865234375,-1.238525390625,0.060302734375,-24.14634132385254,19.939023971557617,67.13414764404297,7.349999904632568,28.649999618530273,7.199999809265137,39.30652618408203,0,
 2929988,-0.3232421875,-1.3349609375,-0.062744140625,-30.121952056884766,11.52439022064209,31.280488967895508,9.449999809265137,29.700000762939453,6.75,39.35445022583008,0,
 2929998,1.6904296875,-1.54541015625,2.3701171875,198.47561645507812,2.6524391174316406,-94.756103515625,9.449999809265137,30.75,7.5,39.2106819152832,0,
 2930008,-0.60888671875,-0.3330078125,0.50634765625,-293.8719482421875,-61.310977935791016,-30.64024543762207,10.199999809265137,30.450000762939453,7.800000190734863,39.450294494628906,0,
 2930018,0.060302734375,0.043701171875,0.396240234375,-5.487804889678955,15.27439022064209,10.579268455505371,10.199999809265137,30.450000762939453,7.800000190734863,39.450294494628906,0,
 2930028,0.265869140625,-0.8896484375,0.077880859375,34.29878234863281,2.7439024448394775,46.85975646972656,8.399999618530273,29.25,8.25,39.450294494628906,0,
 2930038,0.33154296875,-1.37255859375,0.189697265625,20.609756469726562,4.390244007110596,61.70731735229492,9.449999809265137,30.75,9.300000190734863,39.35445022583008,0,
 2930048,-0.076416015625,-0.977783203125,-0.089599609375,-46.1280517578125,2.896341562271118,42.530487060546875,8.850000381469727,30.299999237060547,9.899999618530273,39.30652618408203,0,
 2930058,-0.152587890625,-1.167724609375,-0.171875,-21.128049850463867,13.536585807800293,18.20121955871582,10.949999809265137,31.649999618530273,9.0,39.450294494628906,0,
 2930068,0.41015625,-0.852294921875,0.338134765625,28.810976028442383,12.07317066192627,-11.219511985778809,8.699999809265137,29.700000762939453,9.75,39.2106819152832,0,
 2930078,0.001220703125,-0.607421875,0.028076171875,-11.707317352294922,3.445122003555298,-2.5,7.800000190734863,29.399999618530273,8.699999809265137,39.2106819152832,0,
 2930088,0.0986328125,-0.718505859375,0.095703125,6.829268455505371,2.22560977935791,16.310976028442383,9.300000190734863,29.850000381469727,8.699999809265137,39.49821853637695,0,
 2930098,0.049072265625,-1.022705078125,-0.007568359375,15.091464042663574,-2.0426828861236572,23.109756469726562,10.5,29.399999618530273,11.699999809265137,39.30652618408203,0,
 2930108,-0.14599609375,-0.95849609375,-0.17236328125,-6.371951580047607,-2.5,14.634146690368652,10.5,29.399999618530273,11.699999809265137,39.2106819152832,0,
 2930118,-0.01904296875,-0.897705078125,0.007080078125,3.170731782913208,2.2865853309631348,0.8841463327407837,11.25,29.850000381469727,10.199999809265137,39.30652618408203,0,
 2930128,-0.082275390625,-0.858642578125,-0.013427734375,8.59756088256836,-2.5609755516052246,-3.1402440071105957,10.949999809265137,30.0,8.25,39.35445022583008,0,
 2930138,0.001220703125,-0.83935546875,-0.0244140625,11.859756469726562,-6.493902683258057,-3.7804877758026123,12.600000381469727,28.799999237060547,7.800000190734863,39.64198684692383,0,
 2930148,-0.104248046875,-0.848388671875,0.0224609375,14.17682933807373,-8.87195110321045,-6.067073345184326,12.600000381469727,28.799999237060547,7.800000190734863,39.450294494628906,0,
 2930158,-0.075927734375,-0.933837890625,0.02001953125,16.463415145874023,-4.695122241973877,-17.286584854125977,10.800000190734863,30.299999237060547,9.449999809265137,39.2106819152832,0,
 2930168,-0.052001953125,-1.022705078125,0.0654296875,6.615853786468506,-3.8109757900238037,-18.262195587158203,10.949999809265137,28.799999237060547,7.800000190734863,39.35445022583008,0,
 2930178,-0.070068359375,-1.029296875,0.084228515625,1.3109756708145142,-2.7439024448394775,-16.43292808532715,10.649999618530273,30.75,10.800000190734863,39.450294494628906,0,
 2930188,-0.03369140625,-0.973388671875,0.06689453125,4.0853657722473145,-0.4573170840740204,-14.969512939453125,10.649999618530273,30.75,10.800000190734863,39.450294494628906,0,
 2930198,0.015380859375,-0.97705078125,0.049072265625,3.47560977935791,1.0670732259750366,-14.603658676147461,9.149999618530273,29.25,9.300000190734863,39.2106819152832,0,
 2930208,-0.0078125,-0.985107421875,0.0458984375,0.5182926654815674,2.317073106765747,-12.835366249084473,8.699999809265137,30.450000762939453,10.050000190734863,39.450294494628906,0,
 2930218,-0.03955078125,-1.0068359375,0.047607421875,-1.402438998222351,2.0426828861236572,-9.756097793579102,9.300000190734863,28.649999618530273,9.449999809265137,39.546142578125,0,
 2930228,-0.02294921875,-1.048828125,0.00390625,-1.9512195587158203,0.8841463327407837,-8.292682647705078,8.699999809265137,29.700000762939453,9.0,39.2106819152832,0,
 2930238,-0.02978515625,-1.03857421875,-0.028564453125,-1.8292683362960815,-0.5182926654815674,-7.1646342277526855,8.699999809265137,29.700000762939453,9.0,39.689910888671875,0,
 2930248,-0.037353515625,-0.992431640625,-0.012451171875,2.682926893234253,-0.7012194991111755,-5.792683124542236,8.699999809265137,29.25,8.550000190734863,39.450294494628906,0,
 2930258,-0.0107421875,-0.963134765625,0.01513671875,6.646341800689697,-0.8841463327407837,-4.939024448394775,10.800000190734863,30.299999237060547,8.399999618530273,39.162757873535156,0,
 2930268,-0.027099609375,-0.99658203125,0.01171875,7.621951580047607,-2.195122003555298,-3.7195122241973877,10.649999618530273,30.0,8.550000190734863,39.450294494628906,0,
 2930278,-0.041015625,-1.0244140625,0.02099609375,6.310975551605225,-2.987804889678955,-2.77439022064209,10.649999618530273,30.0,8.550000190734863,39.49821853637695,0,
 2930288,-0.03466796875,-0.9970703125,0.024169921875,8.87195110321045,-2.5304877758026123,-3.47560977935791,9.600000381469727,30.600000381469727,9.899999618530273,39.30652618408203,0,
 2930298,-0.027587890625,-0.971923828125,0.019775390625,10.792683601379395,-2.591463565826416,-3.8719513416290283,8.100000381469727,30.299999237060547,8.699999809265137,39.546142578125,0,
 2930308,-0.01708984375,-0.95849609375,0.05078125,10.304878234863281,-2.4390244483947754,-3.2317073345184326,8.550000190734863,29.850000381469727,9.899999618530273,39.35445022583008,0,
 2930318,-0.002197265625,-0.974609375,0.036865234375,9.817073822021484,-2.103658676147461,-2.987804889678955,8.550000190734863,29.850000381469727,9.899999618530273,39.450294494628906,0,
 2930328,-0.02294921875,-0.973876953125,0.025146484375,6.920732021331787,-1.920731782913208,-3.262195110321045,8.699999809265137,30.450000762939453,10.050000190734863,39.49821853637695,0,
 2930338,-0.017333984375,-0.959228515625,0.034423828125,4.786585330963135,-1.3414634466171265,-2.804877996444702,8.550000190734863,29.399999618530273,8.699999809265137,39.35445022583008,0,
 2930348,0.005126953125,-0.912841796875,0.033203125,5.5182929039001465,-0.21341463923454285,-2.6524391174316406,9.600000381469727,29.100000381469727,8.399999618530273,39.450294494628906,0,
 2930358,0.00830078125,-0.91845703125,0.037353515625,5.9146342277526855,0.3048780560493469,-2.77439022064209,9.600000381469727,29.100000381469727,8.399999618530273,39.35445022583008,0,
 2930368,-0.004150390625,-0.956298828125,0.044921875,5.8231706619262695,0.18292683362960815,-1.8902438879013062,10.949999809265137,31.950000762939453,8.550000190734863,39.2106819152832,0,
 2930378,-0.008056640625,-0.9677734375,0.02978515625,4.6646342277526855,0.0,-2.195122003555298,10.050000190734863,31.350000381469727,9.149999618530273,39.11483383178711,0,
 2930388,-0.0224609375,-0.9609375,0.02490234375,4.0853657722473145,0.3048780560493469,-3.170731782913208,8.550000190734863,29.399999618530273,8.699999809265137,39.546142578125,0,
 2930399,-0.015869140625,-0.958251953125,0.05126953125,3.6890244483947754,0.4878048896789551,-4.146341323852539,8.850000381469727,31.049999237060547,7.650000095367432,39.2106819152832,0,
 2930409,-0.015625,-0.972412109375,0.04833984375,5.030488014221191,0.9146341681480408,-5.030488014221191,8.850000381469727,31.049999237060547,7.650000095367432,39.11483383178711,0,
 2930419,-0.037109375,-0.98779296875,0.0380859375,5.152439117431641,0.396341472864151,-6.036585330963135,9.149999618530273,30.450000762939453,8.25,39.30652618408203,0,
 2930429,-0.02734375,-1.006103515625,0.040283203125,3.1402440071105957,0.5487805008888245,-6.158536911010742,10.199999809265137,29.25,8.550000190734863,39.35445022583008,0,
 2930439,-0.01904296875,-0.993408203125,0.0478515625,1.7682926654815674,0.8841463327407837,-6.158536911010742,10.5,30.299999237060547,6.150000095367432,39.35445022583008,0,
 2930449,-0.0078125,-0.976806640625,0.046630859375,2.2560975551605225,1.402438998222351,-6.493902683258057,10.5,30.299999237060547,6.150000095367432,39.64198684692383,0,
 2930459,-0.00439453125,-0.97509765625,0.038330078125,2.7439024448394775,0.5487805008888245,-5.762195110321045,8.699999809265137,30.450000762939453,9.300000190734863,39.2106819152832,0,
 2930469,0.00732421875,-0.982177734375,0.033447265625,4.02439022064209,0.396341472864151,-4.29878044128418,7.800000190734863,30.299999237060547,8.699999809265137,39.49821853637695,0,
 2930479,0.001220703125,-0.970458984375,0.03271484375,4.634146213531494,0.792682945728302,-3.7195122241973877,9.899999618530273,28.799999237060547,5.550000190734863,39.546142578125,0,
 2930489,-0.00537109375,-0.986572265625,0.04736328125,4.2682929039001465,1.1280487775802612,-2.9573171138763428,9.899999618530273,28.799999237060547,5.550000190734863,39.35445022583008,0,
 2930499,0.002685546875,-0.97509765625,0.057861328125,4.390244007110596,0.6402438879013062,-2.103658676147461,7.949999809265137,30.75,7.800000190734863,39.35445022583008,0,
 2930509,-0.003173828125,-0.987548828125,0.0400390625,5.182927131652832,0.21341463923454285,-2.5609755516052246,7.800000190734863,30.299999237060547,8.399999618530273,39.01898956298828,0,
 2930519,-0.01611328125,-0.978271484375,0.039794921875,4.847560882568359,0.0,-2.6219513416290283,8.550000190734863,29.399999618530273,7.199999809265137,39.2106819152832,0,
 2930529,-0.004638671875,-0.977294921875,0.044677734375,5.487804889678955,0.15243902802467346,-2.896341562271118,9.149999618530273,30.75,7.5,39.35445022583008,0,
 2930539,-0.01123046875,-0.96728515625,0.05419921875,6.737804889678955,0.3658536672592163,-3.658536672592163,7.349999904632568,30.600000381469727,7.949999809265137,39.546142578125,0,
 2930549,-0.012939453125,-0.96728515625,0.051513671875,6.128048896789551,0.24390244483947754,-4.695122241973877,8.850000381469727,30.600000381469727,7.650000095367432,39.35445022583008,0,
 2930559,-0.01953125,-0.968017578125,0.048095703125,5.640244007110596,0.15243902802467346,-6.310975551605225,8.550000190734863,31.799999237060547,7.199999809265137,39.2106819152832,0,
 2930569,-0.00390625,-0.963134765625,0.0576171875,6.890244007110596,-0.09146341681480408,-7.652439117431641,8.699999809265137,29.700000762939453,6.300000190734863,39.30652618408203,0,
 2930579,-0.00390625,-0.947265625,0.055908203125,6.6768293380737305,0.396341472864151,-9.329268455505371,8.699999809265137,29.700000762939453,6.300000190734863,39.35445022583008,0,
 2930589,0.00439453125,-0.973388671875,0.0458984375,7.317073345184326,0.09146341681480408,-10.060976028442383,8.100000381469727,31.799999237060547,7.949999809265137,39.2106819152832,0,
 2930599,0.015380859375,-0.955322265625,0.054443359375,7.134146690368652,0.6097561120986938,-10.42682933807373,7.949999809265137,30.450000762939453,7.800000190734863,39.35445022583008,0,
 2930609,0.0107421875,-0.96533203125,0.0615234375,6.615853786468506,0.396341472864151,-9.359756469726562,7.800000190734863,29.850000381469727,6.900000095367432,39.546142578125,0,
 2930619,0.01025390625,-0.982421875,0.0654296875,5.060975551605225,0.7012194991111755,-8.780488014221191,7.800000190734863,29.850000381469727,6.900000095367432,39.64198684692383,0,
 2930629,0.017333984375,-0.98193359375,0.087890625,4.115853786468506,0.9451219439506531,-7.957317352294922,6.449999809265137,29.25,8.25,39.450294494628906,0,
 2930639,0.015625,-0.9794921875,0.0791015625,2.9573171138763428,0.8841463327407837,-7.256097793579102,6.449999809265137,30.450000762939453,7.050000190734863,39.450294494628906,0,
 2930649,0.01904296875,-0.981201171875,0.060546875,2.0731706619262695,1.3109756708145142,-6.8597564697265625,7.050000190734863,31.049999237060547,6.900000095367432,39.30652618408203,0,
 2930659,0.004638671875,-0.97705078125,0.06591796875,1.9817073345184326,1.7987805604934692,-7.408536911010742,7.050000190734863,31.049999237060547,6.900000095367432,39.35445022583008,0,
 2930669,0.007080078125,-0.980712890625,0.056396484375,2.682926893234253,1.2804877758026123,-8.506097793579102,8.100000381469727,31.049999237060547,7.199999809265137,39.30652618408203,0,
 2930679,0.007080078125,-0.982421875,0.0517578125,3.170731782913208,0.9756097793579102,-9.908536911010742,8.550000190734863,32.54999923706055,6.449999809265137,39.2106819152832,0,
 2930689,0.012939453125,-0.980224609375,0.073486328125,4.115853786468506,0.396341472864151,-11.158536911010742,8.550000190734863,30.299999237060547,8.399999618530273,39.35445022583008,0,
 2930699,0.009521484375,-0.976318359375,0.07958984375,2.8353660106658936,0.12195122241973877,-12.957317352294922,6.0,29.25,7.5,39.11483383178711,0,
 2930709,0.013671875,-0.983154296875,0.063232421875,2.865853786468506,0.21341463923454285,-13.87195110321045,7.050000190734863,29.850000381469727,7.949999809265137,39.49821853637695,0,
 2930719,0.015380859375,-0.974365234375,0.072021484375,3.079268455505371,0.27439025044441223,-15.54878044128418,7.050000190734863,31.049999237060547,7.199999809265137,39.30652618408203,0,
 2930729,0.009033203125,-0.97119140625,0.070556640625,2.5304877758026123,0.8841463327407837,-16.585365295410156,7.800000190734863,28.649999618530273,6.449999809265137,39.2106819152832,0,
 2930739,0.00732421875,-0.970458984375,0.0615234375,2.682926893234253,1.0365853309631348,-18.323171615600586,7.199999809265137,30.450000762939453,7.050000190734863,39.49821853637695,0,
 2930749,0.017822265625,-0.96240234375,0.060546875,4.2682929039001465,0.9146341681480408,-20.30487823486328,7.199999809265137,30.450000762939453,7.050000190734863,39.2106819152832,0,
 2930759,0.0322265625,-0.970703125,0.0771484375,3.8719513416290283,0.7012194991111755,-20.94512176513672,7.5,31.200000762939453,6.300000190734863,39.35445022583008,0,
 2930769,0.070068359375,-0.973388671875,0.08740234375,2.3475611209869385,0.21341463923454285,-21.40243911743164,7.5,30.450000762939453,7.5,39.450294494628906,0,
 2930789,0.066650390625,-0.968994140625,0.065673828125,5.609755992889404,-0.5182926654815674,-20.18292808532715,4.949999809265137,31.200000762939453,4.800000190734863,39.35445022583008,0,
 2930799,0.073486328125,-0.998291015625,0.072265625,6.615853786468506,-1.0670732259750366,-19.542682647705078,6.75,29.700000762939453,5.550000190734863,39.2106819152832,0,
 2930809,0.0654296875,-0.9970703125,0.071533203125,6.189024448394775,-1.402438998222351,-17.439023971557617,6.0,30.450000762939453,6.300000190734863,39.35445022583008,0,
 2930819,0.074462890625,-0.996826171875,0.06298828125,7.1646342277526855,-1.432926893234253,-16.55487823486328,5.849999904632568,31.049999237060547,7.650000095367432,39.450294494628906,0,
 2930829,0.076171875,-0.98974609375,0.07373046875,7.987804889678955,-1.9512195587158203,-15.54878044128418,5.849999904632568,31.049999237060547,7.650000095367432,39.49821853637695,0,
 2930839,0.068359375,-0.99365234375,0.05712890625,9.45121955871582,-2.804877996444702,-14.146341323852539,7.199999809265137,28.5,6.300000190734863,39.2106819152832,0,
 2930849,0.070556640625,-0.9921875,0.05908203125,11.981707572937012,-3.4146342277526855,-12.439024925231934,5.849999904632568,28.649999618530273,7.650000095367432,39.35445022583008,0,
 2930859,0.0546875,-0.953369140625,0.070556640625,13.963415145874023,-4.02439022064209,-10.579268455505371,4.650000095367432,30.299999237060547,7.800000190734863,39.450294494628906,0,
 2930869,0.094482421875,-0.99560546875,0.080810546875,17.591463088989258,-4.512195110321045,-9.603658676147461,4.650000095367432,30.299999237060547,6.900000095367432,39.35445022583008,0,
 2930879,0.075927734375,-0.970947265625,0.080078125,17.83536720275879,-5.0,-8.170731544494629,4.650000095367432,30.299999237060547,6.900000095367432,39.30652618408203,0,
 2930899,0.069580078125,-0.983154296875,0.07568359375,17.530488967895508,-5.396341800689697,-4.390244007110596,4.949999809265137,29.25,6.75,39.450294494628906,0,
 2930909,0.150146484375,-0.930419921875,0.086181640625,20.518293380737305,-6.554878234863281,-5.060975551605225,4.949999809265137,30.450000762939453,5.25,39.30652618408203,0,
 2930919,0.040283203125,-1.0673828125,0.08984375,17.774391174316406,-8.384146690368652,-1.1280487775802612,4.949999809265137,30.450000762939453,5.25,39.2106819152832,0,
 2930929,0.03759765625,-0.93359375,0.0419921875,12.591464042663574,-7.743902683258057,0.8841463327407837,5.400000095367432,29.850000381469727,4.650000095367432,39.35445022583008,0,
 2930939,0.0966796875,-1.00439453125,0.14013671875,12.804878234863281,-5.030488014221191,2.865853786468506,4.349999904632568,30.299999237060547,6.449999809265137,39.30652618408203,0,
 2930949,0.110107421875,-0.95361328125,0.115478515625,12.865854263305664,-8.932927131652832,2.5,5.400000095367432,29.850000381469727,7.199999809265137,39.2106819152832,0,
 2930959,0.09912109375,-0.99462890625,0.076171875,9.908536911010742,-11.189024925231934,4.146341323852539,5.400000095367432,29.850000381469727,7.199999809265137,39.35445022583008,0,
 2930969,0.14453125,-0.97216796875,0.0771484375,5.670732021331787,-11.737805366516113,3.8109757900238037,6.449999809265137,30.450000762939453,5.25,39.30652618408203,0,
 2930989,0.1376953125,-0.975830078125,0.062744140625,1.3719512224197388,-16.615854263305664,8.140244483947754,5.25,29.25,1.5,39.30652618408203,0,
 2930999,0.146484375,-0.99609375,0.0634765625,1.097561001777649,-20.426830291748047,8.75,5.25,29.25,1.5,39.162757873535156,0,
 2931009,0.1318359375,-1.00390625,0.038818359375,-2.591463565826416,-25.0,9.02439022064209,6.75,27.600000381469727,6.0,39.35445022583008,0,
 2931019,0.144775390625,-1.0048828125,0.029296875,-4.908536911010742,-29.329269409179688,9.268292427062988,6.300000190734863,29.100000381469727,5.400000095367432,39.35445022583008,0,
 2931029,0.11474609375,-1.006591796875,0.062255859375,-7.042683124542236,-32.28658676147461,9.207317352294922,6.599999904632568,29.850000381469727,6.900000095367432,39.450294494628906,0,
 2931039,0.12451171875,-0.98876953125,0.0712890625,-9.481707572937012,-35.94512176513672,9.085366249084473,6.599999904632568,29.850000381469727,6.900000095367432,39.49821853637695,0,
 2931049,0.1025390625,-0.973388671875,0.09814453125,-11.859756469726562,-38.53658676147461,9.268292427062988,6.599999904632568,29.850000381469727,6.900000095367432,39.30652618408203,0,
 2931059,0.0595703125,-0.975830078125,0.082763671875,-13.658536911010742,-39.664634704589844,8.384146690368652,5.400000095367432,29.100000381469727,5.699999809265137,39.546142578125,0,
 2931069,0.03955078125,-0.967529296875,0.11376953125,-10.182927131652832,-39.45122146606445,4.115853786468506,7.199999809265137,28.799999237060547,6.0,39.49821853637695,0,
 2931079,0.04052734375,-0.98779296875,0.104736328125,-9.359756469726562,-38.475608825683594,2.012195110321045,7.199999809265137,28.799999237060547,6.0,39.450294494628906,0,
 2931089,0.08251953125,-0.83154296875,0.260986328125,-5.213414669036865,-37.103660583496094,-0.030487805604934692,7.199999809265137,28.799999237060547,6.0,39.450294494628906,0,
 2931099,0.1025390625,-0.972412109375,0.110107421875,-6.341463565826416,-34.908538818359375,-3.3841464519500732,7.199999809265137,28.799999237060547,6.75,39.450294494628906,0,
 2931109,0.0439453125,-0.9384765625,0.172119140625,-7.9268293380737305,-32.65243911743164,-4.2682929039001465,8.399999618530273,27.600000381469727,7.5,39.35445022583008,0,
 2931119,0.015380859375,-0.9521484375,0.144287109375,-7.835366249084473,-29.573171615600586,-5.487804889678955,8.399999618530273,27.600000381469727,8.25,39.2106819152832,0,
 2931129,-0.00048828125,-0.928955078125,0.165283203125,-6.79878044128418,-25.030488967895508,-6.5853657722473145,8.399999618530273,27.600000381469727,8.25,39.35445022583008,0,
 2931139,0.01416015625,-0.908203125,0.172607421875,-5.609755992889404,-20.18292808532715,-7.317073345184326,7.800000190734863,27.450000762939453,7.949999809265137,39.35445022583008,0,
 2931149,0.000244140625,-0.900634765625,0.1513671875,-2.4390244483947754,-15.15243911743164,-8.20121955871582,6.75,28.5,7.5,39.2106819152832,0,
 2931159,0.008544921875,-0.8837890625,0.164794921875,0.3048780560493469,-11.463415145874023,-8.506097793579102,6.75,28.5,9.0,39.35445022583008,0,
 2931169,0.00537109375,-0.90869140625,0.156005859375,1.737804889678955,-7.22560977935791,-8.87195110321045,6.75,28.5,9.0,39.35445022583008,0,
 2931179,0.022216796875,-0.89453125,0.154052734375,2.4390244483947754,-3.0487804412841797,-9.29878044128418,8.850000381469727,29.399999618530273,7.949999809265137,39.30652618408203,0,
 2931189,0.0419921875,-0.90869140625,0.150146484375,2.865853786468506,0.4878048896789551,-10.365854263305664,8.550000190734863,29.399999618530273,6.900000095367432,39.11483383178711,0,
 2931199,0.01708984375,-0.952880859375,0.123779296875,3.0182926654815674,3.2012195587158203,-11.52439022064209,7.949999809265137,27.600000381469727,7.800000190734863,39.2106819152832,0,
 2931210,0.012451171875,-0.94384765625,0.161376953125,2.22560977935791,5.853658676147461,-12.896341323852539,7.949999809265137,27.600000381469727,7.800000190734863,39.64198684692383,0,
 2931220,0.010986328125,-0.955078125,0.152587890625,1.1890244483947754,9.57317066192627,-15.0,7.949999809265137,27.600000381469727,7.800000190734863,39.450294494628906,0,
 2931230,-0.119873046875,-0.989013671875,0.121826171875,1.8902438879013062,14.664634704589844,-18.59756088256836,7.050000190734863,25.649999618530273,7.5,39.35445022583008,0,
 2931240,-0.165283203125,-1.017333984375,0.126220703125,-0.09146341681480408,22.19512176513672,-20.518293380737305,7.949999809265137,26.850000381469727,7.5,39.2106819152832,0,
 2931250,-0.207763671875,-1.04296875,0.13427734375,-3.841463565826416,28.68902587890625,-21.55487823486328,7.949999809265137,26.850000381469727,7.5,39.2106819152832,0,
 2931260,-0.23974609375,-1.03076171875,0.160400390625,-8.932927131652832,32.92683029174805,-19.573171615600586,7.949999809265137,26.850000381469727,7.5,39.450294494628906,0,
 2931270,-0.287841796875,-0.980712890625,0.1826171875,-13.414634704589844,36.280487060546875,-15.670732498168945,6.599999904632568,26.399999618530273,9.0,39.35445022583008,0,
 2931280,-0.32177734375,-0.942138671875,0.208251953125,-15.853658676147461,39.39024353027344,-9.268292427062988,6.599999904632568,26.700000762939453,6.900000095367432,39.64198684692383,0,
 2931290,-0.278076171875,-0.87109375,0.245361328125,-15.335366249084473,43.07926940917969,-0.7317073345184326,6.599999904632568,26.700000762939453,6.900000095367432,39.35445022583008,0,
 2931300,-0.237060546875,-0.89208984375,0.295654296875,-4.72560977935791,46.463417053222656,2.804877996444702,6.599999904632568,26.700000762939453,6.900000095367432,39.35445022583008,0,
 2931310,-0.191162109375,-0.942138671875,0.28564453125,4.359755992889404,47.34756088256836,3.5365853309631348,7.050000190734863,27.0,6.449999809265137,39.30652618408203,0,
 2931320,-0.16748046875,-0.975341796875,0.281494140625,9.87804889678955,46.85975646972656,4.390244007110596,7.050000190734863,28.649999618530273,8.399999618530273,39.49821853637695,0,
 2931330,-0.166259765625,-0.895751953125,0.236083984375,8.170731544494629,45.60975646972656,7.713414669036865,7.800000190734863,28.200000762939453,7.949999809265137,39.49821853637695,0,
 2931340,-0.183349609375,-0.8623046875,0.216064453125,10.792683601379395,46.219512939453125,13.384146690368652,7.800000190734863,28.200000762939453,7.949999809265137,38.971065521240234,0,
 2931350,-0.170166015625,-0.870849609375,0.1826171875,16.0060977935791,50.121952056884766,20.060976028442383,7.199999809265137,29.25,7.050000190734863,39.35445022583008,0,
 2931360,-0.1240234375,-0.93115234375,0.152099609375,19.939023971557617,54.085365295410156,25.70121955871582,10.050000190734863,30.299999237060547,5.699999809265137,39.546142578125,0,
 2931370,-0.074462890625,-0.945068359375,0.09326171875,19.542682647705078,57.89634323120117,29.08536720275879,9.149999618530273,30.450000762939453,7.5,39.2106819152832,0,
 2931380,-0.03369140625,-0.98828125,0.067626953125,18.841463088989258,61.6158561706543,30.731708526611328,9.149999618530273,30.450000762939453,7.5,39.35445022583008,0,
 2931390,0.00439453125,-1.040771484375,0.048583984375,16.280488967895508,65.3963394165039,30.670732498168945,9.149999618530273,30.450000762939453,7.5,39.2106819152832,0,
 2931400,0.035400390625,-1.04638671875,0.03173828125,11.310976028442383,66.89024353027344,30.579269409179688,12.899999618530273,32.400001525878906,4.050000190734863,39.35445022583008,0,
 2931410,0.056396484375,-1.0283203125,0.0263671875,4.939024448394775,66.6463394165039,30.18292808532715,13.350000381469727,33.150001525878906,6.300000190734863,39.11483383178711,0,
 2931420,0.07666015625,-1.00732421875,0.037841796875,0.15243902802467346,66.55487823486328,31.707317352294922,13.350000381469727,33.150001525878906,6.300000190734863,39.35445022583008,0,
 2931430,0.102783203125,-1.0048828125,0.0498046875,-3.75,66.00609588623047,32.74390411376953,13.350000381469727,33.150001525878906,6.300000190734863,39.35445022583008,0,
 2931440,0.115966796875,-0.991943359375,0.06884765625,-7.896341800689697,64.42073059082031,34.45122146606445,18.0,34.95000076293945,6.150000095367432,39.162757873535156,0,
 2931450,0.1376953125,-0.969482421875,0.092041015625,-11.493903160095215,61.95122146606445,36.18902587890625,19.350000381469727,32.849998474121094,4.050000190734863,39.450294494628906,0,
 2931460,0.171875,-0.955322265625,0.10302734375,-13.47560977935791,58.99390411376953,37.89634323120117,19.350000381469727,32.849998474121094,4.050000190734863,39.30652618408203,0,
 2931470,0.19580078125,-0.958984375,0.12109375,-13.841464042663574,55.335365295410156,38.90243911743164,19.350000381469727,32.849998474121094,4.050000190734863,39.64198684692383,0,
 2931480,0.223876953125,-0.954833984375,0.12548828125,-14.207317352294922,50.24390411376953,39.05487823486328,20.100000381469727,33.599998474121094,5.25,39.35445022583008,0,
 2931490,0.245361328125,-0.935302734375,0.141845703125,-13.536585807800293,43.506099700927734,38.38414764404297,23.100000381469727,29.850000381469727,4.650000095367432,39.30652618408203,0,
 2931500,0.255859375,-0.929443359375,0.134521484375,-12.560976028442383,36.03658676147461,36.92073440551758,22.799999237060547,32.400001525878906,7.5,39.35445022583008,0,
 2931510,0.25927734375,-0.95849609375,0.148193359375,-9.268292427062988,29.329269409179688,35.3658561706543,22.799999237060547,32.400001525878906,7.5,39.30652618408203,0,
 2931520,0.24609375,-0.966552734375,0.13623046875,-7.469512462615967,13.658536911010742,32.92683029174805,25.200000762939453,34.349998474121094,8.25,39.49821853637695,0,
 2931530,0.226806640625,-0.956298828125,0.133056640625,-5.762195110321045,7.835366249084473,32.80487823486328,25.649999618530273,33.75,7.199999809265137,39.2106819152832,0,
 2931550,0.2177734375,-0.96435546875,0.13330078125,-3.567073345184326,0.6402438879013062,29.268293380737305,28.799999237060547,32.25,7.949999809265137,39.546142578125,0,
 2931560,0.221923828125,-1.00439453125,0.134521484375,-5.152439117431641,-2.865853786468506,26.524391174316406,27.450000762939453,31.950000762939453,7.949999809265137,39.49821853637695,0,
 2931570,0.231201171875,-1.029296875,0.158935546875,-8.59756088256836,-7.77439022064209,24.329269409179688,29.399999618530273,33.150001525878906,9.0,39.30652618408203,0,
 2931580,0.235107421875,-0.995849609375,0.18798828125,-10.640244483947754,-14.085366249084473,21.829269409179688,28.799999237060547,32.54999923706055,7.650000095367432,39.30652618408203,0,
 2931590,0.211181640625,-0.95068359375,0.2099609375,-7.957317352294922,-19.573171615600586,18.93292808532715,28.799999237060547,32.54999923706055,7.650000095367432,39.64198684692383,0,
 2931600,0.163818359375,-0.939453125,0.22802734375,-4.847560882568359,-24.359756469726562,18.38414764404297,29.700000762939453,32.54999923706055,7.650000095367432,39.49821853637695,0,
 2931610,0.138427734375,-0.908935546875,0.2607421875,-0.9451219439506531,-30.274391174316406,19.420732498168945,28.799999237060547,31.350000381469727,10.949999809265137,39.162757873535156,0,
 2931620,0.125,-0.82666015625,0.302490234375,8.810976028442383,-37.378047943115234,22.164634704589844,29.700000762939453,31.649999618530273,9.300000190734863,39.450294494628906,0,
 2931640,0.067138671875,-0.82861328125,0.360595703125,26.707317352294922,-51.432926177978516,27.621952056884766,32.25,31.649999618530273,9.300000190734863,39.35445022583008,0,
 2931650,0.033203125,-0.853759765625,0.376708984375,35.24390411376953,-56.67683029174805,28.68902587890625,33.0,33.75,8.699999809265137,39.35445022583008,0,
 2931660,-0.007080078125,-0.87548828125,0.379638671875,42.469512939453125,-59.42073440551758,28.44512176513672,30.299999237060547,33.0,8.399999618530273,39.450294494628906,0,
 2931670,-0.03466796875,-0.897705078125,0.370361328125,47.80487823486328,-59.8780517578125,27.98780632019043,31.950000762939453,33.150001525878906,9.0,39.30652618408203,0,
 2931680,-0.069091796875,-0.927490234375,0.347412109375,50.15243911743164,-59.39024353027344,27.926830291748047,31.5,33.150001525878906,9.0,39.2106819152832,0,
 2931690,-0.061767578125,-0.91845703125,0.3515625,51.1280517578125,-57.28658676147461,28.20121955871582,32.25,33.75,7.650000095367432,39.35445022583008,0,
 2931700,-0.038330078125,-0.887451171875,0.362548828125,50.54878234863281,-55.03049087524414,28.93292808532715,31.799999237060547,34.20000076293945,7.949999809265137,39.450294494628906,0,
 2931710,-0.005126953125,-0.851318359375,0.375732421875,51.92073440551758,-54.20731735229492,30.09146499633789,32.849998474121094,34.04999923706055,7.5,39.49821853637695,0,
 2931720,0.032958984375,-0.811767578125,0.37451171875,53.68902587890625,-55.4878044128418,32.19512176513672,32.849998474121094,34.04999923706055,7.5,39.49821853637695,0,
 2931730,0.040283203125,-0.786376953125,0.362548828125,57.103660583496094,-57.95731735229492,34.756099700927734,32.25,35.70000076293945,6.449999809265137,39.01898956298828,0,
 2931740,0.0458984375,-0.80029296875,0.326904296875,60.70122146606445,-60.060977935791016,37.92683029174805,31.049999237060547,34.20000076293945,6.150000095367432,39.450294494628906,0,
 2931750,0.036865234375,-0.832763671875,0.302490234375,61.58536911010742,-60.914634704589844,41.40243911743164,30.450000762939453,35.54999923706055,3.75,39.49821853637695,0,
 2931760,0.026123046875,-0.84765625,0.264892578125,59.664634704589844,-60.03049087524414,44.35975646972656,30.450000762939453,35.54999923706055,3.75,39.49821853637695,0,
 2931770,-0.0009765625,-0.862060546875,0.229248046875,56.09756088256836,-57.13414764404297,46.1280517578125,30.899999618530273,36.0,1.7999999523162842,39.450294494628906,0,
 2931780,-0.01806640625,-0.87109375,0.1923828125,52.22561264038086,-52.103660583496094,46.03658676147461,31.200000762939453,35.54999923706055,0.75,39.2106819152832,0,
 2931790,-0.03271484375,-0.899658203125,0.163818359375,48.01829528808594,-44.908538818359375,47.04268264770508,29.399999618530273,34.349998474121094,-0.30000001192092896,39.35445022583008,0,
 2931800,-0.070556640625,-0.95068359375,0.116455078125,43.17073440551758,-36.6158561706543,46.49390411376953,29.399999618530273,34.349998474121094,-0.30000001192092896,39.737831115722656,0,
 2931820,-0.06005859375,-1.05908203125,0.09716796875,27.89634132385254,-16.463415145874023,40.51829528808594,29.549999237060547,35.70000076293945,-1.649999976158142,39.2106819152832,0,
 2931830,-0.05517578125,-1.06884765625,0.11474609375,23.018293380737305,-8.140244483947754,29.908536911010742,28.350000381469727,34.95000076293945,-2.700000047683716,39.01898956298828,0,
 2931840,-0.093505859375,-1.03125,0.0849609375,19.237804412841797,-2.3475611209869385,17.560976028442383,27.75,34.349998474121094,-3.75,39.450294494628906,0,
 2931850,-0.143310546875,-1.0009765625,0.060546875,15.335366249084473,3.4146342277526855,11.95121955871582,27.75,34.349998474121094,-3.75,39.01898956298828,0,
 2931860,-0.1767578125,-0.99609375,0.053955078125,10.640244483947754,9.237805366516113,12.408536911010742,28.049999237060547,35.400001525878906,-5.699999809265137,39.35445022583008,0,
 2931870,-0.188720703125,-1.01904296875,0.043212890625,5.609755992889404,15.0,15.365854263305664,24.899999618530273,34.95000076293945,-5.400000095367432,39.30652618408203,0,
 2931880,-0.215087890625,-1.058349609375,0.039306640625,-1.7073171138763428,19.725610733032227,15.579268455505371,25.5,34.04999923706055,-6.0,39.162757873535156,0,
 2931890,-0.25048828125,-1.0693359375,0.02685546875,-9.481707572937012,23.90243911743164,15.42682933807373,25.5,34.04999923706055,-6.0,39.49821853637695,0,
 2931900,-0.28466796875,-1.071533203125,-0.002685546875,-18.292682647705078,28.59756088256836,15.518293380737305,25.350000381469727,33.75,-7.650000095367432,39.49821853637695,0,
 2931911,-0.31005859375,-1.063720703125,-0.01513671875,-28.04878044128418,34.26829528808594,18.963415145874023,24.600000381469727,33.45000076293945,-4.650000095367432,39.35445022583008,0,
 2931921,-0.327880859375,-1.036865234375,-0.01904296875,-38.567073822021484,40.54878234863281,22.439023971557617,24.0,32.400001525878906,-7.800000190734863,39.450294494628906,0,
 2931931,-0.33935546875,-0.96044921875,-0.03076171875,-47.19512176513672,46.6158561706543,24.359756469726562,24.0,32.400001525878906,-7.800000190734863,39.2106819152832,0,
 2931941,-0.35400390625,-0.8720703125,-0.02587890625,-50.39634323120117,52.92683029174805,28.44512176513672,22.200000762939453,33.0,-3.1500000953674316,39.546142578125,0,
 2931951,-0.348876953125,-0.744384765625,-0.014892578125,-50.67073440551758,59.05487823486328,36.25,24.149999618530273,32.54999923706055,-6.150000095367432,39.30652618408203,0,
 2931961,-0.346435546875,-0.629638671875,0.00390625,-44.48170852661133,63.17073440551758,47.621952056884766,23.399999618530273,35.400001525878906,-3.9000000953674316,39.35445022583008,0,
 2931971,-0.39697265625,-0.631103515625,0.03125,-33.353660583496094,81.43292999267578,80.51829528808594,25.200000762939453,32.849998474121094,-5.550000190734863,39.2106819152832,0,
 2931981,-1.768310546875,-1.4697265625,-0.1767578125,-13.75,63.99390411376953,-125.7317123413086,24.149999618530273,33.75,-5.400000095367432,39.35445022583008,0,
 2931991,0.654541015625,-2.26416015625,0.26025390625,-198.32318115234375,-2.408536672592163,20.670732498168945,24.450000762939453,31.649999618530273,-4.5,39.30652618408203,0,
 2932001,-0.5673828125,-0.478271484375,0.316650390625,-102.256103515625,-13.963415145874023,18.20121955871582,25.950000762939453,34.04999923706055,-4.5,39.2106819152832,0,
 2932011,-1.031982421875,-0.35986328125,0.244140625,-69.29878234863281,6.554878234863281,-15.762195587158203,21.899999618530273,33.0,-1.2000000476837158,39.35445022583008,0,
 2932021,-0.131103515625,-0.77734375,0.037841796875,-47.164634704589844,5.030488014221191,-25.213415145874023,21.899999618530273,33.0,-1.2000000476837158,39.35445022583008,0,
 2932031,-0.26953125,-0.853759765625,0.089111328125,-20.0,13.932927131652832,-27.560976028442383,24.149999618530273,31.799999237060547,-0.44999998807907104,39.35445022583008,0,
 2932041,-0.153564453125,-0.986328125,0.08203125,-19.78658676147461,9.939024925231934,-17.560976028442383,23.25,32.849998474121094,-0.75,39.30652618408203,0,
 2932051,-0.141845703125,-1.12841796875,0.11962890625,-29.664634704589844,3.2926828861236572,1.432926893234253,23.100000381469727,33.0,-0.15000000596046448,39.450294494628906,0,
 2932061,-0.29052734375,-0.856201171875,0.07421875,-8.658536911010742,8.414634704589844,1.1585365533828735,23.100000381469727,33.0,-0.15000000596046448,39.450294494628906,0,
 2932071,-0.167236328125,-0.998291015625,0.06396484375,-2.195122003555298,4.02439022064209,10.914634704589844,22.200000762939453,33.0,0.8999999761581421,39.11483383178711,0,
 2932081,-0.1533203125,-1.0361328125,0.082275390625,2.103658676147461,1.1585365533828735,23.871952056884766,23.399999618530273,32.25,-1.2000000476837158,39.30652618408203,0,
 2932091,-0.2041015625,-0.98681640625,0.1044921875,9.02439022064209,1.4634146690368652,31.40243911743164,22.799999237060547,34.79999923706055,0.0,39.49821853637695,0,
 2932101,-0.18994140625,-1.005859375,0.104736328125,10.304878234863281,0.8231707215309143,39.085365295410156,22.799999237060547,34.79999923706055,0.0,39.450294494628906,0,
 2932111,-0.216064453125,-0.9677734375,0.110107421875,14.115854263305664,-4.146341323852539,41.03658676147461,24.899999618530273,32.54999923706055,0.15000000596046448,39.35445022583008,0,
 2932121,-0.198974609375,-0.994384765625,0.087158203125,13.506097793579102,-2.408536672592163,38.59756088256836,24.600000381469727,33.0,-0.15000000596046448,39.450294494628906,0,
 2932131,-0.251953125,-0.92919921875,0.127197265625,12.469512939453125,-1.1890244483947754,36.128047943115234,23.25,31.950000762939453,-0.30000001192092896,39.162757873535156,0,
 2932141,-0.27392578125,-0.89306640625,0.13427734375,10.396341323852539,-1.1585365533828735,30.274391174316406,25.350000381469727,33.75,-0.44999998807907104,39.35445022583008,0,
 2932151,-0.282958984375,-0.876953125,0.13818359375,8.810976028442383,-0.6402438879013062,24.390243530273438,25.350000381469727,33.75,-0.44999998807907104,39.11483383178711,0,
 2932161,-0.280517578125,-0.8828125,0.145751953125,7.530488014221191,-0.15243902802467346,20.792682647705078,24.600000381469727,33.0,-0.8999999761581421,39.450294494628906,0,
 2932171,-0.282470703125,-0.887939453125,0.14599609375,5.8231706619262695,0.8231707215309143,17.19512176513672,25.950000762939453,33.599998474121094,-0.30000001192092896,39.11483383178711,0,
 2932181,-0.290771484375,-0.877197265625,0.14697265625,3.3841464519500732,1.4939024448394775,13.445122718811035,25.350000381469727,31.799999237060547,-1.2000000476837158,39.35445022583008,0,
 2932191,-0.2802734375,-0.89111328125,0.150634765625,1.402438998222351,2.22560977935791,10.091464042663574,25.350000381469727,31.799999237060547,-1.2000000476837158,39.2106819152832,0,
 2932201,-0.291748046875,-0.9111328125,0.159912109375,-0.8536585569381714,3.262195110321045,7.591463565826416,26.100000381469727,31.350000381469727,0.44999998807907104,39.450294494628906,0,
 2932211,-0.29541015625,-0.9189453125,0.15625,-3.079268455505371,3.8719513416290283,5.5182929039001465,27.299999237060547,31.350000381469727,-3.9000000953674316,39.546142578125,0,
 2932221,-0.281005859375,-0.9345703125,0.14794921875,-3.932926893234253,5.091463565826416,4.481707572937012,25.649999618530273,35.70000076293945,-0.8999999761581421,39.11483383178711,0,
 2932231,-0.282958984375,-0.944580078125,0.148681640625,-5.243902683258057,6.128048896789551,4.390244007110596,25.649999618530273,35.70000076293945,-0.8999999761581421,39.35445022583008,0,
 2932241,-0.287109375,-0.9599609375,0.142578125,-5.304878234863281,7.134146690368652,5.396341800689697,25.950000762939453,33.150001525878906,-1.5,39.450294494628906,0,
 2932251,-0.2724609375,-0.950927734375,0.122802734375,-5.54878044128418,7.1646342277526855,7.347561359405518,24.149999618530273,31.049999237060547,-1.649999976158142,39.35445022583008,0,
 2932261,-0.260009765625,-0.95458984375,0.112060546875,-3.9939024448394775,7.1646342277526855,9.085366249084473,26.25,33.150001525878906,-0.75,39.49821853637695,0,
 2932271,-0.263671875,-0.9482421875,0.106201171875,-2.2865853309631348,6.5853657722473145,11.707317352294922,26.25,33.150001525878906,-0.75,39.30652618408203,0,
 2932281,-0.26806640625,-0.95654296875,0.10205078125,-0.6402438879013062,5.304878234863281,14.115854263305664,25.649999618530273,33.45000076293945,-0.15000000596046448,39.546142578125,0,
 2932291,-0.273681640625,-0.941162109375,0.107421875,0.8536585569381714,3.567073345184326,16.371952056884766,26.850000381469727,32.54999923706055,-0.8999999761581421,39.2106819152832,0,
 2932301,-0.277587890625,-0.93212890625,0.1064453125,2.0731706619262695,2.5609755516052246,18.109756469726562,25.200000762939453,31.950000762939453,0.75,39.450294494628906,0,
 2932311,-0.2919921875,-0.91748046875,0.1240234375,3.7195122241973877,2.0426828861236572,19.176830291748047,28.799999237060547,31.799999237060547,-3.9000000953674316,39.450294494628906,0,
 2932321,-0.29150390625,-0.91650390625,0.119873046875,4.207317352294922,1.737804889678955,19.664634704589844,28.799999237060547,31.799999237060547,-3.9000000953674316,39.2106819152832,0,
 2932331,-0.301025390625,-0.9140625,0.1318359375,5.152439117431641,1.4634146690368652,20.030488967895508,27.0,31.649999618530273,-1.5,39.450294494628906,0,
 2932341,-0.30126953125,-0.919189453125,0.14111328125,4.237804889678955,1.9512195587158203,20.121952056884766,27.600000381469727,32.54999923706055,-0.8999999761581421,39.450294494628906,0,
 2932351,-0.310302734375,-0.919189453125,0.14697265625,3.9024391174316406,1.7987805604934692,19.69512176513672,28.350000381469727,31.799999237060547,-0.8999999761581421,39.450294494628906,0,
 2932361,-0.314697265625,-0.914794921875,0.1396484375,3.47560977935791,2.3475611209869385,19.512195587158203,28.350000381469727,31.799999237060547,-0.8999999761581421,39.35445022583008,0,
 2932371,-0.31787109375,-0.913330078125,0.1484375,2.012195110321045,2.9573171138763428,19.512195587158203,27.600000381469727,32.25,-1.2000000476837158,39.49821853637695,0,
 2932381,-0.328857421875,-0.911376953125,0.143798828125,1.0060975551605225,3.841463565826416,19.176830291748047,26.700000762939453,31.950000762939453,-0.75,39.450294494628906,0,
 2932391,-0.328369140625,-0.922119140625,0.1474609375,-0.21341463923454285,4.420732021331787,18.719512939453125,27.75,32.849998474121094,-1.0499999523162842,39.35445022583008,0,
 2932401,-0.331298828125,-0.893798828125,0.134521484375,-1.1890244483947754,4.512195110321045,18.170732498168945,27.75,32.849998474121094,-1.0499999523162842,39.30652618408203,0,
 2932411,-0.328125,-0.88427734375,0.131103515625,-0.396341472864151,4.786585330963135,18.231708526611328,30.149999618530273,33.150001525878906,-3.75,39.49821853637695,0,
 2932421,-0.320556640625,-0.897705078125,0.117431640625,0.9451219439506531,4.634146213531494,17.5,27.75,32.849998474121094,-1.7999999523162842,39.35445022583008,0,
 2932431,-0.318115234375,-0.9013671875,0.1181640625,-0.09146341681480408,3.353658676147461,16.64634132385254,27.0,31.649999618530273,-1.0499999523162842,39.11483383178711,0,
 2932441,-0.321533203125,-0.8876953125,0.10400390625,1.2804877758026123,2.378048896789551,15.762195587158203,28.950000762939453,31.200000762939453,-1.5,39.30652618408203,0,
 2932451,-0.329345703125,-0.8955078125,0.1220703125,1.6768293380737305,1.6463414430618286,15.335366249084473,29.399999618530273,32.400001525878906,-0.30000001192092896,39.450294494628906,0,
 2932461,-0.30078125,-0.911865234375,0.130615234375,2.7439024448394775,0.6707317233085632,15.42682933807373,29.399999618530273,30.450000762939453,-2.549999952316284,38.971065521240234,0,
 2932471,-0.33251953125,-0.91162109375,0.12353515625,2.7134146690368652,0.6707317233085632,15.213415145874023,28.649999618530273,30.75,-1.5,39.35445022583008,0,
 2932481,-0.341064453125,-0.916259765625,0.13623046875,1.585365891456604,0.6402438879013062,16.0060977935791,29.700000762939453,31.200000762939453,-2.25,39.2106819152832,0,
 2932491,-0.3427734375,-0.92919921875,0.14599609375,0.4878048896789551,1.097561001777649,17.10365867614746,29.700000762939453,31.200000762939453,-2.25,39.2106819152832,0,
 2932501,-0.35888671875,-0.92724609375,0.155029296875,-1.0670732259750366,2.408536672592163,18.20121955871582,30.450000762939453,31.950000762939453,0.0,39.30652618408203,0,
 2932511,-0.36962890625,-0.908203125,0.15576171875,-1.402438998222351,3.567073345184326,18.567073822021484,29.399999618530273,34.349998474121094,-3.75,39.01898956298828,0,
 2932521,-0.36083984375,-0.921142578125,0.1513671875,-2.987804889678955,4.0853657722473145,19.207317352294922,29.850000381469727,29.100000381469727,-1.9500000476837158,39.49821853637695,0,
 2932531,-0.359375,-0.899658203125,0.1474609375,-2.103658676147461,4.817073345184326,19.939023971557617,29.850000381469727,29.100000381469727,-1.9500000476837158,39.35445022583008,0,
 2932541,-0.36181640625,-0.887939453125,0.126953125,-1.5548781156539917,5.060975551605225,18.963415145874023,30.149999618530273,30.75,-0.30000001192092896,39.35445022583008,0,
 2932551,-0.351318359375,-0.89111328125,0.120849609375,-0.9146341681480408,4.329268455505371,19.29878044128418,31.049999237060547,29.850000381469727,-1.9500000476837158,39.30652618408203,0,
 2932561,-0.355712890625,-0.890625,0.111083984375,-0.030487805604934692,3.5365853309631348,19.512195587158203,31.649999618530273,30.0,-0.30000001192092896,39.30652618408203,0,
 2932571,-0.357177734375,-0.899658203125,0.12109375,-0.09146341681480408,2.896341562271118,20.18292808532715,31.649999618530273,30.0,-0.30000001192092896,39.30652618408203,0,
 2932581,-0.36474609375,-0.885986328125,0.11181640625,0.5792682766914368,2.195122003555298,20.54878044128418,31.049999237060547,30.299999237060547,-3.1500000953674316,39.450294494628906,0,
 2932591,-0.36572265625,-0.89306640625,0.113037109375,0.6402438879013062,1.7073171138763428,21.371952056884766,32.54999923706055,31.799999237060547,-2.700000047683716,39.450294494628906,0,
 2932601,-0.38623046875,-0.873779296875,0.13720703125,0.6707317233085632,1.2195122241973877,21.341463088989258,30.450000762939453,30.75,-2.25,39.450294494628906,0,
 2932611,-0.392333984375,-0.8701171875,0.136474609375,1.097561001777649,1.4634146690368652,20.54878044128418,31.200000762939453,30.75,-3.75,39.11483383178711,0,
 2932621,-0.38916015625,-0.873779296875,0.138427734375,1.5243902206420898,1.8292683362960815,19.939023971557617,31.200000762939453,30.75,-3.75,39.30652618408203,0,
 2932631,-0.376708984375,-0.863037109375,0.119140625,1.097561001777649,1.585365891456604,17.987804412841797,30.450000762939453,31.649999618530273,-3.0,39.30652618408203,0,
 2932641,-0.3974609375,-0.857421875,0.130126953125,0.792682945728302,2.3475611209869385,17.65243911743164,31.049999237060547,31.350000381469727,-0.15000000596046448,39.2106819152832,0,
 2932651,-0.394287109375,-0.870849609375,0.12939453125,0.7317073345184326,2.4695122241973877,16.463415145874023,31.649999618530273,31.200000762939453,-1.0499999523162842,39.546142578125,0,
 2932661,-0.402099609375,-0.859130859375,0.126220703125,-1.097561001777649,2.103658676147461,15.091464042663574,31.649999618530273,31.200000762939453,-1.0499999523162842,39.35445022583008,0,
 2932671,-0.398681640625,-0.86328125,0.131103515625,-0.27439025044441223,1.6768293380737305,13.87195110321045,32.25,30.600000381469727,-1.649999976158142,39.2106819152832,0,
 2932682,-0.4013671875,-0.865966796875,0.132080078125,-1.1585365533828735,1.432926893234253,12.896341323852539,31.950000762939453,30.75,-1.0499999523162842,39.49821853637695,0,
 2932692,-0.407958984375,-0.861083984375,0.134521484375,-1.8597561120986938,1.4634146690368652,11.768293380737305,32.25,31.049999237060547,0.44999998807907104,39.450294494628906,0,
 2932702,-0.41015625,-0.876953125,0.137451171875,-1.8597561120986938,1.8292683362960815,10.945121765136719,32.25,31.049999237060547,0.44999998807907104,39.30652618408203,0,
 2932712,-0.4091796875,-0.85546875,0.136962890625,-2.9268293380737305,1.737804889678955,10.335366249084473,32.54999923706055,29.850000381469727,-1.649999976158142,39.01898956298828,0,
 2932722,-0.419189453125,-0.8564453125,0.125244140625,-2.865853786468506,2.195122003555298,9.29878044128418,32.25,29.100000381469727,-1.2000000476837158,39.35445022583008,0,
 2932732,-0.414794921875,-0.8720703125,0.127197265625,-2.408536672592163,2.5304877758026123,8.719511985778809,31.950000762939453,30.75,0.30000001192092896,39.11483383178711,0,
 2932742,-0.410888671875,-0.8623046875,0.126953125,-2.5609755516052246,2.1341464519500732,7.987804889678955,31.950000762939453,30.75,0.30000001192092896,39.2106819152832,0,
 2932752,-0.4150390625,-0.854736328125,0.11572265625,-2.804877996444702,1.9817073345184326,6.890244007110596,33.0,31.350000381469727,-0.44999998807907104,39.450294494628906,0,
 2932762,-0.409423828125,-0.8408203125,0.1240234375,-2.4390244483947754,1.25,5.3353657722473145,32.400001525878906,29.700000762939453,0.30000001192092896,39.2106819152832,0,
 2932772,-0.414794921875,-0.849365234375,0.123779296875,-2.5304877758026123,1.0365853309631348,3.567073345184326,33.599998474121094,29.700000762939453,-0.75,39.2106819152832,0,
 2932782,-0.414306640625,-0.862060546875,0.131103515625,-2.865853786468506,0.8231707215309143,2.0426828861236572,32.25,32.25,0.15000000596046448,39.35445022583008,0,
 2932792,-0.416015625,-0.865478515625,0.128173828125,-3.6890244483947754,1.0365853309631348,1.3719512224197388,32.25,32.25,0.15000000596046448,39.2106819152832,0,
 2932802,-0.416015625,-0.87109375,0.13037109375,-3.2012195587158203,1.1890244483947754,0.3658536672592163,32.849998474121094,31.649999618530273,0.30000001192092896,39.450294494628906,0,
 2932812,-0.41796875,-0.8662109375,0.130859375,-3.7804877758026123,1.3109756708145142,0.24390244483947754,31.950000762939453,31.950000762939453,-1.0499999523162842,39.2106819152832,0,
 2932822,-0.41455078125,-0.860107421875,0.13037109375,-4.115853786468506,1.1890244483947754,-0.12195122241973877,36.75,29.399999618530273,-3.1500000953674316,39.2106819152832,0,
