timestamp,accl_x,accl_y,accl_z,gyro_x,gyro_y,gyro_z,mag_x,mag_y,mag_z,temp,emg,
 66879,0.201904296875,-0.944580078125,0.13916015625,-1.0670732259750366,0.21341463923454285,0.060975611209869385,1.2000000476837158,21.899999618530273,-19.950000762939453,37.72507095336914,0,
 66889,0.1982421875,-0.94189453125,0.138916015625,-0.9146341681480408,0.4573170840740204,0.3048780560493469,1.2000000476837158,21.899999618530273,-19.950000762939453,37.581302642822266,0,
 66899,0.197021484375,-0.94580078125,0.136962890625,-0.4268292784690857,0.24390244483947754,0.0,1.0499999523162842,21.299999237060547,-15.300000190734863,37.91676330566406,0,
 66909,0.19970703125,-0.9423828125,0.134033203125,-0.6707317233085632,0.3048780560493469,0.3658536672592163,0.30000001192092896,21.299999237060547,-15.0,37.77299499511719,0,
 66919,0.19775390625,-0.9375,0.140380859375,-0.5487805008888245,0.27439025044441223,0.3048780560493469,1.7999999523162842,22.049999237060547,-15.75,37.91676330566406,0,
 66929,0.197998046875,-0.9423828125,0.135986328125,-0.396341472864151,0.4573170840740204,0.12195122241973877,3.299999952316284,21.299999237060547,-16.049999237060547,37.72507095336914,0,
 66939,0.197265625,-0.937255859375,0.1396484375,-0.5792682766914368,0.3048780560493469,0.18292683362960815,3.299999952316284,21.299999237060547,-16.049999237060547,37.72507095336914,0,
 66949,0.203857421875,-0.94189453125,0.137939453125,-0.4878048896789551,0.4573170840740204,0.15243902802467346,0.44999998807907104,20.700000762939453,-15.449999809265137,37.72507095336914,0,
 66959,0.19482421875,-0.935302734375,0.135009765625,-0.6402438879013062,0.3048780560493469,0.030487805604934692,0.8999999761581421,21.450000762939453,-16.649999618530273,37.77299499511719,0,
 66969,0.200927734375,-0.942626953125,0.140380859375,-0.3658536672592163,0.6097561120986938,0.27439025044441223,0.44999998807907104,21.450000762939453,-15.449999809265137,37.91676330566406,0,
 66979,0.200927734375,-0.942138671875,0.1416015625,-0.24390244483947754,0.4268292784690857,0.3658536672592163,0.44999998807907104,21.450000762939453,-15.449999809265137,37.581302642822266,0,
 66989,0.194091796875,-0.942138671875,0.136474609375,-0.3353658616542816,0.18292683362960815,0.24390244483947754,0.15000000596046448,21.149999618530273,-14.399999618530273,37.62922668457031,0,
 66999,0.20458984375,-0.942626953125,0.14453125,-0.09146341681480408,0.27439025044441223,0.27439025044441223,1.5,21.75,-15.75,37.91676330566406,0,
 67009,0.200439453125,-0.943115234375,0.140380859375,-0.5487805008888245,0.3658536672592163,0.3658536672592163,1.7999999523162842,20.850000381469727,-13.800000190734863,37.72507095336914,0,
 67019,0.19873046875,-0.9482421875,0.144287109375,-0.18292683362960815,0.5792682766914368,0.3048780560493469,0.44999998807907104,20.700000762939453,-15.149999618530273,37.72507095336914,0,
 67029,0.200439453125,-0.94189453125,0.13916015625,-0.21341463923454285,0.5182926654815674,0.27439025044441223,0.44999998807907104,20.700000762939453,-15.149999618530273,37.533382415771484,0,
 67039,0.201171875,-0.939453125,0.142578125,-0.12195122241973877,0.3048780560493469,0.27439025044441223,0.15000000596046448,21.149999618530273,-16.200000762939453,37.868839263916016,0,
 67049,0.202392578125,-0.94140625,0.140869140625,0.030487805604934692,0.3658536672592163,0.18292683362960815,1.2000000476837158,21.450000762939453,-16.200000762939453,37.72507095336914,0,
 67059,0.1953125,-0.937255859375,0.138916015625,-0.27439025044441223,0.4268292784690857,0.15243902802467346,0.15000000596046448,21.149999618530273,-17.399999618530273,37.77299499511719,0,
 67069,0.198974609375,-0.944091796875,0.142333984375,-0.3353658616542816,0.27439025044441223,0.09146341681480408,0.15000000596046448,21.149999618530273,-17.399999618530273,37.62922668457031,0,
 67079,0.19970703125,-0.943115234375,0.1455078125,-0.5792682766914368,0.4573170840740204,0.4268292784690857,0.44999998807907104,21.450000762939453,-17.399999618530273,37.581302642822266,0,
 67089,0.19970703125,-0.941650390625,0.140869140625,-0.24390244483947754,0.3048780560493469,0.030487805604934692,2.0999999046325684,18.75,-18.450000762939453,37.72507095336914,0,
 67099,0.197265625,-0.93798828125,0.135498046875,-0.3353658616542816,0.5487805008888245,0.3048780560493469,-0.30000001192092896,21.75,-16.049999237060547,37.77299499511719,0,
 67109,0.20166015625,-0.941650390625,0.144287109375,-0.4573170840740204,0.5792682766914368,0.09146341681480408,2.4000000953674316,21.450000762939453,-16.200000762939453,37.72507095336914,0,
 67119,0.19921875,-0.943359375,0.141357421875,-0.3353658616542816,0.15243902802467346,0.15243902802467346,2.4000000953674316,21.450000762939453,-16.200000762939453,37.72507095336914,0,
 67129,0.202880859375,-0.943359375,0.14306640625,-0.4268292784690857,0.4573170840740204,0.24390244483947754,1.7999999523162842,21.299999237060547,-15.75,37.581302642822266,0,
 67139,0.2001953125,-0.946533203125,0.139892578125,-0.4268292784690857,0.5487805008888245,0.27439025044441223,-0.15000000596046448,21.450000762939453,-15.149999618530273,37.72507095336914,0,
 67149,0.1943359375,-0.94287109375,0.136962890625,-0.396341472864151,0.12195122241973877,0.27439025044441223,1.0499999523162842,21.299999237060547,-15.75,37.868839263916016,0,
 67159,0.20458984375,-0.945068359375,0.146728515625,-0.6402438879013062,0.12195122241973877,0.12195122241973877,1.0499999523162842,21.299999237060547,-15.75,37.868839263916016,0,
 67169,0.196044921875,-0.944580078125,0.13720703125,-0.5792682766914368,0.27439025044441223,0.396341472864151,0.0,20.549999237060547,-15.75,37.96468734741211,0,
 67179,0.198974609375,-0.942138671875,0.1416015625,-0.7621951103210449,0.4573170840740204,0.15243902802467346,0.8999999761581421,21.899999618530273,-15.149999618530273,37.62922668457031,0,
 67189,0.198974609375,-0.947265625,0.140625,-0.6097561120986938,0.18292683362960815,0.24390244483947754,3.0,20.549999237060547,-18.75,37.868839263916016,0,
 67199,0.1953125,-0.9423828125,0.134033203125,-0.8231707215309143,0.4573170840740204,0.3658536672592163,1.7999999523162842,22.049999237060547,-15.300000190734863,37.77299499511719,0,
 67209,0.201904296875,-0.945068359375,0.138427734375,-0.9451219439506531,0.4573170840740204,0.6707317233085632,1.7999999523162842,22.049999237060547,-15.300000190734863,37.72507095336914,0,
 67219,0.19580078125,-0.9443359375,0.136962890625,-0.5792682766914368,0.3658536672592163,-0.030487805604934692,1.649999976158142,19.5,-13.949999809265137,37.72507095336914,0,
 67229,0.196533203125,-0.942626953125,0.140869140625,-0.3658536672592163,0.27439025044441223,0.09146341681480408,2.4000000953674316,20.700000762939453,-16.200000762939453,37.533382415771484,0,
 67239,0.201904296875,-0.9423828125,0.14111328125,-0.3048780560493469,0.4268292784690857,0.0,0.44999998807907104,21.899999618530273,-16.200000762939453,37.77299499511719,0,
 67249,0.201171875,-0.943359375,0.14013671875,0.0,0.396341472864151,0.12195122241973877,0.44999998807907104,21.899999618530273,-16.200000762939453,37.72507095336914,0,
 67259,0.19873046875,-0.93505859375,0.141357421875,-0.15243902802467346,0.27439025044441223,0.5487805008888245,1.0499999523162842,20.850000381469727,-14.550000190734863,37.581302642822266,0,
 67269,0.2001953125,-0.93603515625,0.140625,0.030487805604934692,0.18292683362960815,0.24390244483947754,0.8999999761581421,20.700000762939453,-15.899999618530273,37.91676330566406,0,
 67279,0.19921875,-0.94091796875,0.142578125,-0.21341463923454285,0.4268292784690857,0.030487805604934692,1.2000000476837158,19.950000762939453,-15.449999809265137,37.72507095336914,0,
 67289,0.1953125,-0.940673828125,0.141357421875,-0.21341463923454285,0.4573170840740204,0.21341463923454285,2.25,22.5,-20.25,37.72507095336914,0,
 67299,0.204345703125,-0.942138671875,0.136474609375,-0.3658536672592163,0.4268292784690857,0.030487805604934692,2.25,22.5,-20.25,37.91676330566406,0,
 67309,0.203125,-0.93994140625,0.135009765625,-0.24390244483947754,0.09146341681480408,0.3353658616542816,0.44999998807907104,20.700000762939453,-16.200000762939453,37.91676330566406,0,
 67319,0.201904296875,-0.941650390625,0.14013671875,-0.4573170840740204,0.396341472864151,0.5182926654815674,1.0499999523162842,21.299999237060547,-16.049999237060547,37.62922668457031,0,
 67329,0.203125,-0.939453125,0.137939453125,-0.3353658616542816,0.5487805008888245,0.5487805008888245,1.649999976158142,19.950000762939453,-15.899999618530273,37.581302642822266,0,
 67339,0.200927734375,-0.94482421875,0.144287109375,-0.4878048896789551,0.6402438879013062,0.396341472864151,1.649999976158142,19.950000762939453,-15.899999618530273,37.77299499511719,0,
 67349,0.20263671875,-0.9443359375,0.14111328125,-0.24390244483947754,0.27439025044441223,0.18292683362960815,2.25,20.100000381469727,-15.0,37.77299499511719,0,
 67359,0.193115234375,-0.947265625,0.140380859375,-0.6707317233085632,0.3658536672592163,0.12195122241973877,0.30000001192092896,21.299999237060547,-15.300000190734863,37.91676330566406,0,
 67369,0.199462890625,-0.945068359375,0.138671875,-0.792682945728302,0.3658536672592163,0.24390244483947754,1.5,21.299999237060547,-16.5,37.91676330566406,0,
 67379,0.197998046875,-0.939208984375,0.1376953125,-0.6707317233085632,0.21341463923454285,0.3353658616542816,0.44999998807907104,19.950000762939453,-15.899999618530273,37.72507095336914,0,
 67389,0.197509765625,-0.940673828125,0.14501953125,-0.396341472864151,0.3353658616542816,0.18292683362960815,0.44999998807907104,19.950000762939453,-15.899999618530273,37.62922668457031,0,
 67399,0.19775390625,-0.93896484375,0.135986328125,-0.4573170840740204,0.3353658616542816,0.060975611209869385,1.649999976158142,21.450000762939453,-15.449999809265137,37.533382415771484,0,
 67409,0.19677734375,-0.943359375,0.140869140625,-0.18292683362960815,0.3353658616542816,-0.27439025044441223,-0.44999998807907104,20.25,-16.649999618530273,37.77299499511719,0,
 67419,0.201904296875,-0.93505859375,0.13525390625,-0.5487805008888245,0.4573170840740204,0.09146341681480408,0.44999998807907104,20.25,-15.899999618530273,37.581302642822266,0,
 67429,0.2060546875,-0.9384765625,0.136962890625,-0.3353658616542816,0.24390244483947754,0.18292683362960815,0.44999998807907104,20.25,-15.899999618530273,37.72507095336914,0,
 67439,0.194580078125,-0.940673828125,0.142822265625,-0.6707317233085632,0.4268292784690857,0.5182926654815674,-0.44999998807907104,20.700000762939453,-16.649999618530273,37.62922668457031,0,
 67449,0.198974609375,-0.9443359375,0.14111328125,-0.7621951103210449,0.4268292784690857,0.3353658616542816,0.75,21.75,-15.300000190734863,37.91676330566406,0,
 67459,0.194580078125,-0.947998046875,0.137939453125,-0.5792682766914368,0.3658536672592163,0.5792682766914368,1.5,20.549999237060547,-15.0,37.91676330566406,0,
 67469,0.1982421875,-0.947265625,0.141845703125,-0.7317073345184326,0.24390244483947754,0.18292683362960815,1.7999999523162842,22.049999237060547,-16.799999237060547,37.581302642822266,0,
 67479,0.198974609375,-0.940673828125,0.138916015625,-0.9146341681480408,0.5487805008888245,0.4268292784690857,1.7999999523162842,22.049999237060547,-16.799999237060547,37.77299499511719,0,
 67489,0.201416015625,-0.94140625,0.139892578125,-0.6707317233085632,0.3353658616542816,0.6707317233085632,0.8999999761581421,22.649999618530273,-16.950000762939453,37.581302642822266,0,
 67499,0.197998046875,-0.94482421875,0.14111328125,-1.402438998222351,0.4268292784690857,0.4573170840740204,0.0,21.75,-15.75,37.62922668457031,0,
 67509,0.201416015625,-0.94384765625,0.1435546875,-1.2195122241973877,-0.030487805604934692,0.792682945728302,0.8999999761581421,22.649999618530273,-14.699999809265137,37.77299499511719,0,
 67519,0.206298828125,-0.941162109375,0.13525390625,-2.0426828861236572,0.12195122241973877,0.5487805008888245,0.8999999761581421,22.649999618530273,-14.699999809265137,37.581302642822266,0,
 67529,0.20068359375,-0.937255859375,0.140869140625,-1.737804889678955,0.030487805604934692,1.1585365533828735,1.649999976158142,20.700000762939453,-16.649999618530273,37.868839263916016,0,
 67539,0.203369140625,-0.93408203125,0.13720703125,-1.6158536672592163,0.3353658616542816,0.9756097793579102,1.5,22.049999237060547,-16.799999237060547,37.72507095336914,0,
 67549,0.2041015625,-0.93798828125,0.138427734375,-1.7682926654815674,0.24390244483947754,1.2804877758026123,1.5,22.049999237060547,-15.300000190734863,37.77299499511719,0,
 67559,0.19775390625,-0.940185546875,0.135986328125,-1.8292683362960815,0.21341463923454285,1.4939024448394775,0.15000000596046448,20.700000762939453,-15.149999618530273,37.77299499511719,0,
 67569,0.198974609375,-0.942138671875,0.140380859375,-1.6158536672592163,0.3353658616542816,1.3414634466171265,0.15000000596046448,20.700000762939453,-15.149999618530273,37.581302642822266,0,
 67579,0.196044921875,-0.939208984375,0.1328125,-1.3109756708145142,0.5182926654815674,1.2804877758026123,0.8999999761581421,21.149999618530273,-15.899999618530273,37.581302642822266,0,
 67589,0.1953125,-0.93896484375,0.12890625,-1.1890244483947754,0.3048780560493469,1.402438998222351,1.649999976158142,20.25,-15.899999618530273,37.91676330566406,0,
 67599,0.197021484375,-0.939208984375,0.130126953125,-0.9756097793579102,0.6097561120986938,1.2195122241973877,0.44999998807907104,18.75,-18.149999618530273,37.72507095336914,0,
 67609,0.192138671875,-0.945068359375,0.126953125,-0.18292683362960815,0.27439025044441223,0.7621951103210449,0.44999998807907104,18.75,-18.149999618530273,37.72507095336914,0,
 67619,0.1875,-0.939453125,0.129638671875,0.4573170840740204,0.5792682766914368,0.8841463327407837,0.15000000596046448,20.25,-15.149999618530273,37.533382415771484,0,
 67630,0.187744140625,-0.944091796875,0.133544921875,1.1890244483947754,0.3048780560493469,0.4878048896789551,1.2000000476837158,21.450000762939453,-14.699999809265137,37.72507095336914,0,
 67640,0.19482421875,-0.943603515625,0.138916015625,1.7682926654815674,0.792682945728302,0.12195122241973877,0.75,22.049999237060547,-13.5,37.72507095336914,0,
 67650,0.19873046875,-0.946533203125,0.131591796875,2.0426828861236572,0.4268292784690857,-0.12195122241973877,0.8999999761581421,21.149999618530273,-15.899999618530273,37.72507095336914,0,
 67660,0.19873046875,-0.942626953125,0.130615234375,2.378048896789551,0.6402438879013062,-0.4878048896789551,0.8999999761581421,21.149999618530273,-15.899999618530273,37.72507095336914,0,
 67670,0.19287109375,-0.943115234375,0.130859375,2.5304877758026123,1.0670732259750366,-0.5792682766914368,0.30000001192092896,20.100000381469727,-15.300000190734863,37.581302642822266,0,
 67680,0.196044921875,-0.936279296875,0.140869140625,3.3231709003448486,1.0670732259750366,-0.5792682766914368,-0.15000000596046448,20.700000762939453,-17.399999618530273,37.72507095336914,0,
 67690,0.197021484375,-0.938232421875,0.14306640625,3.445122003555298,1.0670732259750366,-0.5792682766914368,0.30000001192092896,20.850000381469727,-17.549999237060547,37.77299499511719,0,
 67700,0.199951171875,-0.94140625,0.147216796875,3.353658676147461,0.792682945728302,-0.3658536672592163,0.30000001192092896,20.850000381469727,-17.549999237060547,37.62922668457031,0,
 67710,0.2080078125,-0.94091796875,0.151123046875,2.7439024448394775,1.0365853309631348,-0.060975611209869385,1.2000000476837158,20.700000762939453,-15.899999618530273,37.581302642822266,0,
 67720,0.198974609375,-0.93994140625,0.153564453125,2.5,0.9451219439506531,-0.060975611209869385,2.0999999046325684,20.700000762939453,-16.200000762939453,37.72507095336914,0,
 67730,0.20166015625,-0.937744140625,0.1552734375,1.4939024448394775,0.4268292784690857,0.15243902802467346,0.8999999761581421,20.25,-15.899999618530273,37.72507095336914,0,
 67740,0.1982421875,-0.936279296875,0.1484375,0.3048780560493469,0.5487805008888245,0.5182926654815674,0.75,22.5,-16.049999237060547,37.77299499511719,0,
 67750,0.205810546875,-0.938720703125,0.147705078125,0.15243902802467346,0.6402438879013062,0.6707317233085632,0.75,22.5,-16.049999237060547,37.72507095336914,0,
 67760,0.19189453125,-0.94482421875,0.1455078125,-0.792682945728302,0.4573170840740204,0.5182926654815674,1.2000000476837158,20.700000762939453,-16.649999618530273,37.62922668457031,0,
 67770,0.2001953125,-0.945556640625,0.1513671875,-1.25,0.4878048896789551,0.5792682766914368,0.15000000596046448,22.649999618530273,-16.649999618530273,37.34169006347656,0,
 67780,0.197021484375,-0.944091796875,0.145263671875,-1.1585365533828735,0.396341472864151,0.7317073345184326,1.5,22.049999237060547,-16.799999237060547,37.77299499511719,0,
 67790,0.196044921875,-0.943115234375,0.143798828125,-1.6158536672592163,0.27439025044441223,1.1585365533828735,1.5,22.049999237060547,-16.799999237060547,37.581302642822266,0,
 67800,0.199462890625,-0.94287109375,0.144287109375,-1.4634146690368652,0.396341472864151,0.5182926654815674,1.5,23.25,-17.549999237060547,37.868839263916016,0,
 67810,0.194580078125,-0.94775390625,0.142578125,-2.3475611209869385,0.18292683362960815,0.4573170840740204,1.7999999523162842,20.100000381469727,-16.5,37.62922668457031,0,
 67820,0.19775390625,-0.942626953125,0.14306640625,-2.22560977935791,0.0,0.15243902802467346,2.25,21.75,-14.25,37.72507095336914,0,
 67830,0.193115234375,-0.946533203125,0.137939453125,-2.591463565826416,-0.030487805604934692,-0.21341463923454285,2.0999999046325684,21.149999618530273,-16.950000762939453,37.868839263916016,0,
 67840,0.1982421875,-0.939453125,0.139892578125,-2.1341464519500732,-0.060975611209869385,-0.4573170840740204,2.0999999046325684,21.149999618530273,-16.950000762939453,37.77299499511719,0,
 67850,0.1962890625,-0.939697265625,0.141357421875,-1.8597561120986938,-0.24390244483947754,-0.396341472864151,-0.30000001192092896,20.549999237060547,-15.75,37.62922668457031,0,
 67860,0.19873046875,-0.946533203125,0.1337890625,-2.1341464519500732,-0.030487805604934692,-0.4573170840740204,1.2000000476837158,21.450000762939453,-16.200000762939453,37.581302642822266,0,
 67870,0.196533203125,-0.937744140625,0.137451171875,-1.432926893234253,0.09146341681480408,-0.27439025044441223,0.0,21.299999237060547,-15.75,37.77299499511719,0,
 67880,0.1982421875,-0.933349609375,0.139892578125,-1.25,0.09146341681480408,-0.3048780560493469,0.0,21.299999237060547,-15.75,37.77299499511719,0,
 67890,0.201904296875,-0.932373046875,0.13330078125,-0.7621951103210449,0.0,-0.18292683362960815,0.0,21.299999237060547,-16.5,37.72507095336914,0,
 67900,0.201904296875,-0.935546875,0.138427734375,-0.792682945728302,0.24390244483947754,-0.27439025044441223,0.44999998807907104,20.700000762939453,-16.950000762939453,37.533382415771484,0,
 67910,0.197509765625,-0.934814453125,0.13671875,-0.4878048896789551,0.12195122241973877,0.27439025044441223,1.5,22.5,-16.049999237060547,37.72507095336914,0,
 67920,0.20361328125,-0.93408203125,0.137451171875,0.3048780560493469,0.4878048896789551,0.27439025044441223,1.7999999523162842,21.75,-16.799999237060547,37.62922668457031,0,
 67930,0.19970703125,-0.930908203125,0.134033203125,0.5487805008888245,0.6097561120986938,0.792682945728302,1.7999999523162842,21.75,-16.799999237060547,37.62922668457031,0,
 67940,0.19970703125,-0.932373046875,0.130859375,1.097561001777649,0.6097561120986938,0.9146341681480408,-0.44999998807907104,21.149999618530273,-16.200000762939453,37.77299499511719,0,
 67950,0.201171875,-0.935791015625,0.1337890625,1.0365853309631348,0.5487805008888245,0.7012194991111755,3.0,22.049999237060547,-14.550000190734863,37.868839263916016,0,
 67960,0.197021484375,-0.94140625,0.138427734375,1.0670732259750366,0.6097561120986938,0.6707317233085632,1.5,20.549999237060547,-16.049999237060547,37.34169006347656,0,
 67970,0.19921875,-0.9384765625,0.135986328125,1.402438998222351,1.0670732259750366,0.7621951103210449,1.5,20.549999237060547,-16.049999237060547,37.72507095336914,0,
 67980,0.19677734375,-0.94140625,0.1416015625,1.6463414430618286,0.9451219439506531,0.6707317233085632,1.7999999523162842,21.299999237060547,-15.0,37.91676330566406,0,
 67990,0.19384765625,-0.94970703125,0.142578125,1.9817073345184326,0.8231707215309143,0.4268292784690857,0.15000000596046448,20.700000762939453,-15.149999618530273,37.96468734741211,0,
 68000,0.190673828125,-0.94384765625,0.14990234375,2.0426828861236572,0.7621951103210449,0.396341472864151,-0.15000000596046448,20.25,-15.149999618530273,37.77299499511719,0,
 68010,0.20361328125,-0.942626953125,0.140869140625,1.1890244483947754,0.6097561120986938,0.4573170840740204,2.25,19.799999237060547,-19.049999237060547,37.581302642822266,0,
 68020,0.194580078125,-0.9482421875,0.1455078125,0.9756097793579102,0.3353658616542816,0.3658536672592163,2.25,19.799999237060547,-19.049999237060547,37.91676330566406,0,
 68030,0.205322265625,-0.946044921875,0.14501953125,0.27439025044441223,0.5182926654815674,0.3353658616542816,2.4000000953674316,21.450000762939453,-16.649999618530273,37.868839263916016,0,
 68040,0.20263671875,-0.946533203125,0.148681640625,-0.12195122241973877,0.27439025044441223,0.12195122241973877,0.75,20.850000381469727,-16.049999237060547,37.62922668457031,0,
 68050,0.20166015625,-0.94677734375,0.144287109375,-0.6097561120986938,0.4573170840740204,-0.18292683362960815,1.5,22.049999237060547,-15.75,37.581302642822266,0,
 68060,0.19580078125,-0.94482421875,0.1484375,-0.7621951103210449,0.6402438879013062,0.24390244483947754,1.5,22.049999237060547,-15.75,37.72507095336914,0,
 68070,0.19921875,-0.943603515625,0.150390625,-0.8536585569381714,0.24390244483947754,0.3658536672592163,0.75,22.049999237060547,-15.300000190734863,37.72507095336914,0,
 68080,0.20556640625,-0.947021484375,0.147216796875,-1.0670732259750366,0.24390244483947754,0.0,0.44999998807907104,21.149999618530273,-15.149999618530273,37.91676330566406,0,
 68090,0.1982421875,-0.9453125,0.150390625,-1.3719512224197388,0.21341463923454285,0.3353658616542816,1.0499999523162842,20.549999237060547,-16.5,37.72507095336914,0,
 68100,0.200927734375,-0.94580078125,0.150634765625,-2.0426828861236572,0.09146341681480408,0.18292683362960815,0.30000001192092896,21.75,-16.5,37.77299499511719,0,
 68110,0.199462890625,-0.939697265625,0.14306640625,-2.103658676147461,-0.3048780560493469,0.396341472864151,0.30000001192092896,21.75,-16.5,37.43753433227539,0,
 68120,0.20166015625,-0.943115234375,0.143310546875,-2.408536672592163,-0.12195122241973877,0.3658536672592163,0.8999999761581421,22.350000381469727,-16.649999618530273,37.581302642822266,0,
 68130,0.195556640625,-0.93798828125,0.142822265625,-2.804877996444702,0.030487805604934692,0.3658536672592163,-0.44999998807907104,19.950000762939453,-17.700000762939453,37.868839263916016,0,
 68140,0.197265625,-0.944091796875,0.139404296875,-2.195122003555298,0.030487805604934692,0.4878048896789551,1.5,20.850000381469727,-15.300000190734863,37.581302642822266,0,
 68150,0.200927734375,-0.937744140625,0.13427734375,-1.8292683362960815,0.18292683362960815,0.24390244483947754,1.5,20.850000381469727,-15.300000190734863,37.91676330566406,0,
 68160,0.196044921875,-0.93408203125,0.138427734375,-1.2804877758026123,0.3353658616542816,0.21341463923454285,0.44999998807907104,20.700000762939453,-16.950000762939453,37.581302642822266,0,
 68170,0.196533203125,-0.937744140625,0.13671875,-0.9756097793579102,0.09146341681480408,0.15243902802467346,0.75,20.549999237060547,-16.799999237060547,37.72507095336914,0,
 68180,0.1962890625,-0.944091796875,0.140380859375,-0.7621951103210449,0.060975611209869385,0.3353658616542816,2.549999952316284,20.850000381469727,-15.75,37.62922668457031,0,
 68190,0.19580078125,-0.9375,0.1396484375,-0.792682945728302,0.12195122241973877,0.12195122241973877,0.15000000596046448,21.450000762939453,-14.399999618530273,37.96468734741211,0,
 68200,0.197998046875,-0.94384765625,0.142578125,-0.6097561120986938,0.3048780560493469,0.0,0.15000000596046448,21.450000762939453,-14.399999618530273,37.91676330566406,0,
 68210,0.200927734375,-0.938232421875,0.138427734375,-0.6707317233085632,0.5487805008888245,0.24390244483947754,1.5,23.700000762939453,-18.0,37.72507095336914,0,
 68220,0.199462890625,-0.94384765625,0.14306640625,-0.4878048896789551,0.6402438879013062,0.4573170840740204,1.0499999523162842,22.049999237060547,-15.300000190734863,37.581302642822266,0,
 68230,0.196533203125,-0.940185546875,0.1337890625,-0.09146341681480408,0.5182926654815674,0.3353658616542816,2.4000000953674316,20.700000762939453,-15.899999618530273,37.77299499511719,0,
 68240,0.19384765625,-0.939208984375,0.137939453125,0.24390244483947754,0.4878048896789551,0.030487805604934692,2.4000000953674316,20.700000762939453,-15.899999618530273,37.72507095336914,0,
 68250,0.20458984375,-0.9443359375,0.14306640625,0.5792682766914368,0.3658536672592163,0.3353658616542816,1.7999999523162842,19.799999237060547,-16.049999237060547,37.72507095336914,0,
 68260,0.19775390625,-0.947509765625,0.14111328125,0.030487805604934692,0.396341472864151,0.4878048896789551,0.75,20.549999237060547,-16.5,37.62922668457031,0,
 68270,0.19970703125,-0.942138671875,0.139404296875,0.6402438879013062,0.5487805008888245,0.3353658616542816,0.0,21.75,-16.049999237060547,37.72507095336914,0,
 68280,0.196044921875,-0.940673828125,0.136962890625,0.3048780560493469,0.7012194991111755,0.24390244483947754,-0.15000000596046448,20.700000762939453,-15.899999618530273,37.72507095336914,0,
 68290,0.199951171875,-0.94287109375,0.138671875,0.27439025044441223,0.7317073345184326,0.5487805008888245,-0.15000000596046448,20.700000762939453,-15.899999618530273,37.62922668457031,0,
 68300,0.196533203125,-0.939697265625,0.146484375,0.396341472864151,0.4573170840740204,0.4268292784690857,1.649999976158142,21.450000762939453,-16.200000762939453,37.77299499511719,0,
 68310,0.200927734375,-0.945068359375,0.14990234375,0.12195122241973877,0.3353658616542816,0.27439025044441223,0.44999998807907104,22.350000381469727,-17.399999618530273,37.72507095336914,0,
 68320,0.201416015625,-0.943359375,0.143798828125,-0.3048780560493469,0.3658536672592163,0.21341463923454285,0.8999999761581421,21.899999618530273,-15.899999618530273,37.72507095336914,0,
 68330,0.20166015625,-0.94287109375,0.140625,-1.0365853309631348,0.09146341681480408,0.12195122241973877,0.8999999761581421,21.899999618530273,-15.899999618530273,37.72507095336914,0,
 68340,0.195068359375,-0.940673828125,0.14111328125,-0.4268292784690857,0.060975611209869385,0.12195122241973877,1.5,21.299999237060547,-15.300000190734863,37.72507095336914,0,
 68350,0.19580078125,-0.942626953125,0.142333984375,-0.7621951103210449,0.4878048896789551,0.0,1.2000000476837158,22.649999618530273,-15.149999618530273,37.533382415771484,0,
 68360,0.197265625,-0.945068359375,0.14208984375,-0.7012194991111755,0.27439025044441223,0.21341463923454285,2.4000000953674316,20.25,-15.0,37.581302642822266,0,
 68370,0.198974609375,-0.941162109375,0.142578125,-0.5182926654815674,0.030487805604934692,0.24390244483947754,2.4000000953674316,20.25,-15.899999618530273,37.77299499511719,0,
 68380,0.202880859375,-0.939697265625,0.139404296875,-1.0670732259750366,-0.030487805604934692,0.6097561120986938,2.4000000953674316,20.25,-15.899999618530273,37.72507095336914,0,
 68390,0.195068359375,-0.944091796875,0.14794921875,-0.5792682766914368,0.3048780560493469,0.7012194991111755,2.25,20.850000381469727,-15.75,37.77299499511719,0,
 68400,0.198486328125,-0.939453125,0.1435546875,-0.5792682766914368,0.4268292784690857,-0.030487805604934692,0.30000001192092896,19.5,-15.899999618530273,37.43753433227539,0,
 68411,0.206298828125,-0.9404296875,0.139892578125,-0.6097561120986938,0.4268292784690857,0.15243902802467346,0.30000001192092896,20.850000381469727,-16.049999237060547,37.868839263916016,0,
 68421,0.19921875,-0.940673828125,0.13916015625,-0.6707317233085632,0.27439025044441223,0.0,0.30000001192092896,20.850000381469727,-16.049999237060547,37.72507095336914,0,
 68431,0.196533203125,-0.940185546875,0.142822265625,-0.6097561120986938,0.18292683362960815,0.3048780560493469,-0.15000000596046448,21.450000762939453,-16.200000762939453,37.77299499511719,0,
 68441,0.19970703125,-0.935302734375,0.136962890625,-0.4573170840740204,0.27439025044441223,-0.21341463923454285,38.25,20.549999237060547,-16.049999237060547,37.77299499511719,0,
 68451,0.194580078125,-0.9423828125,0.145751953125,-0.3658536672592163,0.3353658616542816,-0.09146341681480408,0.30000001192092896,20.850000381469727,-15.300000190734863,37.43753433227539,0,
 68461,0.196533203125,-0.94189453125,0.140625,-0.3658536672592163,0.3048780560493469,0.27439025044441223,0.30000001192092896,20.850000381469727,-15.300000190734863,37.91676330566406,0,
 68471,0.194091796875,-0.94580078125,0.140380859375,-0.030487805604934692,0.5487805008888245,0.15243902802467346,0.30000001192092896,20.850000381469727,-15.300000190734863,37.77299499511719,0,
 68481,0.198486328125,-0.93994140625,0.138916015625,0.030487805604934692,0.4268292784690857,0.18292683362960815,0.44999998807907104,20.850000381469727,-15.75,37.72507095336914,0,
 68491,0.193603515625,-0.944091796875,0.1376953125,-0.09146341681480408,0.7012194991111755,0.3048780560493469,1.2000000476837158,21.450000762939453,-15.149999618530273,37.62922668457031,0,
 68501,0.19873046875,-0.939453125,0.140380859375,-0.4878048896789551,0.24390244483947754,0.4878048896789551,1.2000000476837158,21.450000762939453,-15.149999618530273,37.72507095336914,0,
 68511,0.19921875,-0.93701171875,0.14111328125,-0.09146341681480408,0.4878048896789551,0.15243902802467346,1.2000000476837158,21.450000762939453,-15.149999618530273,37.581302642822266,0,
 68521,0.202880859375,-0.939697265625,0.14013671875,-0.27439025044441223,0.4573170840740204,0.24390244483947754,1.0499999523162842,18.899999618530273,-17.25,37.62922668457031,0,
 68531,0.198974609375,-0.945556640625,0.145751953125,-0.3048780560493469,0.15243902802467346,0.24390244483947754,2.0999999046325684,21.149999618530273,-17.700000762939453,37.91676330566406,0,
 68541,0.201171875,-0.942626953125,0.145751953125,-0.3353658616542816,0.3353658616542816,0.396341472864151,0.44999998807907104,21.149999618530273,-16.200000762939453,37.72507095336914,0,
 68551,0.1943359375,-0.941650390625,0.1435546875,-0.6402438879013062,0.6707317233085632,0.4573170840740204,0.44999998807907104,21.149999618530273,-16.200000762939453,37.581302642822266,0,
 68561,0.199462890625,-0.9462890625,0.142333984375,-0.7621951103210449,0.27439025044441223,0.396341472864151,0.44999998807907104,21.149999618530273,-16.200000762939453,37.868839263916016,0,
 68571,0.195068359375,-0.946044921875,0.14013671875,-0.5182926654815674,0.24390244483947754,0.12195122241973877,2.0999999046325684,19.5,-15.449999809265137,37.72507095336914,0,
 68581,0.196533203125,-0.942626953125,0.140625,-0.4878048896789551,0.4268292784690857,0.09146341681480408,0.0,20.850000381469727,-15.300000190734863,37.72507095336914,0,
 68591,0.20166015625,-0.939208984375,0.143310546875,-0.792682945728302,0.3658536672592163,-0.09146341681480408,0.0,20.850000381469727,-15.300000190734863,37.91676330566406,0,
 68601,0.198486328125,-0.940185546875,0.144775390625,-0.5487805008888245,0.18292683362960815,0.27439025044441223,0.0,20.850000381469727,-15.300000190734863,37.72507095336914,0,
 68611,0.1923828125,-0.939697265625,0.142578125,-0.6402438879013062,0.396341472864151,0.09146341681480408,1.5,23.700000762939453,-16.5,37.72507095336914,0,
 68621,0.197509765625,-0.93408203125,0.1376953125,-0.6707317233085632,0.7621951103210449,0.27439025044441223,-0.15000000596046448,22.649999618530273,-15.449999809265137,37.91676330566406,0,
 68631,0.19970703125,-0.94091796875,0.14501953125,-0.8841463327407837,0.24390244483947754,0.4268292784690857,1.0499999523162842,19.799999237060547,-15.75,37.77299499511719,0,
 68641,0.197509765625,-0.94384765625,0.144775390625,-0.4878048896789551,0.4878048896789551,0.396341472864151,1.0499999523162842,19.799999237060547,-15.75,37.72507095336914,0,
 68651,0.200927734375,-0.93359375,0.140869140625,-0.3658536672592163,0.3353658616542816,0.15243902802467346,0.8999999761581421,21.450000762939453,-16.649999618530273,37.77299499511719,0,
 68661,0.2021484375,-0.943115234375,0.1455078125,-0.6707317233085632,0.3048780560493469,0.3353658616542816,1.7999999523162842,21.75,-16.049999237060547,37.77299499511719,0,
 68671,0.19189453125,-0.941650390625,0.14404296875,-0.6402438879013062,0.18292683362960815,0.18292683362960815,0.8999999761581421,21.149999618530273,-16.200000762939453,37.77299499511719,0,
 68681,0.199462890625,-0.94287109375,0.138671875,-0.18292683362960815,0.3658536672592163,0.4268292784690857,0.8999999761581421,21.149999618530273,-16.200000762939453,37.72507095336914,0,
 68691,0.1962890625,-0.935302734375,0.1474609375,-0.8231707215309143,0.396341472864151,0.3658536672592163,0.8999999761581421,21.899999618530273,-16.200000762939453,37.868839263916016,0,
 68701,0.201171875,-0.9453125,0.141845703125,-0.6707317233085632,0.4878048896789551,0.4268292784690857,0.44999998807907104,20.25,-20.700000762939453,37.581302642822266,0,
 68711,0.192626953125,-0.941650390625,0.139892578125,-0.8536585569381714,0.6097561120986938,0.12195122241973877,0.44999998807907104,22.350000381469727,-18.899999618530273,37.72507095336914,0,
 68721,0.193603515625,-0.943115234375,0.1416015625,-0.6402438879013062,0.5487805008888245,0.5487805008888245,3.75,20.549999237060547,-19.5,37.72507095336914,0,
 68731,0.19873046875,-0.940185546875,0.137939453125,-0.7012194991111755,0.396341472864151,0.030487805604934692,3.75,20.549999237060547,-19.5,37.72507095336914,0,
 68741,0.196044921875,-0.942138671875,0.13671875,-0.24390244483947754,0.24390244483947754,0.15243902802467346,1.5,22.049999237060547,-16.5,37.96468734741211,0,
 68751,0.19287109375,-0.937255859375,0.135498046875,0.3658536672592163,0.5792682766914368,0.5182926654815674,-0.15000000596046448,22.350000381469727,-17.399999618530273,37.581302642822266,0,
 68761,0.1982421875,-0.943359375,0.143310546875,0.4573170840740204,0.6402438879013062,0.4878048896789551,1.0499999523162842,21.299999237060547,-16.5,37.581302642822266,0,
 68771,0.19873046875,-0.943115234375,0.143798828125,0.4878048896789551,0.3353658616542816,0.18292683362960815,1.0499999523162842,21.299999237060547,-16.5,37.581302642822266,0,
 68781,0.196044921875,-0.943115234375,0.14697265625,0.27439025044441223,0.4878048896789551,0.6707317233085632,0.44999998807907104,20.25,-15.449999809265137,37.62922668457031,0,
 68791,0.204345703125,-0.94287109375,0.150634765625,-0.3353658616542816,0.4268292784690857,0.4573170840740204,1.5,20.850000381469727,-16.799999237060547,37.62922668457031,0,
 68801,0.19921875,-0.941162109375,0.145263671875,-0.8231707215309143,0.21341463923454285,0.4573170840740204,1.5,21.75,-15.75,37.72507095336914,0,
 68811,0.19775390625,-0.945068359375,0.14599609375,-0.6707317233085632,0.4878048896789551,0.5487805008888245,1.649999976158142,21.149999618530273,-15.449999809265137,37.72507095336914,0,
 68821,0.19873046875,-0.942138671875,0.13623046875,-0.5182926654815674,0.3353658616542816,0.3658536672592163,1.649999976158142,21.149999618530273,-15.449999809265137,37.868839263916016,0,
 68831,0.1962890625,-0.938232421875,0.1396484375,-0.5792682766914368,0.5487805008888245,0.8841463327407837,1.0499999523162842,19.350000381469727,-15.300000190734863,37.77299499511719,0,
 68841,0.1953125,-0.94287109375,0.14013671875,-0.5487805008888245,0.24390244483947754,0.6707317233085632,0.8999999761581421,21.899999618530273,-15.149999618530273,37.43753433227539,0,
 68851,0.19482421875,-0.942626953125,0.13818359375,-0.6707317233085632,0.27439025044441223,0.4878048896789551,0.0,22.049999237060547,-17.25,37.72507095336914,0,
 68861,0.1943359375,-0.94384765625,0.146240234375,-0.7317073345184326,0.12195122241973877,0.6402438879013062,0.0,22.049999237060547,-17.25,37.77299499511719,0,
 68871,0.196044921875,-0.945068359375,0.148681640625,-0.8536585569381714,0.4573170840740204,0.3048780560493469,0.8999999761581421,20.700000762939453,-15.449999809265137,37.581302642822266,0,
 68881,0.198974609375,-0.9423828125,0.145263671875,-1.2195122241973877,0.24390244483947754,0.3658536672592163,0.0,20.549999237060547,-16.5,37.72507095336914,0,
 68891,0.195556640625,-0.946044921875,0.1396484375,-1.097561001777649,0.3353658616542816,0.4573170840740204,0.8999999761581421,21.899999618530273,-15.899999618530273,37.62922668457031,0,
 68901,0.193359375,-0.9443359375,0.136474609375,-1.0670732259750366,0.3048780560493469,0.3658536672592163,1.649999976158142,19.950000762939453,-16.950000762939453,37.77299499511719,0,
 68911,0.201904296875,-0.935546875,0.143798828125,-0.7621951103210449,0.3048780560493469,0.5182926654815674,1.649999976158142,19.950000762939453,-16.950000762939453,37.91676330566406,0,
 68921,0.195556640625,-0.9423828125,0.13427734375,-0.4573170840740204,0.27439025044441223,-0.030487805604934692,2.4000000953674316,19.200000762939453,-17.700000762939453,37.72507095336914,0,
 68931,0.197998046875,-0.939697265625,0.1396484375,-0.27439025044441223,0.12195122241973877,0.4878048896789551,0.8999999761581421,19.950000762939453,-16.200000762939453,37.72507095336914,0,
 68941,0.19873046875,-0.9462890625,0.14453125,-0.030487805604934692,0.4268292784690857,0.15243902802467346,1.5,20.549999237060547,-15.75,37.77299499511719,0,
 68951,0.197021484375,-0.948974609375,0.13818359375,-0.24390244483947754,0.4573170840740204,0.060975611209869385,1.5,20.549999237060547,-15.75,37.62922668457031,0,
 68961,0.201416015625,-0.93994140625,0.139404296875,0.030487805604934692,0.5182926654815674,-0.15243902802467346,1.5,21.299999237060547,-14.550000190734863,37.72507095336914,0,
 68971,0.198974609375,-0.9453125,0.14013671875,-0.24390244483947754,0.6402438879013062,0.09146341681480408,0.75,18.899999618530273,-16.5,37.581302642822266,0,
 68981,0.195556640625,-0.94091796875,0.140380859375,-0.12195122241973877,0.3658536672592163,-0.030487805604934692,2.25,20.549999237060547,-16.799999237060547,37.91676330566406,0,
 68991,0.194580078125,-0.9404296875,0.144287109375,-0.21341463923454285,0.15243902802467346,-0.15243902802467346,1.2000000476837158,21.899999618530273,-15.149999618530273,37.38961410522461,0,
 69001,0.1943359375,-0.937255859375,0.1455078125,0.21341463923454285,0.5487805008888245,-0.3048780560493469,0.30000001192092896,20.549999237060547,-17.25,37.72507095336914,0,
 69011,0.195556640625,-0.938720703125,0.141845703125,0.5487805008888245,0.4268292784690857,0.060975611209869385,2.25,21.299999237060547,-16.799999237060547,37.581302642822266,0,
 69021,0.19921875,-0.939697265625,0.138671875,0.4878048896789551,0.4573170840740204,-0.030487805604934692,0.44999998807907104,21.450000762939453,-18.149999618530273,37.77299499511719,0,
 69031,0.199951171875,-0.939697265625,0.14697265625,0.6402438879013062,0.6707317233085632,0.12195122241973877,0.15000000596046448,21.450000762939453,-16.649999618530273,37.77299499511719,0,
 69041,0.196044921875,-0.9404296875,0.14111328125,0.4573170840740204,0.6097561120986938,0.27439025044441223,0.15000000596046448,21.450000762939453,-16.649999618530273,37.43753433227539,0,
 69051,0.203369140625,-0.942626953125,0.140380859375,0.7317073345184326,0.7317073345184326,0.5487805008888245,1.5,19.799999237060547,-16.049999237060547,37.72507095336914,0,
 69061,0.1962890625,-0.940673828125,0.147705078125,0.15243902802467346,0.3048780560493469,0.3658536672592163,1.7999999523162842,20.549999237060547,-15.75,37.72507095336914,0,
 69071,0.203125,-0.9404296875,0.146240234375,0.0,0.15243902802467346,0.4268292784690857,0.8999999761581421,20.700000762939453,-16.200000762939453,37.581302642822266,0,
 69081,0.193603515625,-0.94287109375,0.144287109375,-0.5792682766914368,0.4268292784690857,0.396341472864151,0.8999999761581421,20.700000762939453,-16.200000762939453,37.77299499511719,0,
 69091,0.199462890625,-0.93994140625,0.14697265625,-0.8231707215309143,0.3658536672592163,0.7012194991111755,0.15000000596046448,21.899999618530273,-16.200000762939453,37.581302642822266,0,
 69101,0.197265625,-0.93994140625,0.146240234375,-0.792682945728302,0.396341472864151,0.5487805008888245,1.0499999523162842,20.100000381469727,-18.0,37.91676330566406,0,
 69111,0.19677734375,-0.94580078125,0.142578125,-0.792682945728302,0.27439025044441223,0.18292683362960815,-0.8999999761581421,21.149999618530273,-15.449999809265137,37.62922668457031,0,
 69121,0.197998046875,-0.94287109375,0.14697265625,-1.2804877758026123,0.18292683362960815,0.27439025044441223,-1.2000000476837158,20.700000762939453,-17.700000762939453,37.72507095336914,0,
 69132,0.197265625,-0.944091796875,0.144775390625,-0.7621951103210449,0.18292683362960815,0.12195122241973877,-1.2000000476837158,20.700000762939453,-17.700000762939453,37.72507095336914,0,
 69142,0.19873046875,-0.937255859375,0.141845703125,-1.0060975551605225,0.12195122241973877,0.09146341681480408,2.4000000953674316,21.149999618530273,-16.950000762939453,37.77299499511719,0,
 69152,0.193115234375,-0.9375,0.1416015625,-1.1890244483947754,0.3353658616542816,0.3353658616542816,1.2000000476837158,21.149999618530273,-14.699999809265137,37.72507095336914,0,
 69162,0.197265625,-0.935546875,0.140625,-0.9756097793579102,0.18292683362960815,0.12195122241973877,0.44999998807907104,21.450000762939453,-16.649999618530273,37.96468734741211,0,
 69172,0.19873046875,-0.939453125,0.139892578125,-0.9756097793579102,0.0,0.21341463923454285,0.44999998807907104,21.450000762939453,-16.649999618530273,37.77299499511719,0,
 69182,0.200439453125,-0.935546875,0.135986328125,-0.6707317233085632,0.3353658616542816,0.15243902802467346,1.7999999523162842,19.799999237060547,-17.25,37.72507095336914,0,
 69192,0.200439453125,-0.93603515625,0.138427734375,-0.792682945728302,0.18292683362960815,-0.3048780560493469,0.15000000596046448,21.450000762939453,-15.149999618530273,37.62922668457031,0,
 69202,0.200439453125,-0.93994140625,0.140380859375,-0.5792682766914368,0.3048780560493469,0.4268292784690857,-0.44999998807907104,21.450000762939453,-17.399999618530273,37.96468734741211,0,
 69212,0.203125,-0.937744140625,0.14404296875,-0.8231707215309143,0.3658536672592163,0.3048780560493469,0.8999999761581421,21.149999618530273,-17.399999618530273,37.581302642822266,0,
 69222,0.203857421875,-0.942626953125,0.14306640625,-0.5487805008888245,0.24390244483947754,0.060975611209869385,0.8999999761581421,21.149999618530273,-17.399999618530273,37.72507095336914,0,
 69232,0.20166015625,-0.9365234375,0.1474609375,-0.4268292784690857,0.3353658616542816,0.27439025044441223,0.30000001192092896,19.799999237060547,-16.799999237060547,37.38961410522461,0,
 69242,0.1943359375,-0.940673828125,0.148193359375,-0.5487805008888245,0.21341463923454285,-0.12195122241973877,1.5,20.549999237060547,-16.049999237060547,37.62922668457031,0,
 69252,0.201416015625,-0.93994140625,0.138916015625,-0.18292683362960815,0.3353658616542816,0.18292683362960815,1.5,21.75,-17.25,37.91676330566406,0,
 69262,0.200927734375,-0.941650390625,0.143798828125,-0.3658536672592163,0.396341472864151,0.09146341681480408,1.5,21.75,-17.25,37.72507095336914,0,
 69272,0.196044921875,-0.9384765625,0.144287109375,-0.5182926654815674,0.24390244483947754,0.3048780560493469,-0.44999998807907104,20.25,-15.449999809265137,37.72507095336914,0,
 69282,0.1943359375,-0.9384765625,0.1416015625,-0.24390244483947754,0.3048780560493469,0.21341463923454285,1.0499999523162842,21.299999237060547,-15.75,37.38961410522461,0,
 69292,0.197265625,-0.938232421875,0.138916015625,-0.5792682766914368,0.4878048896789551,0.27439025044441223,1.0499999523162842,22.049999237060547,-15.300000190734863,37.72507095336914,0,
 69302,0.205810546875,-0.9404296875,0.14111328125,-0.4268292784690857,0.15243902802467346,0.27439025044441223,1.0499999523162842,19.799999237060547,-17.549999237060547,37.91676330566406,0,
 69312,0.199462890625,-0.94384765625,0.14306640625,-0.4268292784690857,0.396341472864151,0.5792682766914368,1.0499999523162842,19.799999237060547,-17.549999237060547,37.581302642822266,0,
 69322,0.19677734375,-0.947265625,0.145263671875,-0.6707317233085632,0.5792682766914368,0.5182926654815674,0.8999999761581421,21.899999618530273,-16.649999618530273,37.72507095336914,0,
 69332,0.205078125,-0.940673828125,0.1435546875,-0.7317073345184326,0.18292683362960815,0.4573170840740204,1.5,19.350000381469727,-18.0,37.533382415771484,0,
 69342,0.20166015625,-0.9365234375,0.14306640625,-0.9451219439506531,0.4573170840740204,0.6402438879013062,0.75,21.299999237060547,-15.0,37.62922668457031,0,
 69352,0.198486328125,-0.946533203125,0.135986328125,-0.6707317233085632,0.6707317233085632,0.6097561120986938,0.75,21.299999237060547,-15.0,37.91676330566406,0,
 69362,0.200439453125,-0.94091796875,0.142822265625,-1.0060975551605225,0.27439025044441223,0.6097561120986938,0.0,21.299999237060547,-16.049999237060547,37.77299499511719,0,
 69372,0.2021484375,-0.940185546875,0.14404296875,-0.8231707215309143,0.27439025044441223,0.4878048896789551,0.8999999761581421,20.700000762939453,-16.649999618530273,37.72507095336914,0,
 69382,0.198486328125,-0.942138671875,0.14111328125,-0.7621951103210449,0.18292683362960815,0.396341472864151,0.44999998807907104,21.450000762939453,-16.649999618530273,37.72507095336914,0,
 69392,0.197265625,-0.93896484375,0.146728515625,-0.6402438879013062,0.3048780560493469,0.27439025044441223,0.44999998807907104,20.700000762939453,-15.149999618530273,37.77299499511719,0,
 69402,0.199951171875,-0.94677734375,0.1376953125,-0.9451219439506531,0.21341463923454285,0.21341463923454285,0.44999998807907104,20.700000762939453,-15.149999618530273,37.72507095336914,0,
 69412,0.195556640625,-0.940673828125,0.146484375,-1.0670732259750366,0.09146341681480408,0.3048780560493469,0.44999998807907104,21.149999618530273,-15.899999618530273,37.72507095336914,0,
 69422,0.197021484375,-0.943115234375,0.137939453125,-1.2195122241973877,0.060975611209869385,0.15243902802467346,0.30000001192092896,20.850000381469727,-16.5,37.581302642822266,0,
 69432,0.19677734375,-0.94140625,0.138916015625,-1.25,0.15243902802467346,0.21341463923454285,3.299999952316284,22.950000762939453,-19.5,37.43753433227539,0,
 69442,0.196533203125,-0.943359375,0.13134765625,-0.396341472864151,0.09146341681480408,0.18292683362960815,3.299999952316284,22.950000762939453,-19.5,37.96468734741211,0,
 69452,0.199462890625,-0.939208984375,0.13623046875,-0.792682945728302,0.3658536672592163,0.0,0.8999999761581421,20.700000762939453,-16.200000762939453,37.62922668457031,0,
 69462,0.2041015625,-0.940673828125,0.137939453125,-0.27439025044441223,0.3658536672592163,0.27439025044441223,1.2000000476837158,19.950000762939453,-16.200000762939453,37.581302642822266,0,
 69472,0.1982421875,-0.939453125,0.14208984375,-0.3353658616542816,0.27439025044441223,0.21341463923454285,1.0499999523162842,20.549999237060547,-15.75,37.72507095336914,0,
 69482,0.20361328125,-0.9423828125,0.14013671875,-0.18292683362960815,0.6097561120986938,0.3353658616542816,1.2000000476837158,21.149999618530273,-15.149999618530273,37.581302642822266,0,
 69492,0.2021484375,-0.940185546875,0.138427734375,-0.09146341681480408,0.3353658616542816,0.0,1.2000000476837158,21.149999618530273,-15.149999618530273,37.77299499511719,0,
 69502,0.197998046875,-0.940185546875,0.138671875,-0.18292683362960815,0.396341472864151,-0.12195122241973877,0.75,20.549999237060547,-15.75,37.96468734741211,0,
 69512,0.19873046875,-0.94580078125,0.140380859375,0.060975611209869385,0.4878048896789551,0.27439025044441223,2.0999999046325684,21.450000762939453,-16.200000762939453,37.581302642822266,0,
 69522,0.19677734375,-0.942626953125,0.144775390625,-0.27439025044441223,0.5487805008888245,0.4268292784690857,0.30000001192092896,20.549999237060547,-16.5,37.72507095336914,0,
 69532,0.20068359375,-0.9423828125,0.147216796875,-0.12195122241973877,0.3658536672592163,0.030487805604934692,0.30000001192092896,20.549999237060547,-16.5,37.72507095336914,0,
 69542,0.19873046875,-0.943603515625,0.14453125,-0.21341463923454285,0.21341463923454285,0.3048780560493469,0.8999999761581421,20.25,-15.899999618530273,37.77299499511719,0,
 69552,0.197021484375,-0.944580078125,0.139892578125,-0.4573170840740204,0.18292683362960815,0.396341472864151,-0.15000000596046448,21.450000762939453,-15.899999618530273,37.581302642822266,0,
 69562,0.20068359375,-0.93798828125,0.142822265625,-0.3353658616542816,0.3353658616542816,0.4268292784690857,0.8999999761581421,20.700000762939453,-16.200000762939453,37.72507095336914,0,
 69572,0.197265625,-0.938720703125,0.14208984375,-0.3658536672592163,0.4268292784690857,0.6707317233085632,0.0,20.100000381469727,-16.049999237060547,37.72507095336914,0,
 69582,0.201171875,-0.937255859375,0.142822265625,-0.6707317233085632,0.3658536672592163,0.4268292784690857,0.0,20.100000381469727,-16.049999237060547,37.62922668457031,0,
 69592,0.197265625,-0.940185546875,0.1416015625,-0.21341463923454285,0.4878048896789551,0.060975611209869385,-0.44999998807907104,21.450000762939453,-15.899999618530273,37.77299499511719,0,
 69602,0.195068359375,-0.944580078125,0.141357421875,-0.3658536672592163,0.4268292784690857,0.4878048896789551,2.25,22.049999237060547,-16.049999237060547,37.91676330566406,0,
 69612,0.195068359375,-0.94091796875,0.14306640625,-0.3658536672592163,0.5792682766914368,0.5182926654815674,0.8999999761581421,21.899999618530273,-15.899999618530273,37.77299499511719,0,
 69622,0.19775390625,-0.938720703125,0.143310546875,-0.4573170840740204,0.5792682766914368,0.6402438879013062,0.8999999761581421,21.899999618530273,-15.899999618530273,37.91676330566406,0,
 69632,0.197021484375,-0.94189453125,0.148681640625,-0.15243902802467346,0.6707317233085632,0.060975611209869385,1.0499999523162842,19.350000381469727,-16.5,37.77299499511719,0,
 69642,0.196533203125,-0.942626953125,0.146240234375,-0.5792682766914368,0.4573170840740204,0.4573170840740204,2.4000000953674316,19.5,-16.950000762939453,37.72507095336914,0,
 69652,0.201171875,-0.945068359375,0.142333984375,-0.7012194991111755,0.4878048896789551,0.27439025044441223,0.8999999761581421,21.899999618530273,-16.649999618530273,37.581302642822266,0,
 69662,0.19482421875,-0.939453125,0.142333984375,-0.4573170840740204,0.6402438879013062,0.24390244483947754,0.8999999761581421,21.149999618530273,-16.649999618530273,37.91676330566406,0,
 69672,0.198486328125,-0.941650390625,0.14013671875,-0.7621951103210449,0.4573170840740204,0.15243902802467346,0.8999999761581421,21.149999618530273,-16.649999618530273,37.868839263916016,0,
 69682,0.18994140625,-0.937255859375,0.1455078125,-0.4878048896789551,0.3353658616542816,0.0,0.75,20.850000381469727,-16.5,37.77299499511719,0,
 69692,0.194580078125,-0.94140625,0.141845703125,-0.3658536672592163,0.18292683362960815,0.24390244483947754,1.0499999523162842,22.049999237060547,-16.049999237060547,37.91676330566406,0,
 69702,0.19970703125,-0.942138671875,0.14208984375,-0.6097561120986938,0.21341463923454285,0.060975611209869385,0.44999998807907104,21.149999618530273,-16.950000762939453,37.77299499511719,0,
 69712,0.201904296875,-0.940673828125,0.146240234375,-0.4268292784690857,0.396341472864151,0.6097561120986938,0.44999998807907104,21.149999618530273,-16.950000762939453,37.77299499511719,0,
 69722,0.197021484375,-0.938720703125,0.140625,-0.396341472864151,0.396341472864151,0.12195122241973877,0.0,20.549999237060547,-15.75,37.581302642822266,0,
 69732,0.199951171875,-0.945556640625,0.14208984375,-0.6402438879013062,0.5182926654815674,0.060975611209869385,1.0499999523162842,21.75,-15.300000190734863,37.581302642822266,0,
 69742,0.202880859375,-0.936767578125,0.141357421875,-0.12195122241973877,0.27439025044441223,0.09146341681480408,1.5,19.799999237060547,-18.0,37.91676330566406,0,
 69752,0.197265625,-0.940673828125,0.133056640625,-0.09146341681480408,0.4268292784690857,0.396341472864151,1.649999976158142,20.25,-16.200000762939453,37.581302642822266,0,
 69762,0.197509765625,-0.93994140625,0.137939453125,0.24390244483947754,0.24390244483947754,0.09146341681480408,1.649999976158142,20.25,-16.200000762939453,37.91676330566406,0,
 69772,0.193359375,-0.937255859375,0.13916015625,0.27439025044441223,0.5182926654815674,0.21341463923454285,0.75,22.049999237060547,-16.049999237060547,37.62922668457031,0,
 69782,0.197509765625,-0.939453125,0.143310546875,0.3048780560493469,0.5792682766914368,0.4268292784690857,0.75,21.75,-15.75,37.72507095336914,0,
 69792,0.203369140625,-0.93505859375,0.14208984375,0.4878048896789551,0.5792682766914368,0.27439025044441223,2.549999952316284,22.049999237060547,-19.049999237060547,37.77299499511719,0,
 69802,0.197021484375,-0.938232421875,0.147216796875,0.27439025044441223,0.6097561120986938,0.27439025044441223,2.549999952316284,22.049999237060547,-19.049999237060547,37.581302642822266,0,
 69812,0.1953125,-0.936279296875,0.1416015625,0.27439025044441223,0.396341472864151,0.6097561120986938,1.5,21.299999237060547,-15.0,37.96468734741211,0,
 69822,0.198486328125,-0.940185546875,0.144775390625,0.5487805008888245,0.4878048896789551,0.7012194991111755,0.75,20.549999237060547,-17.25,37.62922668457031,0,
 69832,0.193359375,-0.946533203125,0.145751953125,-0.18292683362960815,0.5487805008888245,0.5487805008888245,2.25,20.549999237060547,-16.799999237060547,37.868839263916016,0,
 69842,0.19775390625,-0.944580078125,0.146240234375,-0.12195122241973877,0.6097561120986938,0.4268292784690857,2.549999952316284,22.049999237060547,-18.299999237060547,37.62922668457031,0,
 69852,0.204833984375,-0.947265625,0.14892578125,-0.5792682766914368,0.27439025044441223,0.4878048896789551,2.549999952316284,22.049999237060547,-18.299999237060547,37.91676330566406,0,
 69862,0.199951171875,-0.9482421875,0.14501953125,-0.7317073345184326,0.24390244483947754,0.12195122241973877,-0.44999998807907104,19.950000762939453,-18.149999618530273,37.62922668457031,0,
 69872,0.199951171875,-0.945556640625,0.148681640625,-0.8841463327407837,0.4878048896789551,0.0,3.0,19.799999237060547,-15.75,37.34169006347656,0,
 69882,0.193359375,-0.947265625,0.14599609375,-0.9451219439506531,0.3353658616542816,0.21341463923454285,0.44999998807907104,21.899999618530273,-15.149999618530273,37.77299499511719,0,
 69892,0.197998046875,-0.947509765625,0.145751953125,-0.7317073345184326,0.3658536672592163,0.18292683362960815,0.44999998807907104,21.899999618530273,-15.149999618530273,37.581302642822266,0,
 69903,0.19384765625,-0.943359375,0.1455078125,-1.0670732259750366,0.24390244483947754,0.27439025044441223,0.8999999761581421,21.149999618530273,-15.449999809265137,37.533382415771484,0,
 69923,0.193603515625,-0.94482421875,0.14404296875,-1.432926893234253,0.0,0.24390244483947754,2.549999952316284,19.350000381469727,-16.799999237060547,37.581302642822266,0,
 69933,0.201171875,-0.942138671875,0.146728515625,-1.432926893234253,-0.09146341681480408,0.396341472864151,0.44999998807907104,21.450000762939453,-16.200000762939453,37.72507095336914,0,
 69943,0.194580078125,-0.94189453125,0.136474609375,-1.7073171138763428,0.060975611209869385,-0.060975611209869385,0.44999998807907104,21.450000762939453,-16.200000762939453,37.77299499511719,0,
 69953,0.196533203125,-0.94189453125,0.137939453125,-1.3719512224197388,0.060975611209869385,0.24390244483947754,1.0499999523162842,20.850000381469727,-15.75,37.72507095336914,0,
 69963,0.20263671875,-0.934814453125,0.138427734375,-1.2804877758026123,0.12195122241973877,-0.12195122241973877,0.75,20.100000381469727,-16.049999237060547,37.72507095336914,0,
 69973,0.19873046875,-0.936767578125,0.14111328125,-0.8841463327407837,0.15243902802467346,0.0,1.2000000476837158,20.700000762939453,-16.649999618530273,37.77299499511719,0,
 69983,0.193359375,-0.937744140625,0.141357421875,-0.792682945728302,0.18292683362960815,0.3658536672592163,1.2000000476837158,20.700000762939453,-16.649999618530273,37.77299499511719,0,
 69993,0.197265625,-0.935546875,0.139892578125,-0.7317073345184326,0.3658536672592163,0.24390244483947754,0.0,21.75,-15.0,37.72507095336914,0,
 70003,0.197509765625,-0.936767578125,0.13818359375,-0.6097561120986938,0.4573170840740204,0.3353658616542816,1.0499999523162842,21.299999237060547,-16.5,37.72507095336914,0,
 70013,0.19384765625,-0.943359375,0.1376953125,-0.5487805008888245,0.0,0.27439025044441223,2.0999999046325684,22.350000381469727,-16.950000762939453,37.91676330566406,0,
 70023,0.199462890625,-0.940673828125,0.137939453125,-0.6402438879013062,0.060975611209869385,0.21341463923454285,1.5,22.5,-17.25,37.533382415771484,0,
 70033,0.20068359375,-0.937255859375,0.139404296875,-0.4878048896789551,0.5487805008888245,0.15243902802467346,1.7999999523162842,20.549999237060547,-21.0,37.96468734741211,0,
 70043,0.199462890625,-0.941162109375,0.14013671875,-0.24390244483947754,0.4878048896789551,0.060975611209869385,3.1500000953674316,20.25,-19.649999618530273,37.77299499511719,0,
 70053,0.196533203125,-0.947509765625,0.145751953125,-0.396341472864151,0.5487805008888245,0.24390244483947754,1.649999976158142,19.200000762939453,-15.899999618530273,37.581302642822266,0,
 70063,0.202392578125,-0.943115234375,0.14111328125,0.030487805604934692,0.4878048896789551,0.24390244483947754,2.25,20.850000381469727,-17.25,37.77299499511719,0,
 70073,0.201904296875,-0.93798828125,0.138671875,-0.09146341681480408,0.27439025044441223,0.396341472864151,2.25,20.850000381469727,-17.25,37.581302642822266,0,
 70083,0.19384765625,-0.94189453125,0.142822265625,-0.09146341681480408,0.396341472864151,0.12195122241973877,1.5,22.049999237060547,-15.75,37.72507095336914,0,
 70093,0.199462890625,-0.941162109375,0.1396484375,0.12195122241973877,0.5792682766914368,0.3048780560493469,0.8999999761581421,21.149999618530273,-15.449999809265137,37.72507095336914,0,
 70103,0.200927734375,-0.94384765625,0.144775390625,0.4268292784690857,0.4268292784690857,0.27439025044441223,2.4000000953674316,21.149999618530273,-17.399999618530273,37.72507095336914,0,
 70113,0.19873046875,-0.93798828125,0.140380859375,0.12195122241973877,0.3353658616542816,0.21341463923454285,2.4000000953674316,21.149999618530273,-17.399999618530273,37.91676330566406,0,
 70123,0.202880859375,-0.938720703125,0.1455078125,0.3048780560493469,0.6402438879013062,0.18292683362960815,2.25,21.299999237060547,-18.0,37.72507095336914,0,
 70133,0.201416015625,-0.94189453125,0.147705078125,-0.030487805604934692,0.24390244483947754,0.3048780560493469,1.649999976158142,20.25,-16.649999618530273,37.868839263916016,0,
 70143,0.201416015625,-0.943115234375,0.14501953125,-0.5182926654815674,0.4573170840740204,0.18292683362960815,1.2000000476837158,21.149999618530273,-15.899999618530273,37.91676330566406,0,
 70153,0.199951171875,-0.942138671875,0.138916015625,-0.5792682766914368,0.5487805008888245,0.27439025044441223,0.15000000596046448,20.25,-17.399999618530273,37.91676330566406,0,
 70163,0.197021484375,-0.9423828125,0.14013671875,-0.4268292784690857,0.27439025044441223,0.3048780560493469,0.15000000596046448,20.25,-17.399999618530273,37.72507095336914,0,
 70173,0.19921875,-0.943603515625,0.1416015625,-0.6402438879013062,0.6097561120986938,0.3658536672592163,0.75,20.549999237060547,-16.049999237060547,37.72507095336914,0,
 70183,0.201171875,-0.940185546875,0.141845703125,-0.3658536672592163,0.5792682766914368,0.4878048896789551,2.8499999046325684,19.950000762939453,-16.950000762939453,37.96468734741211,0,
 70193,0.196044921875,-0.935302734375,0.147216796875,-0.6707317233085632,0.24390244483947754,0.24390244483947754,1.649999976158142,21.450000762939453,-15.899999618530273,37.72507095336914,0,
 70203,0.19775390625,-0.9462890625,0.146240234375,-0.21341463923454285,0.396341472864151,0.3353658616542816,1.649999976158142,21.450000762939453,-15.899999618530273,37.581302642822266,0,
 70213,0.194091796875,-0.9423828125,0.1435546875,-0.792682945728302,0.4268292784690857,0.12195122241973877,2.25,20.100000381469727,-18.0,37.38961410522461,0,
 70223,0.196533203125,-0.94189453125,0.143798828125,-0.5182926654815674,0.09146341681480408,0.21341463923454285,1.649999976158142,21.450000762939453,-15.899999618530273,37.62922668457031,0,
 70233,0.197265625,-0.942626953125,0.14306640625,-0.3658536672592163,0.3658536672592163,0.21341463923454285,1.2000000476837158,21.149999618530273,-16.649999618530273,37.91676330566406,0,
 70243,0.197509765625,-0.945556640625,0.14208984375,-0.8841463327407837,0.4573170840740204,0.15243902802467346,2.0999999046325684,21.450000762939453,-17.399999618530273,37.72507095336914,0,
 70253,0.197509765625,-0.94384765625,0.140380859375,-0.6097561120986938,0.5182926654815674,-0.060975611209869385,2.0999999046325684,21.450000762939453,-17.399999618530273,37.91676330566406,0,
 70263,0.20068359375,-0.9345703125,0.13818359375,-0.18292683362960815,0.4268292784690857,0.060975611209869385,0.75,21.75,-16.049999237060547,37.62922668457031,0,
 70273,0.20556640625,-0.942138671875,0.1376953125,-0.5792682766914368,0.24390244483947754,0.060975611209869385,0.75,21.299999237060547,-17.25,37.72507095336914,0,
 70283,0.19970703125,-0.93505859375,0.142822265625,0.060975611209869385,0.4573170840740204,0.3353658616542816,0.75,20.549999237060547,-16.5,37.72507095336914,0,
 70293,0.205078125,-0.94091796875,0.142578125,-0.3658536672592163,0.5792682766914368,0.060975611209869385,0.75,20.549999237060547,-16.5,37.91676330566406,0,
 70303,0.197998046875,-0.943603515625,0.137451171875,-1.1585365533828735,0.3658536672592163,0.21341463923454285,2.0999999046325684,20.700000762939453,-17.399999618530273,37.77299499511719,0,
 70313,0.201171875,-0.937255859375,0.148193359375,-0.3048780560493469,0.4268292784690857,0.24390244483947754,0.30000001192092896,21.299999237060547,-16.5,37.38961410522461,0,
 70323,0.197998046875,-0.93701171875,0.140625,-0.396341472864151,0.4268292784690857,0.6402438879013062,1.7999999523162842,20.850000381469727,-16.799999237060547,37.77299499511719,0,
 70333,0.200927734375,-0.943115234375,0.139892578125,-0.6097561120986938,0.24390244483947754,0.3658536672592163,1.7999999523162842,20.850000381469727,-17.549999237060547,37.77299499511719,0,
 70343,0.205078125,-0.938720703125,0.142822265625,-0.4878048896789551,0.21341463923454285,0.6707317233085632,1.7999999523162842,20.850000381469727,-17.549999237060547,37.62922668457031,0,
 70353,0.20166015625,-0.943359375,0.136962890625,-0.18292683362960815,0.24390244483947754,0.5792682766914368,0.15000000596046448,22.350000381469727,-16.950000762939453,37.868839263916016,0,
 70363,0.198974609375,-0.93603515625,0.1376953125,-0.396341472864151,0.3353658616542816,0.396341472864151,0.44999998807907104,19.950000762939453,-16.649999618530273,37.581302642822266,0,
 70373,0.19482421875,-0.940185546875,0.141357421875,-0.5792682766914368,0.27439025044441223,0.12195122241973877,2.0999999046325684,21.450000762939453,-16.950000762939453,37.62922668457031,0,
 70383,0.204833984375,-0.946044921875,0.141845703125,-0.4573170840740204,0.24390244483947754,0.12195122241973877,2.0999999046325684,21.450000762939453,-16.950000762939453,37.77299499511719,0,
 70393,0.197265625,-0.943115234375,0.14404296875,-0.6402438879013062,0.3353658616542816,0.21341463923454285,2.4000000953674316,22.649999618530273,-14.699999809265137,37.91676330566406,0,
 70403,0.1982421875,-0.94384765625,0.14501953125,-0.5487805008888245,0.030487805604934692,0.3658536672592163,0.75,21.299999237060547,-15.300000190734863,37.77299499511719,0,
 70413,0.201904296875,-0.938232421875,0.141357421875,-0.6097561120986938,0.3658536672592163,0.15243902802467346,0.15000000596046448,21.450000762939453,-16.200000762939453,37.43753433227539,0,
 70423,0.20458984375,-0.9404296875,0.141357421875,-0.5487805008888245,0.24390244483947754,0.18292683362960815,0.30000001192092896,20.549999237060547,-16.799999237060547,37.72507095336914,0,
 70433,0.201171875,-0.94287109375,0.13525390625,-0.6402438879013062,0.3353658616542816,0.12195122241973877,0.30000001192092896,20.549999237060547,-16.799999237060547,37.72507095336914,0,
 70443,0.1982421875,-0.940673828125,0.141357421875,-0.6097561120986938,0.5487805008888245,0.18292683362960815,0.15000000596046448,22.649999618530273,-15.149999618530273,37.77299499511719,0,
 70453,0.199951171875,-0.942138671875,0.140869140625,-0.4573170840740204,0.24390244483947754,0.24390244483947754,2.8499999046325684,22.350000381469727,-15.449999809265137,37.91676330566406,0,
 70463,0.200927734375,-0.938720703125,0.1435546875,-0.4878048896789551,0.3353658616542816,0.3658536672592163,-0.8999999761581421,20.700000762939453,-16.649999618530273,37.581302642822266,0,
 70473,0.193115234375,-0.940673828125,0.140869140625,-0.6402438879013062,0.21341463923454285,0.4878048896789551,-0.8999999761581421,20.700000762939453,-16.649999618530273,37.72507095336914,0,
 70483,0.199951171875,-0.94140625,0.139892578125,-0.6402438879013062,0.396341472864151,0.27439025044441223,0.15000000596046448,20.700000762939453,-14.699999809265137,37.72507095336914,0,
 70493,0.197998046875,-0.939697265625,0.14404296875,-0.7012194991111755,0.396341472864151,0.396341472864151,0.44999998807907104,22.350000381469727,-17.399999618530273,37.77299499511719,0,
 70503,0.200927734375,-0.9423828125,0.14697265625,-0.4878048896789551,0.27439025044441223,0.3048780560493469,0.75,20.100000381469727,-17.25,37.72507095336914,0,
 70513,0.19970703125,-0.945068359375,0.140869140625,-0.5792682766914368,0.5792682766914368,0.27439025044441223,1.649999976158142,21.450000762939453,-16.649999618530273,37.72507095336914,0,
 70523,0.19580078125,-0.935791015625,0.14306640625,-0.5792682766914368,0.3048780560493469,0.21341463923454285,1.649999976158142,21.450000762939453,-16.649999618530273,37.72507095336914,0,
 70533,0.1962890625,-0.9365234375,0.142333984375,-0.6402438879013062,0.12195122241973877,0.396341472864151,0.75,21.299999237060547,-17.25,37.868839263916016,0,
 70543,0.2021484375,-0.938720703125,0.14306640625,-0.4573170840740204,0.21341463923454285,0.030487805604934692,0.30000001192092896,20.850000381469727,-16.049999237060547,37.62922668457031,0,
 70554,0.19580078125,-0.938232421875,0.14306640625,-0.6097561120986938,0.396341472864151,0.27439025044441223,0.44999998807907104,20.700000762939453,-15.449999809265137,37.533382415771484,0,
 70564,0.20166015625,-0.943603515625,0.14111328125,-0.4573170840740204,0.18292683362960815,0.3048780560493469,0.44999998807907104,20.700000762939453,-15.449999809265137,37.72507095336914,0,
 70574,0.192626953125,-0.94287109375,0.1416015625,-0.4878048896789551,0.5487805008888245,0.27439025044441223,1.7999999523162842,20.100000381469727,-16.049999237060547,37.72507095336914,0,
 70584,0.19189453125,-0.94189453125,0.142822265625,-0.4268292784690857,0.3353658616542816,0.15243902802467346,0.75,20.100000381469727,-15.75,37.581302642822266,0,
 70594,0.19970703125,-0.938232421875,0.14111328125,-0.3658536672592163,0.27439025044441223,0.5792682766914368,0.8999999761581421,21.149999618530273,-15.449999809265137,37.72507095336914,0,
 70604,0.20068359375,-0.93896484375,0.142578125,-0.396341472864151,0.4878048896789551,0.18292683362960815,1.2000000476837158,20.25,-16.649999618530273,37.581302642822266,0,
 70614,0.2041015625,-0.942138671875,0.135498046875,-0.792682945728302,0.5792682766914368,-0.030487805604934692,1.2000000476837158,20.25,-16.649999618530273,37.77299499511719,0,
 70624,0.19873046875,-0.93505859375,0.138916015625,-0.4573170840740204,0.15243902802467346,0.27439025044441223,1.649999976158142,21.450000762939453,-16.950000762939453,37.72507095336914,0,
 70634,0.199462890625,-0.939453125,0.1416015625,-0.3048780560493469,0.396341472864151,0.3353658616542816,0.44999998807907104,21.149999618530273,-15.899999618530273,37.581302642822266,0,
 70644,0.193359375,-0.944580078125,0.139404296875,-0.3658536672592163,0.3048780560493469,0.5487805008888245,0.75,21.299999237060547,-14.550000190734863,37.72507095336914,0,
 70654,0.202392578125,-0.9365234375,0.14599609375,-0.12195122241973877,0.396341472864151,0.09146341681480408,0.75,21.299999237060547,-14.550000190734863,37.533382415771484,0,
 70664,0.198974609375,-0.940673828125,0.143310546875,-0.396341472864151,0.27439025044441223,0.27439025044441223,3.75,19.799999237060547,-18.75,37.72507095336914,0,
 70674,0.19970703125,-0.94091796875,0.14990234375,-0.24390244483947754,0.3048780560493469,0.12195122241973877,0.44999998807907104,20.25,-17.700000762939453,37.91676330566406,0,
 70684,0.1982421875,-0.9423828125,0.142333984375,-0.24390244483947754,0.3353658616542816,0.21341463923454285,1.649999976158142,19.950000762939453,-15.899999618530273,37.91676330566406,0,
 70694,0.197998046875,-0.94091796875,0.13916015625,-0.3353658616542816,0.396341472864151,0.060975611209869385,2.25,20.549999237060547,-15.300000190734863,37.72507095336914,0,
 70704,0.196044921875,-0.943115234375,0.139892578125,-0.3353658616542816,0.3048780560493469,0.09146341681480408,2.25,20.549999237060547,-15.300000190734863,37.581302642822266,0,
 70714,0.19873046875,-0.940185546875,0.14013671875,-0.6402438879013062,0.3353658616542816,-0.030487805604934692,0.44999998807907104,21.450000762939453,-15.449999809265137,37.72507095336914,0,
 70724,0.198486328125,-0.9453125,0.14501953125,-0.3353658616542816,0.0,0.3048780560493469,0.44999998807907104,21.450000762939453,-16.200000762939453,37.868839263916016,0,
 70734,0.200439453125,-0.943115234375,0.14404296875,-0.3048780560493469,0.4573170840740204,0.12195122241973877,0.44999998807907104,20.25,-16.200000762939453,37.96468734741211,0,
 70744,0.198974609375,-0.94091796875,0.139892578125,-0.09146341681480408,0.5487805008888245,0.0,0.44999998807907104,20.25,-16.200000762939453,37.72507095336914,0,
 70754,0.19677734375,-0.94189453125,0.14501953125,-0.5487805008888245,0.24390244483947754,-0.09146341681480408,0.8999999761581421,20.700000762939453,-15.899999618530273,37.43753433227539,0,
 70764,0.195068359375,-0.943115234375,0.141357421875,0.15243902802467346,0.3353658616542816,0.060975611209869385,1.0499999523162842,21.75,-17.25,37.72507095336914,0,
 70774,0.197509765625,-0.937744140625,0.14013671875,-0.6402438879013062,0.6097561120986938,0.3048780560493469,1.5,22.049999237060547,-16.799999237060547,37.91676330566406,0,
 70784,0.201171875,-0.937744140625,0.148193359375,-0.792682945728302,0.24390244483947754,0.396341472864151,1.7999999523162842,21.299999237060547,-16.049999237060547,37.72507095336914,0,
 70794,0.198486328125,-0.941162109375,0.14013671875,-0.396341472864151,0.24390244483947754,0.3353658616542816,1.7999999523162842,21.299999237060547,-16.049999237060547,37.868839263916016,0,
 70804,0.196533203125,-0.93701171875,0.140869140625,-0.6707317233085632,0.5487805008888245,0.3353658616542816,1.2000000476837158,22.350000381469727,-16.649999618530273,37.62922668457031,0,
 70814,0.19921875,-0.94384765625,0.141845703125,-0.396341472864151,0.27439025044441223,0.3048780560493469,1.5,22.5,-15.300000190734863,37.581302642822266,0,
 70824,0.19580078125,-0.937744140625,0.141845703125,-0.24390244483947754,0.4573170840740204,0.27439025044441223,0.44999998807907104,21.149999618530273,-16.649999618530273,37.72507095336914,0,
 70834,0.20068359375,-0.944091796875,0.142578125,-0.27439025044441223,0.4573170840740204,0.060975611209869385,0.44999998807907104,21.149999618530273,-16.649999618530273,37.91676330566406,0,
 70844,0.196533203125,-0.93603515625,0.142822265625,-0.27439025044441223,0.21341463923454285,0.18292683362960815,-0.30000001192092896,20.549999237060547,-17.549999237060547,37.91676330566406,0,
 70854,0.202880859375,-0.940673828125,0.1484375,-0.4878048896789551,0.21341463923454285,0.4573170840740204,1.649999976158142,20.700000762939453,-16.649999618530273,37.72507095336914,0,
 70864,0.202880859375,-0.93896484375,0.138671875,-0.5487805008888245,0.3658536672592163,0.09146341681480408,2.8499999046325684,21.899999618530273,-15.899999618530273,37.72507095336914,0,
 70874,0.197265625,-0.943603515625,0.138671875,-0.4878048896789551,0.3048780560493469,0.396341472864151,0.30000001192092896,21.299999237060547,-16.5,37.62922668457031,0,
 70884,0.19921875,-0.939453125,0.142578125,-0.5487805008888245,0.15243902802467346,0.24390244483947754,0.30000001192092896,21.299999237060547,-16.5,37.96468734741211,0,
 70894,0.200927734375,-0.939208984375,0.144287109375,-0.5487805008888245,0.4268292784690857,0.15243902802467346,2.0999999046325684,23.549999237060547,-16.200000762939453,37.868839263916016,0,
 70904,0.194580078125,-0.93701171875,0.13671875,-0.3353658616542816,0.24390244483947754,0.21341463923454285,1.2000000476837158,21.899999618530273,-16.649999618530273,37.581302642822266,0,
 70914,0.203857421875,-0.93505859375,0.14404296875,-0.7317073345184326,0.4878048896789551,0.5487805008888245,1.2000000476837158,21.149999618530273,-15.899999618530273,37.91676330566406,0,
 70924,0.19970703125,-0.942138671875,0.14013671875,-0.3353658616542816,0.12195122241973877,0.4878048896789551,1.2000000476837158,21.149999618530273,-15.899999618530273,37.77299499511719,0,
 70934,0.196533203125,-0.93701171875,0.140625,-0.396341472864151,0.18292683362960815,0.4573170840740204,-0.15000000596046448,21.149999618530273,-17.399999618530273,37.581302642822266,0,
 70944,0.20068359375,-0.9375,0.14404296875,-0.24390244483947754,0.3048780560493469,0.27439025044441223,2.25,22.5,-17.25,37.77299499511719,0,
 70954,0.1953125,-0.94287109375,0.14208984375,-0.21341463923454285,0.3353658616542816,0.5182926654815674,2.0999999046325684,20.700000762939453,-16.649999618530273,37.581302642822266,0,
 70964,0.197998046875,-0.939697265625,0.141845703125,-0.5487805008888245,0.5182926654815674,0.4268292784690857,1.5,20.549999237060547,-15.75,37.72507095336914,0,
 70974,0.201171875,-0.94873046875,0.140380859375,-0.7621951103210449,0.3658536672592163,0.6707317233085632,1.5,20.549999237060547,-15.75,37.868839263916016,0,
 70984,0.198974609375,-0.938232421875,0.137451171875,-0.4268292784690857,0.15243902802467346,0.4268292784690857,0.8999999761581421,20.700000762939453,-16.200000762939453,37.62922668457031,0,
 70994,0.20166015625,-0.937255859375,0.14599609375,-0.7317073345184326,0.4268292784690857,0.396341472864151,2.25,21.75,-16.799999237060547,37.77299499511719,0,
 71004,0.19580078125,-0.945556640625,0.138916015625,-0.24390244483947754,0.4268292784690857,0.4268292784690857,0.30000001192092896,21.299999237060547,-16.5,37.72507095336914,0,
 71014,0.195556640625,-0.940673828125,0.145751953125,-0.27439025044441223,0.3658536672592163,0.5182926654815674,0.30000001192092896,21.299999237060547,-16.5,37.77299499511719,0,
 71024,0.20068359375,-0.946533203125,0.1435546875,-0.792682945728302,0.396341472864151,0.060975611209869385,2.0999999046325684,22.350000381469727,-16.950000762939453,37.581302642822266,0,
 71034,0.20068359375,-0.945556640625,0.140625,-0.6707317233085632,0.3353658616542816,0.7317073345184326,1.649999976158142,20.700000762939453,-16.200000762939453,37.91676330566406,0,
 71044,0.197265625,-0.93994140625,0.14453125,-0.5792682766914368,0.15243902802467346,0.18292683362960815,1.2000000476837158,22.350000381469727,-16.200000762939453,37.34169006347656,0,
 71054,0.203857421875,-0.9384765625,0.139892578125,-0.6402438879013062,0.24390244483947754,0.4573170840740204,0.8999999761581421,21.149999618530273,-16.950000762939453,37.72507095336914,0,
 71064,0.197509765625,-0.94189453125,0.139404296875,-0.6402438879013062,0.396341472864151,0.396341472864151,0.8999999761581421,21.149999618530273,-16.950000762939453,37.91676330566406,0,
 71074,0.196044921875,-0.94091796875,0.140625,-0.7621951103210449,0.12195122241973877,0.060975611209869385,3.75,20.549999237060547,-18.75,37.72507095336914,0,
 71084,0.198486328125,-0.943359375,0.142578125,-0.9146341681480408,0.3048780560493469,0.0,1.649999976158142,21.450000762939453,-17.399999618530273,37.72507095336914,0,
 71094,0.197265625,-0.944580078125,0.141845703125,-0.6402438879013062,0.396341472864151,0.27439025044441223,1.2000000476837158,21.450000762939453,-16.200000762939453,37.581302642822266,0,
 71104,0.197509765625,-0.940673828125,0.145263671875,-0.7317073345184326,0.3048780560493469,0.27439025044441223,1.2000000476837158,21.450000762939453,-16.200000762939453,37.77299499511719,0,
 71114,0.197998046875,-0.939697265625,0.144775390625,-0.4878048896789551,0.4268292784690857,0.060975611209869385,0.15000000596046448,22.649999618530273,-15.899999618530273,37.72507095336914,0,
 71124,0.200439453125,-0.937255859375,0.1416015625,-0.5487805008888245,0.396341472864151,0.3353658616542816,-0.15000000596046448,21.450000762939453,-15.899999618530273,37.72507095336914,0,
 71134,0.197021484375,-0.944091796875,0.14306640625,-0.3353658616542816,0.09146341681480408,0.09146341681480408,0.15000000596046448,21.450000762939453,-16.649999618530273,37.96468734741211,0,
 71144,0.2001953125,-0.939697265625,0.137451171875,-0.5487805008888245,0.3658536672592163,0.3658536672592163,2.25,21.299999237060547,-16.049999237060547,37.868839263916016,0,
 71154,0.1982421875,-0.947021484375,0.143310546875,-0.6707317233085632,0.6707317233085632,0.3353658616542816,2.25,21.299999237060547,-16.049999237060547,37.77299499511719,0,
 71164,0.2001953125,-0.93994140625,0.144287109375,-0.21341463923454285,0.4878048896789551,0.21341463923454285,1.0499999523162842,22.049999237060547,-16.049999237060547,37.72507095336914,0,
 71174,0.193359375,-0.9453125,0.146240234375,-0.5792682766914368,0.4878048896789551,0.15243902802467346,2.0999999046325684,23.100000381469727,-17.700000762939453,37.77299499511719,0,
 71184,0.205322265625,-0.943603515625,0.149658203125,-0.12195122241973877,0.4268292784690857,0.5792682766914368,0.15000000596046448,20.25,-14.699999809265137,37.62922668457031,0,
 71194,0.203857421875,-0.945556640625,0.1396484375,-0.3658536672592163,0.21341463923454285,0.24390244483947754,0.15000000596046448,20.25,-14.699999809265137,37.581302642822266,0,
 71204,0.201904296875,-0.94091796875,0.14306640625,-0.21341463923454285,0.3658536672592163,0.5182926654815674,0.44999998807907104,20.700000762939453,-15.149999618530273,37.72507095336914,0,
 71214,0.19677734375,-0.939697265625,0.142578125,-0.21341463923454285,0.396341472864151,0.7012194991111755,1.7999999523162842,20.850000381469727,-15.75,37.43753433227539,0,
 71224,0.20068359375,-0.9404296875,0.144287109375,-0.3048780560493469,0.4573170840740204,0.4878048896789551,1.7999999523162842,22.5,-16.049999237060547,37.77299499511719,0,
 71234,0.199951171875,-0.939697265625,0.148193359375,-0.4268292784690857,0.4878048896789551,0.21341463923454285,1.649999976158142,21.899999618530273,-15.899999618530273,37.91676330566406,0,
 71244,0.199951171875,-0.948486328125,0.142578125,-0.7317073345184326,0.4268292784690857,0.12195122241973877,1.649999976158142,21.899999618530273,-15.899999618530273,37.581302642822266,0,
 71255,0.201416015625,-0.945068359375,0.142578125,-0.6402438879013062,0.396341472864151,0.27439025044441223,0.8999999761581421,21.149999618530273,-16.649999618530273,37.72507095336914,0,
 71265,0.197509765625,-0.94091796875,0.14306640625,-0.7012194991111755,0.396341472864151,0.09146341681480408,1.2000000476837158,20.700000762939453,-17.700000762939453,37.868839263916016,0,
 71275,0.200439453125,-0.94189453125,0.140625,-0.5182926654815674,0.4573170840740204,0.060975611209869385,0.15000000596046448,21.149999618530273,-19.649999618530273,37.72507095336914,0,
 71285,0.195556640625,-0.943115234375,0.14013671875,-0.6402438879013062,0.24390244483947754,0.12195122241973877,0.15000000596046448,21.149999618530273,-19.649999618530273,37.77299499511719,0,
 71295,0.197021484375,-0.941162109375,0.140869140625,-0.7317073345184326,0.21341463923454285,0.18292683362960815,0.0,21.75,-16.799999237060547,37.581302642822266,0,
 71305,0.20068359375,-0.935302734375,0.14208984375,-0.6402438879013062,0.12195122241973877,0.4573170840740204,0.75,22.049999237060547,-16.799999237060547,37.581302642822266,0,
 71315,0.197265625,-0.944091796875,0.140625,-0.6707317233085632,0.6402438879013062,0.396341472864151,0.75,21.75,-17.25,37.72507095336914,0,
 71325,0.1923828125,-0.942626953125,0.142822265625,-0.5792682766914368,0.24390244483947754,0.12195122241973877,2.25,21.75,-16.799999237060547,37.72507095336914,0,
 71335,0.197998046875,-0.934326171875,0.14208984375,-0.3658536672592163,0.18292683362960815,0.15243902802467346,2.25,21.75,-16.799999237060547,37.72507095336914,0,
 71345,0.20068359375,-0.9384765625,0.143310546875,-0.396341472864151,0.15243902802467346,-0.15243902802467346,2.549999952316284,20.850000381469727,-15.0,37.62922668457031,0,
 71355,0.193603515625,-0.942626953125,0.142333984375,-0.4268292784690857,0.27439025044441223,0.060975611209869385,1.0499999523162842,19.799999237060547,-16.5,37.77299499511719,0,
 71365,0.19921875,-0.94140625,0.143798828125,0.030487805604934692,0.4268292784690857,-0.24390244483947754,0.75,21.75,-15.300000190734863,37.91676330566406,0,
 71375,0.194091796875,-0.939453125,0.147216796875,-0.3353658616542816,0.3658536672592163,0.3658536672592163,0.75,21.75,-15.300000190734863,37.77299499511719,0,
 71385,0.200439453125,-0.940673828125,0.14306640625,0.24390244483947754,0.3048780560493469,0.09146341681480408,2.549999952316284,18.600000381469727,-16.799999237060547,37.96468734741211,0,
 71395,0.198974609375,-0.942626953125,0.145263671875,-0.396341472864151,0.4268292784690857,0.15243902802467346,1.7999999523162842,22.049999237060547,-15.0,37.43753433227539,0,
 71405,0.201904296875,-0.938232421875,0.141845703125,-0.030487805604934692,0.3353658616542816,0.3658536672592163,1.2000000476837158,21.899999618530273,-15.149999618530273,37.91676330566406,0,
 71415,0.201171875,-0.94287109375,0.14501953125,0.060975611209869385,0.4573170840740204,0.27439025044441223,1.649999976158142,23.100000381469727,-15.899999618530273,37.77299499511719,0,
 71425,0.20166015625,-0.93994140625,0.14208984375,-0.060975611209869385,0.4878048896789551,-0.030487805604934692,1.649999976158142,23.100000381469727,-15.899999618530273,37.77299499511719,0,
 71435,0.20166015625,-0.94384765625,0.14501953125,-0.27439025044441223,0.4268292784690857,0.5792682766914368,1.2000000476837158,20.25,-16.649999618530273,37.62922668457031,0,
 71445,0.19384765625,-0.938720703125,0.141845703125,-0.5182926654815674,0.3353658616542816,0.396341472864151,0.44999998807907104,24.75,-17.700000762939453,37.43753433227539,0,
 71455,0.197509765625,-0.94482421875,0.14013671875,-0.6707317233085632,0.4573170840740204,0.6097561120986938,0.75,21.75,-15.75,37.72507095336914,0,
 71465,0.200927734375,-0.93798828125,0.14404296875,-0.4268292784690857,0.396341472864151,0.3353658616542816,0.75,21.75,-15.75,37.72507095336914,0,
 71475,0.199462890625,-0.94140625,0.141845703125,-0.4878048896789551,0.0,0.396341472864151,0.15000000596046448,21.450000762939453,-15.449999809265137,37.581302642822266,0,
 71485,0.201171875,-0.93701171875,0.138916015625,-0.4573170840740204,0.15243902802467346,0.24390244483947754,3.5999999046325684,21.149999618530273,-18.450000762939453,37.77299499511719,0,
 71495,0.19384765625,-0.943115234375,0.1376953125,-1.0060975551605225,0.3353658616542816,0.3658536672592163,1.2000000476837158,21.450000762939453,-15.899999618530273,37.91676330566406,0,
 71505,0.1962890625,-0.943115234375,0.138916015625,-0.5487805008888245,0.24390244483947754,0.24390244483947754,1.649999976158142,21.450000762939453,-16.649999618530273,37.72507095336914,0,
 71515,0.19775390625,-0.94482421875,0.14306640625,-0.5792682766914368,0.060975611209869385,0.3048780560493469,1.649999976158142,21.450000762939453,-16.649999618530273,37.91676330566406,0,
 71525,0.1982421875,-0.9404296875,0.1435546875,-0.4878048896789551,0.3353658616542816,0.27439025044441223,2.25,20.100000381469727,-17.25,37.77299499511719,0,
 71535,0.197021484375,-0.940185546875,0.138427734375,-0.7317073345184326,0.396341472864151,0.18292683362960815,0.30000001192092896,20.850000381469727,-16.5,37.62922668457031,0,
 71545,0.195556640625,-0.93994140625,0.141845703125,-0.7012194991111755,0.24390244483947754,0.24390244483947754,1.2000000476837158,22.350000381469727,-16.200000762939453,37.72507095336914,0,
 71555,0.19921875,-0.942626953125,0.13916015625,-0.4878048896789551,0.060975611209869385,0.6402438879013062,1.2000000476837158,22.350000381469727,-16.200000762939453,37.77299499511719,0,
 71565,0.20068359375,-0.935791015625,0.143310546875,-0.21341463923454285,0.396341472864151,0.3353658616542816,1.7999999523162842,21.75,-15.75,37.91676330566406,0,
 71575,0.199951171875,-0.939453125,0.140625,-0.24390244483947754,0.3048780560493469,0.12195122241973877,2.0999999046325684,20.700000762939453,-16.950000762939453,37.868839263916016,0,
 71585,0.1982421875,-0.94287109375,0.142578125,-0.27439025044441223,0.5487805008888245,-0.030487805604934692,2.8499999046325684,22.649999618530273,-18.450000762939453,37.581302642822266,0,
 71595,0.19287109375,-0.943603515625,0.14697265625,-0.3048780560493469,0.3353658616542816,0.3353658616542816,0.8999999761581421,20.25,-16.649999618530273,37.72507095336914,0,
 71605,0.197021484375,-0.939453125,0.14453125,-0.24390244483947754,0.21341463923454285,0.7012194991111755,0.8999999761581421,20.25,-16.649999618530273,37.62922668457031,0,
 71615,0.201171875,-0.938720703125,0.13818359375,-0.24390244483947754,0.27439025044441223,0.4573170840740204,1.2000000476837158,21.450000762939453,-15.449999809265137,37.91676330566406,0,
 71625,0.19775390625,-0.93505859375,0.141357421875,-0.4573170840740204,0.21341463923454285,0.4268292784690857,1.0499999523162842,22.5,-15.75,37.72507095336914,0,
 71635,0.198486328125,-0.9384765625,0.143310546875,-0.3353658616542816,0.3353658616542816,0.396341472864151,1.649999976158142,21.899999618530273,-15.149999618530273,37.533382415771484,0,
 71645,0.197998046875,-0.939453125,0.146484375,-0.4268292784690857,0.7012194991111755,0.3658536672592163,1.649999976158142,21.899999618530273,-15.149999618530273,37.91676330566406,0,
 71655,0.19873046875,-0.94384765625,0.145263671875,-0.4878048896789551,0.4268292784690857,0.6097561120986938,2.0999999046325684,20.700000762939453,-16.200000762939453,37.72507095336914,0,
 71665,0.193603515625,-0.938720703125,0.14013671875,-0.8841463327407837,0.27439025044441223,0.5792682766914368,1.649999976158142,20.700000762939453,-16.200000762939453,37.91676330566406,0,
 71675,0.201416015625,-0.943359375,0.1455078125,-1.2195122241973877,0.4268292784690857,0.4878048896789551,1.7999999523162842,18.600000381469727,-16.5,37.868839263916016,0,
 71685,0.201904296875,-0.938720703125,0.141845703125,-0.3048780560493469,0.396341472864151,0.3048780560493469,1.649999976158142,21.149999618530273,-14.399999618530273,37.581302642822266,0,
 71695,0.1953125,-0.93994140625,0.144775390625,-0.7621951103210449,0.6402438879013062,0.24390244483947754,1.649999976158142,21.149999618530273,-14.399999618530273,37.91676330566406,0,
 71705,0.197265625,-0.942626953125,0.14013671875,-0.8231707215309143,0.3353658616542816,0.21341463923454285,0.75,21.75,-15.75,37.72507095336914,0,
 71715,0.1982421875,-0.942626953125,0.141357421875,-0.7012194991111755,0.27439025044441223,0.3048780560493469,1.7999999523162842,21.299999237060547,-16.5,37.581302642822266,0,
 71725,0.19873046875,-0.940185546875,0.14306640625,-0.5792682766914368,0.030487805604934692,0.4573170840740204,0.75,20.549999237060547,-16.049999237060547,37.77299499511719,0,
 71735,0.20068359375,-0.94189453125,0.139892578125,-0.6097561120986938,0.3048780560493469,0.3048780560493469,0.75,20.549999237060547,-16.049999237060547,37.581302642822266,0,
 71745,0.1953125,-0.9443359375,0.139892578125,-0.3048780560493469,0.3658536672592163,0.030487805604934692,0.30000001192092896,20.850000381469727,-15.300000190734863,37.72507095336914,0,
 71755,0.19970703125,-0.93798828125,0.133056640625,-0.21341463923454285,0.4573170840740204,0.060975611209869385,0.8999999761581421,21.899999618530273,-15.899999618530273,37.581302642822266,0,
 71765,0.198486328125,-0.938720703125,0.1435546875,-0.4878048896789551,0.18292683362960815,0.3353658616542816,-0.15000000596046448,20.700000762939453,-16.200000762939453,37.91676330566406,0,
 71775,0.196044921875,-0.935791015625,0.135498046875,-0.24390244483947754,0.4878048896789551,0.21341463923454285,1.7999999523162842,20.549999237060547,-16.5,37.868839263916016,0,
 71785,0.202392578125,-0.93408203125,0.138671875,0.09146341681480408,0.18292683362960815,0.3658536672592163,1.7999999523162842,20.549999237060547,-16.5,37.581302642822266,0,
 71795,0.200439453125,-0.947265625,0.140380859375,0.4268292784690857,0.6097561120986938,0.15243902802467346,3.1500000953674316,20.25,-18.450000762939453,37.77299499511719,0,
 71805,0.197265625,-0.94140625,0.1376953125,0.18292683362960815,0.4878048896789551,0.6402438879013062,-0.15000000596046448,21.899999618530273,-14.699999809265137,37.91676330566406,0,
 71815,0.197509765625,-0.94091796875,0.14501953125,0.3048780560493469,0.4268292784690857,0.21341463923454285,2.0999999046325684,22.350000381469727,-15.149999618530273,37.62922668457031,0,
 71825,0.197509765625,-0.938232421875,0.146240234375,0.15243902802467346,0.3048780560493469,0.396341472864151,2.0999999046325684,22.350000381469727,-15.149999618530273,37.91676330566406,0,
 71835,0.202392578125,-0.943359375,0.144775390625,0.060975611209869385,0.3048780560493469,0.21341463923454285,1.2000000476837158,22.649999618530273,-16.200000762939453,37.533382415771484,0,
 71845,0.202392578125,-0.9443359375,0.14306640625,-0.4573170840740204,0.4573170840740204,0.12195122241973877,0.15000000596046448,22.350000381469727,-16.200000762939453,37.62922668457031,0,
 71855,0.201171875,-0.942138671875,0.140869140625,-0.396341472864151,0.3353658616542816,0.4268292784690857,0.0,21.75,-15.300000190734863,37.72507095336914,0,
 71865,0.19873046875,-0.943115234375,0.143798828125,-0.396341472864151,0.3658536672592163,0.4268292784690857,1.2000000476837158,19.950000762939453,-16.200000762939453,37.72507095336914,0,
 71875,0.193603515625,-0.938720703125,0.141357421875,-0.6707317233085632,0.4573170840740204,0.5182926654815674,1.2000000476837158,19.950000762939453,-16.200000762939453,37.62922668457031,0,
 71885,0.195068359375,-0.941650390625,0.143798828125,-0.5487805008888245,0.3048780560493469,0.5182926654815674,0.0,20.850000381469727,-18.0,37.581302642822266,0,
 71895,0.197509765625,-0.937255859375,0.147705078125,-0.4878048896789551,0.396341472864151,0.4268292784690857,2.549999952316284,19.350000381469727,-17.549999237060547,37.868839263916016,0,
 71905,0.197265625,-0.939697265625,0.140869140625,-0.792682945728302,0.21341463923454285,0.7317073345184326,1.2000000476837158,22.350000381469727,-16.200000762939453,37.72507095336914,0,
 71915,0.199951171875,-0.943603515625,0.1396484375,-1.2804877758026123,0.27439025044441223,0.27439025044441223,1.2000000476837158,22.350000381469727,-16.200000762939453,37.91676330566406,0,
 71925,0.2021484375,-0.935546875,0.145263671875,-1.0060975551605225,0.3658536672592163,0.396341472864151,0.8999999761581421,21.450000762939453,-18.149999618530273,37.72507095336914,0,
 71935,0.19384765625,-0.93798828125,0.138916015625,-1.1280487775802612,0.5182926654815674,0.5182926654815674,0.44999998807907104,20.25,-16.200000762939453,37.72507095336914,0,
 71945,0.20068359375,-0.93994140625,0.14404296875,-0.7317073345184326,0.3658536672592163,0.5487805008888245,1.649999976158142,20.700000762939453,-16.649999618530273,37.62922668457031,0,
 71955,0.197265625,-0.941162109375,0.138671875,-1.1280487775802612,0.5182926654815674,0.6707317233085632,-0.30000001192092896,21.75,-16.5,37.72507095336914,0,
 71965,0.198486328125,-0.936279296875,0.13916015625,-0.6402438879013062,0.09146341681480408,0.5182926654815674,-0.30000001192092896,21.75,-16.5,37.62922668457031,0,
 71975,0.199462890625,-0.939453125,0.138427734375,-0.9146341681480408,0.24390244483947754,0.24390244483947754,1.2000000476837158,21.450000762939453,-15.899999618530273,37.62922668457031,0,
 71985,0.197021484375,-0.9404296875,0.143310546875,-0.6097561120986938,0.27439025044441223,0.396341472864151,-0.75,21.299999237060547,-16.049999237060547,37.77299499511719,0,
 71995,0.203857421875,-0.940673828125,0.135498046875,-0.4268292784690857,0.3353658616542816,0.27439025044441223,1.2000000476837158,21.149999618530273,-18.149999618530273,37.72507095336914,0,
 72005,0.197509765625,-0.94189453125,0.141845703125,-0.4878048896789551,0.24390244483947754,0.396341472864151,1.2000000476837158,21.149999618530273,-18.149999618530273,37.72507095336914,0,
 72015,0.194091796875,-0.9453125,0.1376953125,-0.5792682766914368,0.15243902802467346,0.27439025044441223,1.2000000476837158,22.350000381469727,-16.200000762939453,37.91676330566406,0,
 72025,0.2021484375,-0.941162109375,0.14453125,-0.396341472864151,0.6097561120986938,0.09146341681480408,-0.15000000596046448,21.450000762939453,-15.149999618530273,37.581302642822266,0,
 72036,0.197021484375,-0.93798828125,0.144775390625,-0.5487805008888245,0.3658536672592163,0.27439025044441223,1.649999976158142,20.700000762939453,-16.200000762939453,37.72507095336914,0,
 72046,0.19775390625,-0.941650390625,0.145263671875,-0.3658536672592163,0.24390244483947754,0.18292683362960815,0.8999999761581421,21.149999618530273,-16.649999618530273,37.43753433227539,0,
 72056,0.202392578125,-0.93994140625,0.1376953125,-0.4268292784690857,0.6097561120986938,0.27439025044441223,0.8999999761581421,21.149999618530273,-16.649999618530273,37.581302642822266,0,
 72066,0.20166015625,-0.939453125,0.143798828125,-0.12195122241973877,0.3048780560493469,0.396341472864151,1.2000000476837158,21.149999618530273,-15.149999618530273,37.581302642822266,0,
 72076,0.199951171875,-0.93994140625,0.1416015625,-0.060975611209869385,0.24390244483947754,0.27439025044441223,1.0499999523162842,20.100000381469727,-16.5,37.43753433227539,0,
 72086,0.19189453125,-0.941162109375,0.14794921875,0.060975611209869385,0.27439025044441223,0.3353658616542816,1.2000000476837158,21.149999618530273,-16.200000762939453,37.91676330566406,0,
 72096,0.1962890625,-0.94140625,0.1455078125,-0.09146341681480408,0.5487805008888245,0.3658536672592163,1.2000000476837158,21.149999618530273,-16.200000762939453,37.91676330566406,0,
 72106,0.198974609375,-0.9404296875,0.145751953125,-0.3658536672592163,0.3353658616542816,0.4573170840740204,-0.8999999761581421,19.200000762939453,-17.399999618530273,37.72507095336914,0,
 72116,0.201904296875,-0.944091796875,0.14697265625,-0.27439025044441223,0.15243902802467346,0.27439025044441223,2.25,20.850000381469727,-16.799999237060547,37.91676330566406,0,
 72126,0.1962890625,-0.945068359375,0.142578125,-0.6707317233085632,0.24390244483947754,0.4878048896789551,1.649999976158142,20.25,-15.899999618530273,37.581302642822266,0,
 72136,0.194091796875,-0.94287109375,0.142822265625,-0.12195122241973877,0.15243902802467346,0.396341472864151,0.8999999761581421,20.700000762939453,-15.449999809265137,37.72507095336914,0,
 72146,0.196533203125,-0.952880859375,0.144287109375,-0.09146341681480408,0.4878048896789551,0.060975611209869385,0.8999999761581421,20.700000762939453,-15.449999809265137,37.77299499511719,0,
 72156,0.20068359375,-0.93701171875,0.145263671875,-0.21341463923454285,0.4573170840740204,0.396341472864151,1.7999999523162842,21.299999237060547,-13.5,37.581302642822266,0,
 72166,0.197998046875,-0.941650390625,0.142822265625,-0.060975611209869385,0.4573170840740204,0.030487805604934692,2.0999999046325684,21.149999618530273,-16.200000762939453,37.91676330566406,0,
 72176,0.1982421875,-0.942138671875,0.140625,-0.4573170840740204,0.4878048896789551,0.0,0.15000000596046448,21.450000762939453,-15.449999809265137,37.43753433227539,0,
 72186,0.201171875,-0.9453125,0.138916015625,-0.7012194991111755,0.21341463923454285,0.27439025044441223,0.15000000596046448,21.450000762939453,-15.449999809265137,37.72507095336914,0,
 72206,0.19873046875,-0.938232421875,0.14208984375,-0.5792682766914368,0.21341463923454285,0.18292683362960815,1.5,19.799999237060547,-19.5,37.77299499511719,0,
 72216,0.20068359375,-0.94140625,0.148681640625,-0.5792682766914368,0.3658536672592163,0.4573170840740204,1.7999999523162842,20.549999237060547,-16.799999237060547,37.868839263916016,0,
 72226,0.196533203125,-0.94384765625,0.1474609375,-0.3658536672592163,0.4878048896789551,0.3658536672592163,1.2000000476837158,21.450000762939453,-16.950000762939453,37.77299499511719,0,
 72236,0.20263671875,-0.937744140625,0.14599609375,-0.5792682766914368,0.4573170840740204,0.4878048896789551,1.2000000476837158,21.450000762939453,-16.950000762939453,37.62922668457031,0,
 72246,0.19775390625,-0.939697265625,0.1376953125,-0.5182926654815674,0.3353658616542816,0.3353658616542816,0.30000001192092896,20.100000381469727,-15.300000190734863,37.72507095336914,0,
 72256,0.197998046875,-0.941162109375,0.140869140625,-0.5182926654815674,0.396341472864151,0.5182926654815674,1.2000000476837158,21.899999618530273,-15.449999809265137,37.72507095336914,0,
 72266,0.197265625,-0.944091796875,0.1455078125,-0.396341472864151,0.27439025044441223,0.4268292784690857,1.0499999523162842,19.799999237060547,-16.049999237060547,37.72507095336914,0,
 72276,0.197998046875,-0.93896484375,0.14599609375,-0.396341472864151,0.21341463923454285,0.3353658616542816,1.0499999523162842,19.799999237060547,-16.049999237060547,37.62922668457031,0,
 72286,0.193115234375,-0.938720703125,0.142822265625,-0.5487805008888245,0.18292683362960815,0.27439025044441223,0.30000001192092896,22.049999237060547,-19.049999237060547,37.72507095336914,0,
 72296,0.199462890625,-0.934814453125,0.138427734375,-0.4268292784690857,0.5182926654815674,0.5487805008888245,0.75,21.299999237060547,-18.0,37.91676330566406,0,
 72306,0.201171875,-0.9384765625,0.142822265625,-0.6402438879013062,0.3048780560493469,0.5182926654815674,1.5,19.799999237060547,-18.0,37.62922668457031,0,
 72316,0.19384765625,-0.93798828125,0.140625,-0.8231707215309143,0.3658536672592163,0.24390244483947754,1.0499999523162842,21.75,-15.75,37.581302642822266,0,
 72326,0.19287109375,-0.936279296875,0.141357421875,-0.4268292784690857,0.24390244483947754,0.3048780560493469,1.0499999523162842,21.75,-15.75,37.72507095336914,0,
 72336,0.19970703125,-0.9443359375,0.14306640625,-0.3658536672592163,0.4573170840740204,0.27439025044441223,2.0999999046325684,22.350000381469727,-16.950000762939453,37.62922668457031,0,
 72346,0.2021484375,-0.936279296875,0.141357421875,-0.3658536672592163,0.6707317233085632,0.15243902802467346,1.0499999523162842,20.850000381469727,-15.300000190734863,37.77299499511719,0,
 72356,0.197265625,-0.936279296875,0.139892578125,-0.4268292784690857,0.5487805008888245,0.27439025044441223,0.44999998807907104,21.450000762939453,-15.899999618530273,37.91676330566406,0,
 72366,0.200439453125,-0.943115234375,0.14453125,-0.24390244483947754,0.6707317233085632,0.27439025044441223,0.44999998807907104,21.450000762939453,-15.899999618530273,37.581302642822266,0,
 72376,0.200439453125,-0.941650390625,0.13720703125,-0.396341472864151,0.3658536672592163,0.3048780560493469,0.44999998807907104,21.149999618530273,-16.649999618530273,37.77299499511719,0,
 72386,0.196044921875,-0.938232421875,0.144287109375,-0.4573170840740204,0.4268292784690857,0.5487805008888245,-0.15000000596046448,22.350000381469727,-15.899999618530273,37.77299499511719,0,
 72396,0.1953125,-0.938720703125,0.149169921875,-0.4878048896789551,0.3048780560493469,0.3048780560493469,0.15000000596046448,21.450000762939453,-14.699999809265137,37.581302642822266,0,
 72406,0.1943359375,-0.944091796875,0.14306640625,-0.27439025044441223,0.4268292784690857,0.27439025044441223,1.7999999523162842,23.25,-18.75,37.91676330566406,0,
 72416,0.20068359375,-0.94384765625,0.141357421875,-0.27439025044441223,0.4878048896789551,0.24390244483947754,1.7999999523162842,23.25,-18.75,37.62922668457031,0,
 72426,0.1982421875,-0.94677734375,0.14306640625,0.18292683362960815,0.21341463923454285,0.4268292784690857,0.0,22.049999237060547,-15.300000190734863,37.868839263916016,0,
 72436,0.201416015625,-0.93701171875,0.142822265625,-0.5182926654815674,0.27439025044441223,0.5487805008888245,1.649999976158142,21.149999618530273,-15.899999618530273,37.91676330566406,0,
 72446,0.1953125,-0.942138671875,0.143798828125,-0.21341463923454285,0.4878048896789551,0.3353658616542816,1.0499999523162842,21.75,-16.799999237060547,37.77299499511719,0,
 72456,0.199462890625,-0.940673828125,0.1484375,-0.5487805008888245,0.4878048896789551,0.24390244483947754,1.0499999523162842,21.75,-16.799999237060547,37.77299499511719,0,
 72466,0.19873046875,-0.9423828125,0.140869140625,-0.18292683362960815,0.3658536672592163,0.3048780560493469,0.44999998807907104,21.450000762939453,-15.449999809265137,37.62922668457031,0,
 72476,0.203125,-0.9384765625,0.143798828125,-0.4878048896789551,0.3048780560493469,0.060975611209869385,1.5,21.75,-15.300000190734863,37.868839263916016,0,
 72486,0.2021484375,-0.937255859375,0.138427734375,-0.5487805008888245,0.4878048896789551,0.396341472864151,1.7999999523162842,20.850000381469727,-18.0,38.06053161621094,0,
 72496,0.196044921875,-0.932861328125,0.140380859375,-0.6402438879013062,0.27439025044441223,0.15243902802467346,0.75,21.75,-16.5,37.72507095336914,0,
 72506,0.203125,-0.94189453125,0.14599609375,-0.4573170840740204,0.5487805008888245,0.0,0.75,21.75,-16.5,37.77299499511719,0,
 72516,0.197998046875,-0.943359375,0.142822265625,-0.6707317233085632,0.7621951103210449,0.4268292784690857,2.549999952316284,21.75,-16.049999237060547,37.77299499511719,0,
 72526,0.19921875,-0.94482421875,0.14453125,-0.4573170840740204,0.4878048896789551,0.24390244483947754,1.2000000476837158,20.700000762939453,-16.950000762939453,37.91676330566406,0,
 72536,0.1953125,-0.943359375,0.14697265625,-0.3658536672592163,0.5487805008888245,0.3658536672592163,-0.15000000596046448,21.149999618530273,-16.200000762939453,37.77299499511719,0,
 72546,0.200439453125,-0.94189453125,0.14111328125,-0.3658536672592163,0.27439025044441223,0.396341472864151,-0.15000000596046448,21.149999618530273,-16.200000762939453,37.62922668457031,0,
 72556,0.197265625,-0.9443359375,0.149658203125,-0.396341472864151,0.4573170840740204,0.24390244483947754,0.15000000596046448,21.149999618530273,-16.649999618530273,37.91676330566406,0,
 72566,0.1962890625,-0.94189453125,0.143798828125,-0.6402438879013062,0.3658536672592163,0.060975611209869385,1.2000000476837158,19.950000762939453,-15.899999618530273,37.581302642822266,0,
 72576,0.2021484375,-0.939453125,0.143310546875,-0.6707317233085632,0.3353658616542816,0.21341463923454285,1.5,20.100000381469727,-15.75,37.581302642822266,0,
 72586,0.194580078125,-0.94287109375,0.13916015625,-0.6402438879013062,0.3658536672592163,0.060975611209869385,1.7999999523162842,20.850000381469727,-15.0,37.77299499511719,0,
 72596,0.201171875,-0.938720703125,0.1416015625,-0.5182926654815674,0.3048780560493469,0.4268292784690857,1.7999999523162842,20.850000381469727,-15.0,37.91676330566406,0,
 72606,0.195556640625,-0.940185546875,0.146240234375,-0.5487805008888245,0.15243902802467346,0.18292683362960815,1.2000000476837158,20.700000762939453,-15.899999618530273,37.72507095336914,0,
 72616,0.202880859375,-0.94189453125,0.14404296875,-0.3658536672592163,0.3658536672592163,0.21341463923454285,0.44999998807907104,19.5,-17.399999618530273,37.72507095336914,0,
 72626,0.201171875,-0.934814453125,0.143310546875,-0.396341472864151,0.15243902802467346,0.3353658616542816,0.44999998807907104,21.899999618530273,-16.649999618530273,37.77299499511719,0,
 72636,0.197509765625,-0.94580078125,0.142822265625,-0.5487805008888245,0.4573170840740204,0.24390244483947754,0.44999998807907104,21.899999618530273,-16.649999618530273,37.62922668457031,0,
 72656,0.20556640625,-0.93701171875,0.14453125,-0.5182926654815674,-0.030487805604934692,0.3353658616542816,0.0,21.299999237060547,-16.799999237060547,37.72507095336914,0,
 72666,0.19677734375,-0.944580078125,0.146484375,-0.4878048896789551,0.4878048896789551,0.3658536672592163,1.5,20.850000381469727,-16.5,37.43753433227539,0,
 72676,0.1943359375,-0.94384765625,0.14208984375,-0.7012194991111755,0.09146341681480408,0.12195122241973877,0.75,20.549999237060547,-15.75,37.868839263916016,0,
 72686,0.198974609375,-0.940673828125,0.144287109375,-0.6402438879013062,0.18292683362960815,0.15243902802467346,0.75,20.549999237060547,-15.75,37.72507095336914,0,
 72696,0.19384765625,-0.939697265625,0.142578125,-0.6097561120986938,0.4573170840740204,0.27439025044441223,2.549999952316284,22.049999237060547,-15.75,37.72507095336914,0,
 72706,0.198974609375,-0.936767578125,0.142578125,-0.5182926654815674,0.6402438879013062,0.12195122241973877,0.0,21.299999237060547,-15.0,37.91676330566406,0,
 72716,0.198974609375,-0.93310546875,0.144287109375,-0.7621951103210449,0.3048780560493469,0.27439025044441223,1.649999976158142,19.950000762939453,-18.899999618530273,37.581302642822266,0,
 72726,0.197265625,-0.93603515625,0.14697265625,-0.5182926654815674,0.4878048896789551,0.3658536672592163,1.649999976158142,19.950000762939453,-18.899999618530273,37.62922668457031,0,
 72736,0.197998046875,-0.932373046875,0.143798828125,-0.4268292784690857,0.4268292784690857,0.09146341681480408,1.0499999523162842,21.75,-16.799999237060547,37.96468734741211,0,
 72746,0.198974609375,-0.939208984375,0.145751953125,-0.5792682766914368,0.396341472864151,0.030487805604934692,0.0,20.549999237060547,-16.5,37.72507095336914,0,
 72756,0.201904296875,-0.938720703125,0.13916015625,-0.6402438879013062,0.060975611209869385,0.18292683362960815,0.75,20.850000381469727,-14.550000190734863,37.77299499511719,0,
 72766,0.195068359375,-0.94482421875,0.14306640625,-0.3353658616542816,0.060975611209869385,0.060975611209869385,2.4000000953674316,19.5,-15.149999618530273,37.581302642822266,0,
 72776,0.198974609375,-0.9443359375,0.1416015625,-0.4573170840740204,0.3658536672592163,0.3658536672592163,2.4000000953674316,19.5,-15.149999618530273,37.72507095336914,0,
 72787,0.20166015625,-0.94140625,0.14599609375,-0.9146341681480408,0.4573170840740204,0.18292683362960815,0.15000000596046448,19.950000762939453,-16.200000762939453,37.77299499511719,0,
 72797,0.199462890625,-0.9443359375,0.136474609375,-0.4268292784690857,0.3658536672592163,0.4878048896789551,1.2000000476837158,20.700000762939453,-16.200000762939453,37.77299499511719,0,
 72807,0.198486328125,-0.945068359375,0.142578125,-0.6097561120986938,0.4573170840740204,0.15243902802467346,0.0,22.5,-17.25,37.91676330566406,0,
 72817,0.195556640625,-0.942138671875,0.146728515625,-0.6097561120986938,0.4573170840740204,0.3353658616542816,0.0,22.5,-17.25,37.72507095336914,0,
 72827,0.197509765625,-0.943359375,0.14013671875,-0.5487805008888245,0.3353658616542816,0.15243902802467346,0.15000000596046448,21.450000762939453,-16.649999618530273,37.868839263916016,0,
 72837,0.19970703125,-0.943603515625,0.1396484375,-0.4573170840740204,0.4878048896789551,0.18292683362960815,-0.75,22.049999237060547,-16.049999237060547,37.868839263916016,0,
 72847,0.202392578125,-0.939208984375,0.144775390625,-0.4573170840740204,0.4573170840740204,0.27439025044441223,0.8999999761581421,19.950000762939453,-15.899999618530273,37.72507095336914,0,
 72857,0.19580078125,-0.939453125,0.140380859375,-0.5792682766914368,0.4573170840740204,0.09146341681480408,0.30000001192092896,19.799999237060547,-16.049999237060547,37.72507095336914,0,
 72867,0.197509765625,-0.938720703125,0.139404296875,-0.3658536672592163,0.3658536672592163,0.21341463923454285,0.30000001192092896,19.799999237060547,-16.049999237060547,37.62922668457031,0,
 72877,0.199951171875,-0.941162109375,0.14453125,-0.396341472864151,0.396341472864151,0.27439025044441223,3.0,21.75,-17.549999237060547,37.91676330566406,0,
 72887,0.19580078125,-0.937255859375,0.146484375,-0.3353658616542816,0.3353658616542816,0.4573170840740204,2.4000000953674316,22.350000381469727,-15.899999618530273,38.06053161621094,0,
 72897,0.197509765625,-0.946533203125,0.147216796875,-0.24390244483947754,0.5182926654815674,0.15243902802467346,0.8999999761581421,20.700000762939453,-16.200000762939453,37.72507095336914,0,
 72907,0.196533203125,-0.942626953125,0.14599609375,-0.6097561120986938,0.27439025044441223,0.5792682766914368,0.8999999761581421,20.700000762939453,-16.200000762939453,37.581302642822266,0,
 72917,0.20068359375,-0.940673828125,0.142822265625,-0.3048780560493469,0.3048780560493469,0.18292683362960815,0.75,22.5,-16.799999237060547,37.72507095336914,0,
 72927,0.197509765625,-0.93603515625,0.137939453125,-0.060975611209869385,0.396341472864151,0.27439025044441223,0.8999999761581421,21.149999618530273,-16.200000762939453,37.72507095336914,0,
 72937,0.196533203125,-0.943603515625,0.145263671875,-0.27439025044441223,0.060975611209869385,0.21341463923454285,0.75,21.75,-16.5,37.868839263916016,0,
 72947,0.20166015625,-0.936767578125,0.143798828125,-0.6402438879013062,0.3658536672592163,0.396341472864151,1.649999976158142,21.899999618530273,-16.950000762939453,37.72507095336914,0,
 72957,0.20654296875,-0.93798828125,0.141357421875,-0.6097561120986938,0.3048780560493469,-0.030487805604934692,1.649999976158142,21.899999618530273,-16.950000762939453,37.581302642822266,0,
 72967,0.197998046875,-0.93603515625,0.14599609375,-0.4573170840740204,0.12195122241973877,0.5792682766914368,0.15000000596046448,22.649999618530273,-15.899999618530273,37.72507095336914,0,
 72977,0.19775390625,-0.9404296875,0.1376953125,-0.5487805008888245,0.396341472864151,0.4573170840740204,1.0499999523162842,22.950000762939453,-15.300000190734863,37.62922668457031,0,
 72987,0.200927734375,-0.94189453125,0.1455078125,-0.3353658616542816,0.24390244483947754,0.24390244483947754,2.8499999046325684,21.899999618530273,-15.449999809265137,37.43753433227539,0,
 72997,0.20068359375,-0.9384765625,0.140625,-0.4268292784690857,0.27439025044441223,0.4268292784690857,2.8499999046325684,21.899999618530273,-15.449999809265137,37.91676330566406,0,
 73007,0.2001953125,-0.938720703125,0.1455078125,-0.3353658616542816,0.396341472864151,0.4268292784690857,1.0499999523162842,21.75,-16.799999237060547,37.62922668457031,0,
 73017,0.20068359375,-0.94140625,0.1416015625,-0.4878048896789551,0.3048780560493469,0.4573170840740204,1.2000000476837158,21.149999618530273,-16.649999618530273,37.62922668457031,0,
 73027,0.197021484375,-0.943603515625,0.145751953125,-0.3048780560493469,0.060975611209869385,0.5182926654815674,2.0999999046325684,19.950000762939453,-19.950000762939453,37.91676330566406,0,
 73037,0.196044921875,-0.944580078125,0.146484375,-0.5182926654815674,0.24390244483947754,0.21341463923454285,0.8999999761581421,21.450000762939453,-16.950000762939453,37.72507095336914,0,
 73047,0.1943359375,-0.9423828125,0.149658203125,-0.6707317233085632,0.4573170840740204,0.3658536672592163,0.8999999761581421,21.450000762939453,-16.950000762939453,37.868839263916016,0,
 73057,0.18994140625,-0.9365234375,0.14697265625,-0.4878048896789551,0.09146341681480408,0.060975611209869385,0.44999998807907104,20.700000762939453,-15.149999618530273,37.581302642822266,0,
 73067,0.20166015625,-0.942626953125,0.14501953125,-0.6707317233085632,0.396341472864151,0.4878048896789551,2.0999999046325684,20.700000762939453,-15.899999618530273,37.72507095336914,0,
 73077,0.203125,-0.943603515625,0.145263671875,-0.7317073345184326,0.3658536672592163,0.24390244483947754,0.30000001192092896,20.100000381469727,-16.5,37.533382415771484,0,
 73087,0.202392578125,-0.9423828125,0.144775390625,-0.4268292784690857,0.15243902802467346,0.18292683362960815,0.30000001192092896,20.100000381469727,-16.5,37.62922668457031,0,
 73097,0.198486328125,-0.943603515625,0.147705078125,-0.396341472864151,0.3658536672592163,0.060975611209869385,1.5,19.350000381469727,-16.5,37.868839263916016,0,
 73107,0.1953125,-0.9365234375,0.14599609375,-0.4573170840740204,0.12195122241973877,-0.030487805604934692,1.0499999523162842,20.850000381469727,-17.25,37.62922668457031,0,
 73117,0.196533203125,-0.94189453125,0.14404296875,-0.396341472864151,0.396341472864151,0.27439025044441223,0.75,20.549999237060547,-16.5,37.77299499511719,0,
 73127,0.201416015625,-0.943603515625,0.142822265625,-0.4878048896789551,0.3658536672592163,0.12195122241973877,2.0999999046325684,21.450000762939453,-21.450000762939453,37.77299499511719,0,
 73137,0.19970703125,-0.943359375,0.143310546875,-0.4573170840740204,0.3353658616542816,0.6707317233085632,2.0999999046325684,21.450000762939453,-21.450000762939453,37.77299499511719,0,
 73147,0.19921875,-0.93896484375,0.138671875,-0.3353658616542816,0.3353658616542816,0.396341472864151,1.2000000476837158,21.450000762939453,-15.449999809265137,37.77299499511719,0,
 73157,0.19580078125,-0.939208984375,0.14013671875,-0.060975611209869385,0.21341463923454285,0.3353658616542816,0.44999998807907104,21.450000762939453,-16.200000762939453,37.581302642822266,0,
 73167,0.198486328125,-0.943603515625,0.141845703125,-0.21341463923454285,0.4268292784690857,0.4878048896789551,-0.15000000596046448,21.149999618530273,-15.899999618530273,37.72507095336914,0,
 73177,0.19580078125,-0.94140625,0.140625,-0.3353658616542816,0.396341472864151,0.21341463923454285,-0.15000000596046448,21.149999618530273,-15.899999618530273,37.91676330566406,0,
 73187,0.198486328125,-0.939208984375,0.140625,-0.24390244483947754,0.27439025044441223,0.15243902802467346,1.649999976158142,19.5,-17.399999618530273,37.77299499511719,0,
 73197,0.19482421875,-0.941650390625,0.143310546875,-0.4573170840740204,0.24390244483947754,0.18292683362960815,0.75,21.75,-17.549999237060547,37.77299499511719,0,
 73207,0.1982421875,-0.939697265625,0.139404296875,-0.6707317233085632,0.27439025044441223,0.24390244483947754,0.8999999761581421,21.149999618530273,-15.149999618530273,37.72507095336914,0,
 73217,0.201904296875,-0.943359375,0.140869140625,-0.7621951103210449,0.396341472864151,0.6402438879013062,1.0499999523162842,18.600000381469727,-16.049999237060547,37.868839263916016,0,
 73227,0.20068359375,-0.939208984375,0.143798828125,-0.5487805008888245,0.15243902802467346,0.24390244483947754,1.0499999523162842,18.600000381469727,-16.049999237060547,37.77299499511719,0,
 73237,0.199951171875,-0.94091796875,0.140380859375,-0.8231707215309143,0.18292683362960815,0.030487805604934692,1.7999999523162842,20.549999237060547,-20.25,37.77299499511719,0,
 73247,0.194091796875,-0.948486328125,0.1455078125,-0.5487805008888245,0.15243902802467346,0.4268292784690857,1.649999976158142,20.25,-19.649999618530273,37.581302642822266,0,
 73257,0.194580078125,-0.946044921875,0.140869140625,-0.7621951103210449,0.3048780560493469,-0.09146341681480408,1.5,20.549999237060547,-16.049999237060547,37.581302642822266,0,
 73267,0.195068359375,-0.94873046875,0.146728515625,-0.396341472864151,0.396341472864151,0.27439025044441223,1.5,20.549999237060547,-16.049999237060547,37.581302642822266,0,
 73277,0.200927734375,-0.933349609375,0.142578125,-0.5487805008888245,0.15243902802467346,0.21341463923454285,1.5,21.299999237060547,-15.300000190734863,37.91676330566406,0,
 73287,0.199951171875,-0.94091796875,0.14306640625,-0.5182926654815674,0.3353658616542816,0.5487805008888245,1.5,20.850000381469727,-16.049999237060547,37.581302642822266,0,
 73297,0.20166015625,-0.93994140625,0.13818359375,-0.8536585569381714,0.3658536672592163,-0.060975611209869385,0.75,21.299999237060547,-15.75,37.77299499511719,0,
 73307,0.195556640625,-0.94140625,0.14111328125,-0.3658536672592163,0.12195122241973877,0.4268292784690857,1.7999999523162842,21.299999237060547,-16.049999237060547,37.77299499511719,0,
 73317,0.194091796875,-0.937255859375,0.144287109375,-0.9756097793579102,0.15243902802467346,0.18292683362960815,1.7999999523162842,21.299999237060547,-16.049999237060547,37.72507095336914,0,
 73327,0.196533203125,-0.938232421875,0.136962890625,-0.396341472864151,0.27439025044441223,0.3048780560493469,-0.15000000596046448,23.100000381469727,-18.899999618530273,37.72507095336914,0,
 73337,0.19677734375,-0.943359375,0.143798828125,-0.3658536672592163,0.6707317233085632,0.21341463923454285,0.8999999761581421,21.149999618530273,-17.700000762939453,37.72507095336914,0,
 73347,0.19677734375,-0.94091796875,0.142578125,-0.09146341681480408,0.3658536672592163,0.4268292784690857,0.75,22.5,-16.5,37.62922668457031,0,
 73357,0.194091796875,-0.93896484375,0.142333984375,-0.396341472864151,0.4268292784690857,0.3353658616542816,0.75,22.5,-16.5,37.72507095336914,0,
 73367,0.198486328125,-0.93896484375,0.133056640625,-0.3658536672592163,0.12195122241973877,0.5182926654815674,2.0999999046325684,21.149999618530273,-15.449999809265137,37.581302642822266,0,
 73377,0.197998046875,-0.9384765625,0.14013671875,-0.3353658616542816,0.27439025044441223,0.6097561120986938,0.44999998807907104,22.350000381469727,-15.899999618530273,37.91676330566406,0,
 73387,0.196533203125,-0.941650390625,0.145263671875,-0.18292683362960815,0.3353658616542816,0.3658536672592163,1.5,20.850000381469727,-15.300000190734863,37.62922668457031,0,
 73397,0.202392578125,-0.9404296875,0.145263671875,-0.4878048896789551,0.24390244483947754,0.3048780560493469,1.2000000476837158,21.149999618530273,-20.399999618530273,37.533382415771484,0,
 73407,0.197998046875,-0.9365234375,0.14208984375,-0.792682945728302,0.18292683362960815,0.3658536672592163,1.2000000476837158,21.149999618530273,-20.399999618530273,37.72507095336914,0,
 73417,0.201904296875,-0.939453125,0.143798828125,-0.12195122241973877,0.24390244483947754,0.3658536672592163,0.44999998807907104,21.450000762939453,-15.899999618530273,37.72507095336914,0,
 73427,0.20166015625,-0.939453125,0.138916015625,-0.27439025044441223,0.24390244483947754,0.3658536672592163,0.44999998807907104,21.149999618530273,-16.649999618530273,37.72507095336914,0,
 73437,0.195556640625,-0.94091796875,0.141357421875,-0.6707317233085632,0.5182926654815674,0.18292683362960815,0.15000000596046448,21.149999618530273,-17.700000762939453,37.91676330566406,0,
 73447,0.19482421875,-0.94873046875,0.142333984375,-0.4573170840740204,0.09146341681480408,0.15243902802467346,0.15000000596046448,21.149999618530273,-17.700000762939453,37.581302642822266,0,
 73457,0.1904296875,-0.93798828125,0.14208984375,-0.4573170840740204,0.4878048896789551,0.18292683362960815,1.2000000476837158,20.25,-15.899999618530273,37.91676330566406,0,
 73467,0.1982421875,-0.943603515625,0.1435546875,-0.4268292784690857,0.3048780560493469,0.27439025044441223,1.0499999523162842,20.850000381469727,-16.049999237060547,37.91676330566406,0,
 73477,0.200927734375,-0.93994140625,0.14453125,-0.4878048896789551,0.4268292784690857,0.3353658616542816,0.30000001192092896,20.850000381469727,-16.049999237060547,37.581302642822266,0,
 73487,0.1962890625,-0.947998046875,0.14208984375,-0.5182926654815674,0.3353658616542816,0.15243902802467346,0.75,20.549999237060547,-15.300000190734863,37.72507095336914,0,
 73497,0.203857421875,-0.937255859375,0.14453125,-0.396341472864151,0.24390244483947754,0.3658536672592163,0.75,20.549999237060547,-15.300000190734863,37.581302642822266,0,
 73507,0.1943359375,-0.9423828125,0.145263671875,-0.5792682766914368,0.27439025044441223,0.24390244483947754,-0.15000000596046448,22.649999618530273,-16.200000762939453,37.91676330566406,0,
 73517,0.194580078125,-0.937744140625,0.14599609375,-0.7012194991111755,0.4878048896789551,0.21341463923454285,1.0499999523162842,21.75,-15.75,37.77299499511719,0,
 73527,0.2001953125,-0.9423828125,0.14208984375,-0.3353658616542816,0.09146341681480408,0.396341472864151,0.30000001192092896,20.549999237060547,-15.300000190734863,37.91676330566406,0,
 73537,0.198486328125,-0.938720703125,0.147705078125,-0.6097561120986938,0.5792682766914368,-0.09146341681480408,0.30000001192092896,20.549999237060547,-15.300000190734863,37.91676330566406,0,
 73547,0.199462890625,-0.94287109375,0.14453125,-0.27439025044441223,0.24390244483947754,0.4268292784690857,0.8999999761581421,20.25,-15.899999618530273,37.581302642822266,0,
 73557,0.199951171875,-0.944091796875,0.146728515625,-0.7317073345184326,0.18292683362960815,0.060975611209869385,0.15000000596046448,21.450000762939453,-16.950000762939453,37.72507095336914,0,
 73567,0.199462890625,-0.9423828125,0.142822265625,-0.9451219439506531,0.15243902802467346,0.09146341681480408,1.5,19.799999237060547,-16.5,37.72507095336914,0,
 73578,0.196044921875,-0.9375,0.143310546875,-0.15243902802467346,0.3658536672592163,0.396341472864151,0.8999999761581421,20.700000762939453,-16.649999618530273,37.91676330566406,0,
 73588,0.19921875,-0.93505859375,0.144287109375,-0.9146341681480408,0.21341463923454285,0.396341472864151,0.8999999761581421,20.700000762939453,-16.649999618530273,37.62922668457031,0,
 73598,0.197509765625,-0.943359375,0.141357421875,-0.792682945728302,0.24390244483947754,0.3353658616542816,2.0999999046325684,22.350000381469727,-15.449999809265137,37.581302642822266,0,
