timestamp,accl_x,accl_y,accl_z,gyro_x,gyro_y,gyro_z,mag_x,mag_y,mag_z,temp,emg,
 570844,0.20556640625,-0.938720703125,0.134521484375,-1.0365853309631348,0.27439025044441223,0.27439025044441223,-0.30000001192092896,21.299999237060547,-17.25,38.63560485839844,0,
 570854,0.202392578125,-0.936767578125,0.130859375,-0.6097561120986938,0.5487805008888245,0.3658536672592163,-0.30000001192092896,21.299999237060547,-17.25,38.44391632080078,0,
 570864,0.200439453125,-0.9423828125,0.131591796875,-0.4268292784690857,0.27439025044441223,0.5182926654815674,0.0,20.549999237060547,-16.5,38.300148010253906,0,
 570874,0.202392578125,-0.946044921875,0.13134765625,-0.6097561120986938,0.5182926654815674,0.15243902802467346,0.8999999761581421,21.149999618530273,-16.649999618530273,38.587684631347656,0,
 570884,0.20849609375,-0.94189453125,0.13330078125,-0.9146341681480408,0.24390244483947754,0.3658536672592163,0.8999999761581421,19.200000762939453,-17.700000762939453,38.49183654785156,0,
 570904,0.206787109375,-0.9384765625,0.134521484375,-0.8536585569381714,0.27439025044441223,0.4573170840740204,0.0,22.049999237060547,-18.299999237060547,38.63560485839844,0,
 570914,0.20263671875,-0.94873046875,0.14013671875,-0.8231707215309143,0.4878048896789551,0.7621951103210449,0.75,20.850000381469727,-16.5,38.49183654785156,0,
 570924,0.201171875,-0.947509765625,0.135498046875,-0.9146341681480408,0.4573170840740204,0.3658536672592163,0.75,22.5,-16.5,38.49183654785156,0,
 570934,0.203125,-0.941162109375,0.13525390625,-1.1585365533828735,0.3658536672592163,0.18292683362960815,-0.15000000596046448,21.149999618530273,-16.950000762939453,38.49183654785156,0,
 570944,0.197509765625,-0.940673828125,0.1376953125,-1.6463414430618286,0.27439025044441223,0.0,-0.15000000596046448,21.149999618530273,-16.950000762939453,38.49183654785156,0,
 570954,0.19921875,-0.939208984375,0.134033203125,-1.097561001777649,0.15243902802467346,-0.3658536672592163,-0.75,20.850000381469727,-16.049999237060547,38.49183654785156,0,
 570964,0.199462890625,-0.938720703125,0.13037109375,-1.0670732259750366,0.21341463923454285,-0.4878048896789551,0.0,20.850000381469727,-16.799999237060547,38.395992279052734,0,
 570974,0.20068359375,-0.945068359375,0.12841796875,-1.1280487775802612,0.030487805604934692,-0.5182926654815674,0.75,21.299999237060547,-15.75,38.49183654785156,0,
 570984,0.2080078125,-0.9375,0.1357421875,-0.5487805008888245,0.12195122241973877,-0.6402438879013062,0.75,21.299999237060547,-15.75,38.49183654785156,0,
 570994,0.208740234375,-0.942626953125,0.13037109375,-0.6402438879013062,0.030487805604934692,-0.6707317233085632,1.7999999523162842,21.299999237060547,-16.049999237060547,38.683528900146484,0,
 571004,0.20849609375,-0.93408203125,0.130615234375,-0.4268292784690857,0.21341463923454285,-0.7621951103210449,0.44999998807907104,21.899999618530273,-15.449999809265137,38.587684631347656,0,
 571014,0.205322265625,-0.932861328125,0.124755859375,-0.6707317233085632,0.24390244483947754,-0.27439025044441223,0.15000000596046448,22.350000381469727,-15.449999809265137,38.395992279052734,0,
 571024,0.203857421875,-0.937255859375,0.132080078125,0.3353658616542816,0.396341472864151,0.12195122241973877,0.75,21.75,-16.049999237060547,38.44391632080078,0,
 571034,0.206298828125,-0.93701171875,0.134033203125,-0.3658536672592163,0.396341472864151,0.060975611209869385,0.75,21.75,-16.049999237060547,38.49183654785156,0,
 571044,0.204345703125,-0.935791015625,0.131591796875,-0.4268292784690857,0.060975611209869385,-0.12195122241973877,0.0,21.299999237060547,-17.25,38.44391632080078,0,
 571054,0.205078125,-0.94140625,0.13427734375,-0.21341463923454285,0.3658536672592163,0.060975611209869385,-0.44999998807907104,21.149999618530273,-16.200000762939453,38.587684631347656,0,
 571064,0.20068359375,-0.94091796875,0.1328125,-0.4268292784690857,0.3353658616542816,0.18292683362960815,-0.15000000596046448,21.450000762939453,-15.899999618530273,38.300148010253906,0,
 571074,0.2060546875,-0.93994140625,0.1357421875,0.0,0.3658536672592163,0.3353658616542816,-0.15000000596046448,21.450000762939453,-15.899999618530273,38.300148010253906,0,
 571084,0.20849609375,-0.945556640625,0.1357421875,0.030487805604934692,0.27439025044441223,0.27439025044441223,0.0,22.049999237060547,-17.549999237060547,38.683528900146484,0,
 571094,0.208740234375,-0.94677734375,0.1298828125,-0.15243902802467346,0.4573170840740204,0.09146341681480408,1.649999976158142,20.700000762939453,-16.649999618530273,38.587684631347656,0,
 571104,0.20703125,-0.943359375,0.13134765625,0.18292683362960815,0.18292683362960815,0.24390244483947754,0.75,22.049999237060547,-17.25,38.587684631347656,0,
 571114,0.2041015625,-0.938720703125,0.13232421875,0.21341463923454285,0.4573170840740204,0.6097561120986938,0.75,22.049999237060547,-17.25,38.49183654785156,0,
 571124,0.200927734375,-0.939208984375,0.136474609375,0.24390244483947754,0.5487805008888245,0.396341472864151,-0.8999999761581421,19.950000762939453,-16.200000762939453,38.587684631347656,0,
 571134,0.20654296875,-0.9404296875,0.133056640625,0.21341463923454285,0.4573170840740204,0.3048780560493469,0.8999999761581421,21.450000762939453,-16.200000762939453,38.587684631347656,0,
 571184,0.19970703125,-0.93994140625,0.132080078125,-0.3353658616542816,0.4878048896789551,1.25,-0.30000001192092896,20.549999237060547,-17.549999237060547,38.587684631347656,0,
 571194,0.1923828125,-0.936279296875,0.130126953125,0.09146341681480408,0.7621951103210449,1.1585365533828735,0.30000001192092896,20.850000381469727,-17.25,38.683528900146484,0,
 571204,0.202392578125,-0.939208984375,0.1328125,0.5182926654815674,0.7317073345184326,0.9146341681480408,0.30000001192092896,20.850000381469727,-17.25,38.395992279052734,0,
 571214,0.20361328125,-0.9345703125,0.13671875,0.7012194991111755,0.3048780560493469,0.6707317233085632,2.25,20.549999237060547,-16.5,38.49183654785156,0,
 571224,0.19970703125,-0.92919921875,0.135498046875,0.7317073345184326,0.12195122241973877,0.4268292784690857,0.8999999761581421,20.25,-16.200000762939453,38.587684631347656,0,
 571234,0.20751953125,-0.937255859375,0.1357421875,0.5182926654815674,0.6097561120986938,0.5792682766914368,0.30000001192092896,22.049999237060547,-15.75,38.49183654785156,0,
 571244,0.198486328125,-0.938232421875,0.1337890625,-0.030487805604934692,0.3658536672592163,0.8231707215309143,0.30000001192092896,22.049999237060547,-15.75,38.587684631347656,0,
 571254,0.201904296875,-0.9375,0.137939453125,0.030487805604934692,0.5182926654815674,1.1585365533828735,0.0,20.100000381469727,-16.049999237060547,38.44391632080078,0,
 571264,0.20751953125,-0.93798828125,0.140380859375,0.12195122241973877,0.4878048896789551,0.8231707215309143,-0.30000001192092896,21.299999237060547,-17.25,38.395992279052734,0,
 571274,0.20849609375,-0.941162109375,0.13720703125,0.21341463923454285,0.6402438879013062,1.25,0.15000000596046448,20.700000762939453,-16.200000762939453,38.587684631347656,0,
 571284,0.206787109375,-0.94189453125,0.13671875,-0.09146341681480408,0.3658536672592163,1.3414634466171265,0.75,22.049999237060547,-17.549999237060547,38.77937698364258,0,
 571294,0.204345703125,-0.9375,0.1318359375,-0.27439025044441223,0.4878048896789551,1.4939024448394775,0.75,22.049999237060547,-17.549999237060547,38.44391632080078,0,
 571304,0.205078125,-0.947265625,0.138916015625,-0.24390244483947754,0.6707317233085632,1.6768293380737305,0.15000000596046448,21.899999618530273,-17.700000762939453,38.587684631347656,0,
 571314,0.2041015625,-0.9443359375,0.13232421875,0.18292683362960815,0.6707317233085632,1.402438998222351,0.8999999761581421,22.350000381469727,-16.649999618530273,38.77937698364258,0,
 571324,0.19970703125,-0.944091796875,0.13427734375,0.6097561120986938,0.4268292784690857,1.4939024448394775,-1.0499999523162842,21.75,-17.549999237060547,38.300148010253906,0,
 571334,0.202880859375,-0.944580078125,0.131591796875,0.7317073345184326,0.7621951103210449,1.585365891456604,-1.0499999523162842,21.75,-17.549999237060547,38.587684631347656,0,
 571344,0.1953125,-0.9404296875,0.137451171875,0.8231707215309143,0.5487805008888245,1.6463414430618286,0.30000001192092896,21.299999237060547,-18.299999237060547,38.587684631347656,0,
 571355,0.19677734375,-0.936767578125,0.12939453125,0.9756097793579102,0.6402438879013062,1.4939024448394775,0.44999998807907104,20.700000762939453,-16.200000762939453,38.15637969970703,0,
 571365,0.199951171875,-0.93603515625,0.1376953125,0.4573170840740204,0.4573170840740204,1.585365891456604,1.7999999523162842,20.549999237060547,-17.25,38.587684631347656,0,
 571375,0.194580078125,-0.93603515625,0.132080078125,0.8841463327407837,0.6402438879013062,2.012195110321045,1.7999999523162842,20.549999237060547,-17.25,38.63560485839844,0,
 571385,0.205322265625,-0.939697265625,0.145263671875,0.4268292784690857,0.6402438879013062,2.1341464519500732,1.7999999523162842,20.100000381469727,-18.299999237060547,38.587684631347656,0,
 571395,0.20068359375,-0.942626953125,0.138916015625,0.6402438879013062,0.4878048896789551,2.1646342277526855,3.0,18.149999618530273,-18.75,38.44391632080078,0,
 571405,0.2001953125,-0.947509765625,0.1435546875,0.09146341681480408,0.396341472864151,1.920731782913208,0.8999999761581421,22.350000381469727,-17.399999618530273,38.44391632080078,0,
 571415,0.1943359375,-0.947265625,0.140380859375,-0.030487805604934692,0.5182926654815674,1.585365891456604,1.0499999523162842,21.299999237060547,-17.25,38.587684631347656,0,
 571425,0.198486328125,-0.947998046875,0.130859375,-0.5487805008888245,0.5487805008888245,1.585365891456604,1.0499999523162842,21.299999237060547,-17.25,38.395992279052734,0,
 571435,0.199951171875,-0.94921875,0.1357421875,-0.09146341681480408,0.5182926654815674,0.9146341681480408,0.30000001192092896,21.75,-18.0,38.49183654785156,0,
 571445,0.201171875,-0.945556640625,0.13623046875,-0.060975611209869385,0.3048780560493469,0.7317073345184326,0.8999999761581421,20.700000762939453,-15.449999809265137,38.44391632080078,0,
 571455,0.199951171875,-0.94970703125,0.136962890625,-0.27439025044441223,0.060975611209869385,0.8841463327407837,1.2000000476837158,22.350000381469727,-16.649999618530273,38.395992279052734,0,
 571465,0.191162109375,-0.94775390625,0.135009765625,-0.396341472864151,-0.030487805604934692,0.09146341681480408,1.2000000476837158,22.350000381469727,-16.649999618530273,38.82729721069336,0,
 571475,0.193359375,-0.93994140625,0.13916015625,-0.6707317233085632,-0.030487805604934692,-0.27439025044441223,1.5,21.299999237060547,-16.5,38.587684631347656,0,
 571485,0.2001953125,-0.944580078125,0.138427734375,-0.3353658616542816,-0.060975611209869385,-0.3048780560493469,0.0,21.75,-16.049999237060547,38.587684631347656,0,
 571495,0.197998046875,-0.9365234375,0.1318359375,-0.3658536672592163,-0.3048780560493469,-0.6097561120986938,3.299999952316284,22.049999237060547,-18.0,38.49183654785156,0,
 571505,0.20068359375,-0.939208984375,0.13427734375,-0.12195122241973877,0.12195122241973877,-0.4878048896789551,1.2000000476837158,20.25,-15.899999618530273,38.300148010253906,0,
 571515,0.205810546875,-0.93408203125,0.14013671875,-0.3048780560493469,-0.6402438879013062,-0.8231707215309143,1.649999976158142,21.149999618530273,-17.700000762939453,38.25222396850586,0,
 571525,0.20166015625,-0.93115234375,0.1396484375,-0.060975611209869385,-0.396341472864151,0.060975611209869385,0.0,20.850000381469727,-16.5,38.587684631347656,0,
 571535,0.203125,-0.931640625,0.138671875,0.3658536672592163,-0.6097561120986938,0.09146341681480408,0.75,22.049999237060547,-18.0,38.44391632080078,0,
 571545,0.207763671875,-0.938720703125,0.130615234375,0.3658536672592163,-0.8536585569381714,0.4878048896789551,0.30000001192092896,23.25,-17.549999237060547,38.49183654785156,0,
 571555,0.198974609375,-0.93310546875,0.12841796875,0.6402438879013062,-0.7012194991111755,0.3353658616542816,0.30000001192092896,23.25,-17.549999237060547,38.395992279052734,0,
 571565,0.19970703125,-0.9296875,0.1279296875,0.5487805008888245,-1.0060975551605225,0.8536585569381714,0.15000000596046448,20.25,-18.149999618530273,38.63560485839844,0,
 571575,0.194580078125,-0.934326171875,0.121826171875,2.012195110321045,-1.0670732259750366,0.8231707215309143,-0.44999998807907104,22.350000381469727,-16.200000762939453,38.63560485839844,0,
 571585,0.196044921875,-0.931640625,0.126220703125,2.6524391174316406,0.18292683362960815,1.1585365533828735,-0.75,20.549999237060547,-18.299999237060547,38.587684631347656,0,
 571595,0.1953125,-0.93359375,0.126220703125,3.5365853309631348,0.21341463923454285,1.4939024448394775,-0.75,20.549999237060547,-18.299999237060547,38.587684631347656,0,
 571605,0.202392578125,-0.927978515625,0.133544921875,4.695122241973877,0.6707317233085632,1.4634146690368652,1.0499999523162842,21.299999237060547,-18.0,38.300148010253906,0,
 571615,0.197021484375,-0.939208984375,0.1474609375,6.067073345184326,0.3353658616542816,1.6768293380737305,0.8999999761581421,19.950000762939453,-17.399999618530273,38.63560485839844,0,
 571625,0.19677734375,-0.94384765625,0.1513671875,5.731707572937012,0.060975611209869385,1.6158536672592163,-0.15000000596046448,19.950000762939453,-17.399999618530273,38.395992279052734,0,
 571635,0.193603515625,-0.9365234375,0.13427734375,5.365853786468506,0.4878048896789551,1.585365891456604,0.0,21.299999237060547,-17.549999237060547,38.44391632080078,0,
 571645,0.19287109375,-0.940185546875,0.13427734375,5.182927131652832,0.792682945728302,1.25,0.0,21.299999237060547,-17.549999237060547,38.587684631347656,0,
 571655,0.19482421875,-0.932861328125,0.130615234375,5.884146690368652,0.9451219439506531,1.7987805604934692,1.5,22.5,-17.25,38.44391632080078,0,
 571665,0.19482421875,-0.9365234375,0.147216796875,6.128048896789551,1.432926893234253,1.8292683362960815,2.549999952316284,22.049999237060547,-19.5,38.44391632080078,0,
 571675,0.190673828125,-0.94775390625,0.15576171875,6.707317352294922,1.1890244483947754,1.25,0.15000000596046448,21.149999618530273,-18.149999618530273,38.63560485839844,0,
 571685,0.18408203125,-0.958251953125,0.1328125,8.231707572937012,2.103658676147461,1.3109756708145142,0.15000000596046448,21.149999618530273,-18.149999618530273,38.395992279052734,0,
 571695,0.23828125,-0.8408203125,0.12841796875,9.29878044128418,1.3414634466171265,1.25,0.15000000596046448,21.450000762939453,-16.950000762939453,38.25222396850586,0,
 571705,0.201416015625,-0.971435546875,0.1357421875,2.012195110321045,1.7987805604934692,0.8841463327407837,0.8999999761581421,19.950000762939453,-17.700000762939453,38.300148010253906,0,
 571725,0.341064453125,-0.951416015625,0.003662109375,5.3353657722473145,1.920731782913208,0.3048780560493469,0.44999998807907104,21.149999618530273,-17.700000762939453,38.44391632080078,0,
 571735,0.228759765625,-0.912109375,0.177490234375,3.5365853309631348,0.3658536672592163,0.3658536672592163,0.75,21.75,-16.049999237060547,38.63560485839844,0,
 571745,0.21044921875,-0.913818359375,0.180908203125,2.5,0.5487805008888245,0.4268292784690857,0.75,20.850000381469727,-17.549999237060547,38.15637969970703,0,
 571755,0.176513671875,-0.98876953125,0.166015625,-1.8902438879013062,0.8841463327407837,0.030487805604934692,0.0,23.25,-18.75,38.63560485839844,0,
 571765,0.195068359375,-0.9189453125,0.1455078125,0.5792682766914368,0.5487805008888245,-0.3048780560493469,0.75,20.549999237060547,-16.799999237060547,38.587684631347656,0,
 571775,0.203125,-0.93359375,0.15234375,0.4878048896789551,0.5792682766914368,0.060975611209869385,0.75,20.549999237060547,-16.799999237060547,38.587684631347656,0,
 571785,0.1923828125,-0.94091796875,0.15283203125,-0.6097561120986938,0.7012194991111755,-0.12195122241973877,1.0499999523162842,21.299999237060547,-16.799999237060547,38.587684631347656,0,
 571795,0.203369140625,-0.934814453125,0.15478515625,-0.6402438879013062,0.4878048896789551,-0.24390244483947754,-0.15000000596046448,20.700000762939453,-18.149999618530273,38.44391632080078,0,
 571805,0.1953125,-0.949951171875,0.159912109375,-1.8292683362960815,0.09146341681480408,0.030487805604934692,0.44999998807907104,19.950000762939453,-19.649999618530273,38.49183654785156,0,
 571815,0.200439453125,-0.93310546875,0.15966796875,-2.682926893234253,0.21341463923454285,-0.030487805604934692,0.44999998807907104,19.950000762939453,-19.649999618530273,38.49183654785156,0,
 571825,0.197509765625,-0.93701171875,0.159912109375,-2.804877996444702,0.27439025044441223,-0.12195122241973877,1.5,21.299999237060547,-19.049999237060547,38.587684631347656,0,
 571835,0.1904296875,-0.938720703125,0.16015625,-3.3231709003448486,0.4573170840740204,0.15243902802467346,0.30000001192092896,21.75,-18.299999237060547,38.683528900146484,0,
 571845,0.204345703125,-0.935791015625,0.15380859375,-3.8719513416290283,0.27439025044441223,-0.15243902802467346,1.7999999523162842,21.299999237060547,-16.799999237060547,38.49183654785156,0,
 571855,0.19873046875,-0.9404296875,0.14892578125,-3.75,0.27439025044441223,0.21341463923454285,1.7999999523162842,21.299999237060547,-16.799999237060547,38.49183654785156,0,
 571865,0.1982421875,-0.94091796875,0.155029296875,-4.054878234863281,0.15243902802467346,-0.27439025044441223,1.649999976158142,20.25,-17.700000762939453,38.49183654785156,0,
 571875,0.199462890625,-0.9345703125,0.1552734375,-4.29878044128418,0.3353658616542816,-0.5487805008888245,-0.44999998807907104,21.899999618530273,-16.950000762939453,38.44391632080078,0,
 571885,0.203857421875,-0.9345703125,0.162109375,-4.45121955871582,0.15243902802467346,-0.396341472864151,-0.75,21.75,-17.25,38.587684631347656,0,
 571895,0.203369140625,-0.94873046875,0.161376953125,-4.29878044128418,-0.5792682766914368,0.21341463923454285,2.0999999046325684,21.450000762939453,-17.399999618530273,38.300148010253906,0,
 571905,0.187744140625,-0.957763671875,0.153076171875,-5.762195110321045,-0.5487805008888245,-0.3353658616542816,2.0999999046325684,21.450000762939453,-17.399999618530273,38.587684631347656,0,
 571915,0.1943359375,-0.94091796875,0.153076171875,-6.25,-0.21341463923454285,-1.097561001777649,1.2000000476837158,21.149999618530273,-17.399999618530273,38.49183654785156,0,
 571925,0.195068359375,-0.938720703125,0.1357421875,-5.8231706619262695,-0.3658536672592163,-0.792682945728302,-0.44999998807907104,21.149999618530273,-18.450000762939453,38.63560485839844,0,
 571935,0.189208984375,-0.931396484375,0.13671875,-5.670732021331787,-0.6097561120986938,-0.5792682766914368,0.0,23.25,-17.549999237060547,38.63560485839844,0,
 571945,0.1943359375,-0.930908203125,0.139404296875,-5.457317352294922,-0.5792682766914368,-1.097561001777649,0.0,23.25,-17.549999237060547,38.44391632080078,0,
 571955,0.196044921875,-0.94384765625,0.1298828125,-4.603658676147461,-0.12195122241973877,-0.5182926654815674,1.2000000476837158,21.450000762939453,-16.649999618530273,38.587684631347656,0,
 571965,0.200927734375,-0.935302734375,0.130859375,-4.146341323852539,-0.060975611209869385,-0.6707317233085632,0.8999999761581421,20.700000762939453,-18.450000762939453,38.395992279052734,0,
 571975,0.202392578125,-0.933837890625,0.133056640625,-2.987804889678955,0.030487805604934692,-0.7621951103210449,1.0499999523162842,22.049999237060547,-16.049999237060547,38.44391632080078,0,
 571985,0.192626953125,-0.938232421875,0.136962890625,-2.5,0.09146341681480408,-0.7621951103210449,1.0499999523162842,22.049999237060547,-16.049999237060547,38.300148010253906,0,
 571995,0.19873046875,-0.9423828125,0.14208984375,-1.7073171138763428,0.3353658616542816,-1.1280487775802612,0.44999998807907104,21.149999618530273,-16.950000762939453,38.300148010253906,0,
 572005,0.197509765625,-0.931884765625,0.14501953125,-1.6463414430618286,0.3658536672592163,-0.9451219439506531,0.15000000596046448,21.450000762939453,-18.149999618530273,38.44391632080078,0,
 572015,0.2001953125,-0.939453125,0.146240234375,-1.7682926654815674,0.09146341681480408,-0.8841463327407837,0.0,19.799999237060547,-17.25,38.44391632080078,0,
 572025,0.20166015625,-0.937255859375,0.141357421875,-1.9512195587158203,0.6402438879013062,-0.8231707215309143,0.44999998807907104,21.899999618530273,-17.399999618530273,38.587684631347656,0,
 572035,0.197021484375,-0.941162109375,0.146728515625,-1.6158536672592163,0.4878048896789551,-0.6402438879013062,0.44999998807907104,21.899999618530273,-17.399999618530273,38.587684631347656,0,
 572045,0.201416015625,-0.929443359375,0.14208984375,-1.3109756708145142,0.3658536672592163,-0.5487805008888245,1.649999976158142,21.450000762939453,-16.649999618530273,38.300148010253906,0,
 572055,0.19970703125,-0.934326171875,0.138671875,-1.1585365533828735,0.6097561120986938,-0.09146341681480408,1.0499999523162842,21.75,-18.0,38.587684631347656,0,
 572065,0.2001953125,-0.929443359375,0.138427734375,-0.7621951103210449,0.6402438879013062,0.0,1.649999976158142,22.350000381469727,-18.149999618530273,38.63560485839844,0,
 572075,0.203369140625,-0.932373046875,0.140625,-1.0670732259750366,0.5792682766914368,0.3658536672592163,1.649999976158142,22.350000381469727,-18.149999618530273,38.77937698364258,0,
 572085,0.205078125,-0.939453125,0.14111328125,-0.9146341681480408,0.6707317233085632,0.6097561120986938,-0.15000000596046448,22.350000381469727,-15.449999809265137,38.77937698364258,0,
 572096,0.207763671875,-0.935546875,0.1376953125,-0.9146341681480408,0.6097561120986938,0.8536585569381714,2.0999999046325684,22.649999618530273,-16.200000762939453,38.587684631347656,0,
 572106,0.20556640625,-0.93212890625,0.1416015625,-1.0670732259750366,0.7317073345184326,1.1585365533828735,-0.15000000596046448,22.350000381469727,-17.399999618530273,38.49183654785156,0,
 572116,0.202392578125,-0.937255859375,0.14306640625,-1.0365853309631348,0.5487805008888245,1.6463414430618286,-0.15000000596046448,22.350000381469727,-17.399999618530273,38.63560485839844,0,
 572126,0.19873046875,-0.94140625,0.136962890625,-1.0060975551605225,0.7317073345184326,1.6158536672592163,0.8999999761581421,20.700000762939453,-17.700000762939453,38.683528900146484,0,
 572136,0.198974609375,-0.941650390625,0.143310546875,-0.7317073345184326,0.6402438879013062,1.4939024448394775,0.75,20.549999237060547,-17.549999237060547,38.587684631347656,0,
 572146,0.196533203125,-0.946044921875,0.14892578125,-0.792682945728302,0.4878048896789551,1.3414634466171265,1.0499999523162842,22.049999237060547,-16.049999237060547,38.63560485839844,0,
 572156,0.197021484375,-0.946533203125,0.1416015625,-1.3109756708145142,0.4268292784690857,1.0060975551605225,-1.0499999523162842,21.75,-17.25,38.395992279052734,0,
 572166,0.205322265625,-0.947265625,0.151123046875,-1.5548781156539917,0.27439025044441223,0.7317073345184326,-1.0499999523162842,21.75,-17.25,38.49183654785156,0,
 572176,0.19482421875,-0.9541015625,0.1416015625,-1.737804889678955,0.24390244483947754,0.5487805008888245,1.649999976158142,22.350000381469727,-17.700000762939453,38.683528900146484,0,
 572186,0.1923828125,-0.9404296875,0.14501953125,-1.7987805604934692,0.3658536672592163,-0.030487805604934692,1.7999999523162842,21.75,-16.5,38.25222396850586,0,
 572196,0.192626953125,-0.9375,0.137451171875,-1.1280487775802612,0.3658536672592163,-0.24390244483947754,1.0499999523162842,22.5,-17.25,38.587684631347656,0,
 572206,0.203125,-0.940673828125,0.138916015625,-0.8841463327407837,0.21341463923454285,-0.27439025044441223,1.0499999523162842,22.5,-17.25,38.44391632080078,0,
 572216,0.199951171875,-0.93994140625,0.142822265625,-1.402438998222351,0.030487805604934692,-0.6097561120986938,1.0499999523162842,20.850000381469727,-21.0,38.587684631347656,0,
 572226,0.197021484375,-0.9404296875,0.14404296875,-1.097561001777649,0.15243902802467346,-0.24390244483947754,-0.75,20.100000381469727,-16.799999237060547,38.63560485839844,0,
 572236,0.199462890625,-0.939697265625,0.14111328125,-1.1890244483947754,-0.060975611209869385,-0.18292683362960815,0.44999998807907104,23.100000381469727,-17.399999618530273,38.395992279052734,0,
 572246,0.197021484375,-0.93798828125,0.1435546875,-1.2804877758026123,-0.09146341681480408,-0.396341472864151,0.44999998807907104,23.100000381469727,-17.399999618530273,38.300148010253906,0,
 572256,0.197509765625,-0.936279296875,0.13720703125,-1.2804877758026123,0.18292683362960815,-0.09146341681480408,1.7999999523162842,21.299999237060547,-16.799999237060547,38.587684631347656,0,
 572266,0.202392578125,-0.942138671875,0.137451171875,-1.0060975551605225,-0.030487805604934692,0.030487805604934692,1.5,20.850000381469727,-18.299999237060547,38.49183654785156,0,
 572276,0.200927734375,-0.939453125,0.136474609375,-0.6707317233085632,0.3353658616542816,0.0,0.44999998807907104,19.5,-15.899999618530273,38.44391632080078,0,
 572286,0.197021484375,-0.940673828125,0.137451171875,-0.4878048896789551,0.27439025044441223,0.060975611209869385,-0.15000000596046448,21.899999618530273,-16.200000762939453,38.25222396850586,0,
 572296,0.195556640625,-0.937744140625,0.134033203125,-1.0365853309631348,0.21341463923454285,0.18292683362960815,-0.15000000596046448,21.899999618530273,-16.200000762939453,38.63560485839844,0,
 572306,0.198486328125,-0.938232421875,0.136962890625,-0.4268292784690857,0.5487805008888245,0.3658536672592163,0.44999998807907104,21.450000762939453,-16.200000762939453,38.49183654785156,0,
 572316,0.200439453125,-0.943603515625,0.140380859375,-0.3048780560493469,0.09146341681480408,0.030487805604934692,3.299999952316284,21.75,-17.25,38.587684631347656,0,
 572326,0.198974609375,-0.940185546875,0.140625,0.0,-0.060975611209869385,0.09146341681480408,1.2000000476837158,21.450000762939453,-16.200000762939453,38.63560485839844,0,
 572336,0.206298828125,-0.935302734375,0.138427734375,-0.27439025044441223,0.18292683362960815,-0.09146341681480408,1.2000000476837158,21.450000762939453,-16.200000762939453,38.395992279052734,0,
 572346,0.20068359375,-0.941162109375,0.140625,-0.3353658616542816,0.3353658616542816,0.4573170840740204,-0.8999999761581421,21.899999618530273,-15.899999618530273,38.44391632080078,0,
 572366,0.199951171875,-0.941162109375,0.134033203125,-0.27439025044441223,0.3048780560493469,0.030487805604934692,1.0499999523162842,20.549999237060547,-16.799999237060547,38.49183654785156,0,
 572376,0.203369140625,-0.93603515625,0.140625,-0.09146341681480408,0.3658536672592163,0.3353658616542816,1.0499999523162842,20.549999237060547,-16.799999237060547,38.587684631347656,0,
 572386,0.1962890625,-0.937744140625,0.139404296875,-0.3353658616542816,0.18292683362960815,0.4878048896789551,0.44999998807907104,22.350000381469727,-16.649999618530273,38.300148010253906,0,
 572396,0.2001953125,-0.9404296875,0.141845703125,-0.3353658616542816,0.21341463923454285,0.4268292784690857,0.8999999761581421,21.450000762939453,-16.950000762939453,38.49183654785156,0,
 572406,0.196044921875,-0.937255859375,0.1435546875,-0.396341472864151,0.3048780560493469,0.3353658616542816,0.75,20.549999237060547,-15.75,38.683528900146484,0,
 572416,0.200439453125,-0.940185546875,0.1416015625,-0.7621951103210449,0.3658536672592163,0.12195122241973877,0.15000000596046448,23.850000381469727,-19.200000762939453,38.587684631347656,0,
 572426,0.205078125,-0.943359375,0.14306640625,-0.6707317233085632,0.5182926654815674,0.4878048896789551,0.15000000596046448,23.850000381469727,-19.200000762939453,38.395992279052734,0,
 572436,0.20361328125,-0.939208984375,0.140625,-0.792682945728302,0.5182926654815674,0.5487805008888245,0.75,20.549999237060547,-16.049999237060547,38.300148010253906,0,
 572446,0.203369140625,-0.942138671875,0.138427734375,-0.9756097793579102,0.4573170840740204,0.7621951103210449,0.75,20.850000381469727,-18.75,38.49183654785156,0,
 572456,0.193115234375,-0.939453125,0.14208984375,-1.1280487775802612,0.3658536672592163,0.8231707215309143,-0.44999998807907104,21.450000762939453,-17.700000762939453,38.395992279052734,0,
 572466,0.198486328125,-0.944580078125,0.139892578125,-1.0670732259750366,0.060975611209869385,0.6097561120986938,-0.44999998807907104,21.450000762939453,-17.700000762939453,38.82729721069336,0,
 572476,0.197021484375,-0.936279296875,0.14404296875,-1.2195122241973877,0.3048780560493469,0.792682945728302,0.15000000596046448,21.899999618530273,-16.649999618530273,38.587684631347656,0,
 572486,0.196533203125,-0.940185546875,0.13623046875,-1.1890244483947754,0.09146341681480408,0.7317073345184326,1.5,20.850000381469727,-15.300000190734863,38.395992279052734,0,
 572496,0.19921875,-0.9404296875,0.135986328125,-1.402438998222351,0.12195122241973877,1.25,1.7999999523162842,20.549999237060547,-17.25,38.44391632080078,0,
 572506,0.19970703125,-0.938720703125,0.13330078125,-1.2195122241973877,0.12195122241973877,0.9756097793579102,1.7999999523162842,20.549999237060547,-17.25,38.300148010253906,0,
 572516,0.201171875,-0.94189453125,0.138427734375,-1.0670732259750366,0.24390244483947754,0.9146341681480408,0.44999998807907104,21.899999618530273,-15.449999809265137,38.44391632080078,0,
 572526,0.202392578125,-0.942138671875,0.138427734375,-1.2195122241973877,0.27439025044441223,0.8536585569381714,1.7999999523162842,20.100000381469727,-18.0,38.587684631347656,0,
 572536,0.19921875,-0.942138671875,0.13525390625,-0.6707317233085632,0.24390244483947754,0.4573170840740204,0.30000001192092896,21.75,-16.799999237060547,38.300148010253906,0,
 572546,0.1953125,-0.941162109375,0.141357421875,-0.792682945728302,0.21341463923454285,0.6707317233085632,1.2000000476837158,21.149999618530273,-15.899999618530273,38.395992279052734,0,
 572556,0.190673828125,-0.93994140625,0.14013671875,-0.6707317233085632,0.060975611209869385,0.5487805008888245,1.2000000476837158,21.149999618530273,-15.899999618530273,38.44391632080078,0,
 572566,0.196533203125,-0.939453125,0.137939453125,-0.21341463923454285,0.12195122241973877,0.6402438879013062,0.15000000596046448,20.700000762939453,-17.399999618530273,38.49183654785156,0,
 572576,0.191650390625,-0.939697265625,0.13818359375,-0.24390244483947754,0.3353658616542816,0.3048780560493469,0.75,22.049999237060547,-16.049999237060547,38.25222396850586,0,
 572586,0.196533203125,-0.938232421875,0.136962890625,0.09146341681480408,0.21341463923454285,0.21341463923454285,2.0999999046325684,21.149999618530273,-16.200000762939453,38.587684631347656,0,
 572596,0.200439453125,-0.93798828125,0.143798828125,0.0,0.27439025044441223,-0.09146341681480408,2.0999999046325684,21.149999618530273,-16.200000762939453,38.587684631347656,0,
 572606,0.203125,-0.94287109375,0.13916015625,0.09146341681480408,0.09146341681480408,-0.09146341681480408,-0.15000000596046448,21.899999618530273,-15.899999618530273,38.587684631347656,0,
 572616,0.194580078125,-0.948486328125,0.141845703125,-0.5182926654815674,0.3658536672592163,-0.15243902802467346,0.75,20.549999237060547,-16.5,38.587684631347656,0,
 572626,0.19287109375,-0.94287109375,0.14306640625,-0.396341472864151,0.5182926654815674,-0.8231707215309143,1.5,20.850000381469727,-21.0,38.15637969970703,0,
 572636,0.1962890625,-0.9462890625,0.13330078125,-0.27439025044441223,0.18292683362960815,-1.7987805604934692,1.5,20.850000381469727,-21.0,38.63560485839844,0,
 572646,0.2001953125,-0.949462890625,0.145263671875,-0.6707317233085632,0.09146341681480408,-1.920731782913208,1.0499999523162842,20.100000381469727,-16.5,38.683528900146484,0,
 572656,0.194091796875,-0.9501953125,0.139892578125,-0.4573170840740204,0.12195122241973877,-2.195122003555298,0.15000000596046448,20.700000762939453,-15.899999618530273,38.63560485839844,0,
 572666,0.203857421875,-0.943115234375,0.139404296875,-0.6402438879013062,-0.21341463923454285,-2.1646342277526855,2.4000000953674316,21.899999618530273,-17.399999618530273,38.77937698364258,0,
 572676,0.1953125,-0.939697265625,0.13330078125,0.030487805604934692,-0.030487805604934692,-2.2865853309631348,1.2000000476837158,19.5,-17.700000762939453,38.587684631347656,0,
 572686,0.199951171875,-0.948486328125,0.13916015625,0.27439025044441223,0.030487805604934692,-2.0426828861236572,1.2000000476837158,19.5,-17.700000762939453,38.63560485839844,0,
 572696,0.203369140625,-0.941650390625,0.140625,-0.3048780560493469,0.09146341681480408,-2.0426828861236572,-0.75,21.75,-15.300000190734863,38.63560485839844,0,
 572706,0.20068359375,-0.94189453125,0.140869140625,-0.15243902802467346,0.21341463923454285,-1.3414634466171265,-0.15000000596046448,20.700000762939453,-14.699999809265137,38.49183654785156,0,
 572716,0.2021484375,-0.934814453125,0.140625,-0.5792682766914368,0.09146341681480408,-1.1280487775802612,0.75,22.950000762939453,-17.25,38.587684631347656,0,
 572726,0.201416015625,-0.93701171875,0.140380859375,-1.1890244483947754,0.24390244483947754,-1.0670732259750366,0.75,22.950000762939453,-17.25,38.49183654785156,0,
 572736,0.210205078125,-0.93115234375,0.142333984375,-1.3414634466171265,0.24390244483947754,-0.3048780560493469,0.30000001192092896,22.049999237060547,-16.799999237060547,38.49183654785156,0,
 572746,0.205810546875,-0.92822265625,0.13671875,-1.8902438879013062,0.24390244483947754,-0.4268292784690857,2.0999999046325684,21.899999618530273,-18.149999618530273,38.395992279052734,0,
 572756,0.207763671875,-0.93359375,0.138671875,-1.9817073345184326,0.060975611209869385,-0.21341463923454285,-1.5,22.5,-17.549999237060547,38.63560485839844,0,
 572766,0.20849609375,-0.931396484375,0.138427734375,-1.8292683362960815,0.18292683362960815,0.4878048896789551,-0.8999999761581421,21.149999618530273,-15.449999809265137,38.587684631347656,0,
 572776,0.198486328125,-0.940673828125,0.133056640625,-1.6463414430618286,0.24390244483947754,0.7317073345184326,0.30000001192092896,22.5,-17.549999237060547,38.25222396850586,0,
 572786,0.19580078125,-0.94287109375,0.133056640625,-1.5548781156539917,0.27439025044441223,0.396341472864151,0.44999998807907104,20.25,-17.399999618530273,38.49183654785156,0,
 572796,0.201904296875,-0.939208984375,0.135986328125,-1.4634146690368652,0.3353658616542816,-0.24390244483947754,0.75,20.549999237060547,-18.0,38.44391632080078,0,
 572806,0.208740234375,-0.94873046875,0.136962890625,-1.432926893234253,-0.030487805604934692,-0.21341463923454285,1.5,20.850000381469727,-16.799999237060547,38.49183654785156,0,
 572816,0.19775390625,-0.95556640625,0.14111328125,-1.0670732259750366,0.27439025044441223,-0.6402438879013062,1.5,20.850000381469727,-16.799999237060547,38.44391632080078,0,
 572826,0.20166015625,-0.947998046875,0.14013671875,-0.9146341681480408,0.0,-1.0365853309631348,1.0499999523162842,22.950000762939453,-18.299999237060547,38.300148010253906,0,
 572836,0.201904296875,-0.946044921875,0.133544921875,-0.8231707215309143,-0.030487805604934692,-1.7987805604934692,0.44999998807907104,20.25,-17.399999618530273,38.49183654785156,0,
 572846,0.204833984375,-0.954345703125,0.137451171875,-0.5487805008888245,-0.18292683362960815,-2.1646342277526855,0.8999999761581421,22.649999618530273,-16.649999618530273,38.300148010253906,0,
 572856,0.199462890625,-0.94482421875,0.14404296875,-0.030487805604934692,-0.030487805604934692,-2.5609755516052246,0.8999999761581421,22.649999618530273,-16.649999618530273,38.63560485839844,0,
 572866,0.20556640625,-0.946044921875,0.144775390625,0.396341472864151,-0.09146341681480408,-3.0487804412841797,0.8999999761581421,19.950000762939453,-17.399999618530273,38.587684631347656,0,
 572877,0.201904296875,-0.95068359375,0.14404296875,-0.18292683362960815,-0.3353658616542816,-3.262195110321045,0.75,20.850000381469727,-16.049999237060547,38.44391632080078,0,
 572887,0.204833984375,-0.943359375,0.141845703125,-0.8536585569381714,-0.18292683362960815,-3.9939024448394775,1.0499999523162842,22.049999237060547,-17.25,38.49183654785156,0,
 572897,0.203857421875,-0.944091796875,0.14111328125,-0.9451219439506531,-0.396341472864151,-4.1768293380737305,0.44999998807907104,21.149999618530273,-17.399999618530273,38.587684631347656,0,
 572907,0.201904296875,-0.9443359375,0.1474609375,-1.8292683362960815,-0.7317073345184326,-4.1768293380737305,0.30000001192092896,22.5,-16.5,38.63560485839844,0,
 572917,0.212890625,-0.951904296875,0.146240234375,-3.079268455505371,-0.5792682766914368,-4.542683124542236,0.30000001192092896,21.299999237060547,-16.049999237060547,38.49183654785156,0,
 572927,0.2138671875,-0.943603515625,0.149169921875,-4.054878234863281,-0.7317073345184326,-4.512195110321045,0.15000000596046448,21.450000762939453,-17.399999618530273,38.44391632080078,0,
 572937,0.206298828125,-0.95068359375,0.14892578125,-5.3353657722473145,-0.5487805008888245,-4.146341323852539,0.15000000596046448,20.25,-16.649999618530273,38.587684631347656,0,
 572947,0.20947265625,-0.947265625,0.146484375,-6.371951580047607,-1.0365853309631348,-4.6646342277526855,0.15000000596046448,20.25,-16.649999618530273,38.44391632080078,0,
 572957,0.21044921875,-0.95166015625,0.140869140625,-7.042683124542236,-1.097561001777649,-5.609755992889404,-0.44999998807907104,21.149999618530273,-17.700000762939453,38.63560485839844,0,
 572967,0.20849609375,-0.941650390625,0.142578125,-7.591463565826416,-1.737804889678955,-6.189024448394775,0.44999998807907104,20.25,-15.899999618530273,38.587684631347656,0,
 572977,0.2158203125,-0.959228515625,0.13330078125,-7.804878234863281,-1.8902438879013062,-5.731707572937012,1.7999999523162842,21.299999237060547,-15.300000190734863,38.395992279052734,0,
 572987,0.214599609375,-0.928955078125,0.1220703125,-10.060976028442383,-1.6768293380737305,-6.006097793579102,1.7999999523162842,21.299999237060547,-15.300000190734863,38.587684631347656,0,
 572997,0.2158203125,-0.922607421875,0.136474609375,-8.506097793579102,-2.195122003555298,-6.7682929039001465,0.44999998807907104,22.350000381469727,-16.950000762939453,38.49183654785156,0,
 573007,0.248779296875,-0.9150390625,0.152099609375,-6.5853657722473145,-2.896341562271118,-6.219512462615967,-0.30000001192092896,20.549999237060547,-16.049999237060547,38.49183654785156,0,
 573017,0.234130859375,-0.96484375,0.16015625,-6.189024448394775,-4.817073345184326,-5.030488014221191,0.30000001192092896,20.100000381469727,-16.799999237060547,38.49183654785156,0,
 573027,0.25,-0.8740234375,0.186279296875,-10.365854263305664,-5.060975551605225,-5.030488014221191,0.0,19.799999237060547,-18.0,38.587684631347656,0,
 573037,0.191650390625,-0.944091796875,0.078857421875,-14.054878234863281,-5.152439117431641,-4.603658676147461,0.0,19.799999237060547,-18.0,38.587684631347656,0,
 573047,0.21240234375,-0.896728515625,0.105712890625,-10.945121765136719,-2.6524391174316406,-3.6890244483947754,-0.15000000596046448,21.450000762939453,-15.449999809265137,38.395992279052734,0,
 573057,0.22314453125,-0.934814453125,0.1142578125,-10.731707572937012,-3.170731782913208,-2.9268293380737305,-0.30000001192092896,20.100000381469727,-15.300000190734863,38.63560485839844,0,
 573067,0.2294921875,-0.912841796875,0.1044921875,-8.963415145874023,-3.353658676147461,-2.6219513416290283,2.0999999046325684,20.700000762939453,-15.449999809265137,38.25222396850586,0,
 573077,0.21875,-0.938232421875,0.110107421875,-4.29878044128418,-4.115853786468506,-2.987804889678955,2.0999999046325684,20.700000762939453,-15.449999809265137,38.683528900146484,0,
 573087,0.3603515625,-0.854736328125,0.20751953125,-5.54878044128418,-7.9268293380737305,-1.2195122241973877,1.0499999523162842,20.100000381469727,-15.75,38.587684631347656,0,
 573097,0.1728515625,-0.91455078125,0.172119140625,-4.756097793579102,-5.853658676147461,-1.9512195587158203,-0.44999998807907104,20.25,-14.399999618530273,38.395992279052734,0,
 573107,0.201904296875,-1.1357421875,0.05322265625,-18.75,-1.6158536672592163,-4.359755992889404,0.0,21.299999237060547,-13.5,38.63560485839844,0,
 573117,0.174560546875,-0.94482421875,0.066650390625,-10.579268455505371,-2.6219513416290283,-3.445122003555298,0.0,21.299999237060547,-13.5,38.63560485839844,0,
 573127,0.305908203125,-0.87060546875,0.041015625,-5.945122241973877,-3.2012195587158203,-3.1097562313079834,-0.8999999761581421,20.700000762939453,-14.399999618530273,38.44391632080078,0,
 573147,0.224609375,-0.979736328125,0.122314453125,-5.609755992889404,-4.1768293380737305,-6.341463565826416,-0.8999999761581421,19.950000762939453,-14.399999618530273,38.587684631347656,0,
 573157,0.201904296875,-1.01416015625,0.119873046875,-6.25,-3.7195122241973877,-9.17682933807373,-0.44999998807907104,21.450000762939453,-15.149999618530273,38.49183654785156,0,
 573167,0.20263671875,-1.011474609375,0.1142578125,-4.390244007110596,-4.45121955871582,-12.896341323852539,-0.44999998807907104,21.450000762939453,-15.149999618530273,38.25222396850586,0,
 573177,0.234130859375,-1.047607421875,0.1513671875,-2.378048896789551,-8.32317066192627,-16.189023971557617,0.0,19.799999237060547,-15.300000190734863,38.683528900146484,0,
 573187,0.2177734375,-1.090576171875,0.18603515625,4.634146213531494,-14.29878044128418,-22.408536911010742,-1.2000000476837158,20.25,-13.949999809265137,38.683528900146484,0,
 573197,0.11767578125,-1.185302734375,0.177001953125,11.219511985778809,-16.829269409179688,-31.73780632019043,-1.0499999523162842,19.350000381469727,-13.800000190734863,38.44391632080078,0,
 573207,-0.22021484375,-1.298583984375,0.04638671875,2.317073106765747,-18.04878044128418,-39.1158561706543,-1.0499999523162842,19.350000381469727,-13.800000190734863,38.587684631347656,0,
 573217,-0.579345703125,-1.11572265625,0.005126953125,-11.554878234863281,-14.237805366516113,-35.213417053222656,-0.8999999761581421,18.0,-13.949999809265137,38.108455657958984,0,
 573227,-0.685302734375,-0.823486328125,0.01513671875,-27.28658676147461,-2.2865853309631348,-20.121952056884766,-0.8999999761581421,19.200000762939453,-12.899999618530273,38.44391632080078,0,
 573237,-0.665771484375,-0.9736328125,0.073974609375,-7.103658676147461,15.12195110321045,-0.27439025044441223,-1.0499999523162842,21.75,-16.049999237060547,38.49183654785156,0,
 573247,-0.54833984375,-1.180419921875,0.051025390625,-1.5243902206420898,26.859756469726562,9.695121765136719,-1.0499999523162842,21.75,-16.049999237060547,38.587684631347656,0,
 573257,-0.47265625,-1.15185546875,0.08154296875,-11.40243911743164,33.17073059082031,18.38414764404297,1.5,19.350000381469727,-12.300000190734863,38.683528900146484,0,
 573267,-0.434326171875,-1.0068359375,0.119384765625,-22.10365867614746,34.69512176513672,30.731708526611328,2.25,20.100000381469727,-13.800000190734863,38.44391632080078,0,
 573277,-0.3857421875,-0.9052734375,0.1328125,-23.04878044128418,35.4878044128418,44.45122146606445,1.0499999523162842,20.549999237060547,-13.050000190734863,38.587684631347656,0,
 573287,-0.33251953125,-0.94287109375,0.13916015625,-16.707317352294922,35.7621955871582,56.1280517578125,1.2000000476837158,18.299999237060547,-12.899999618530273,38.77937698364258,0,
 573297,-0.29052734375,-0.988037109375,0.129638671875,-12.134146690368652,34.725608825683594,67.62195587158203,1.2000000476837158,18.299999237060547,-12.899999618530273,38.63560485839844,0,
 573307,-0.217041015625,-0.98486328125,0.1357421875,-13.506097793579102,34.29878234863281,78.10975646972656,6.449999809265137,20.850000381469727,-12.0,38.44391632080078,0,
 573317,-0.161376953125,-0.94921875,0.148681640625,-13.780488014221191,32.89634323120117,86.58536529541016,7.349999904632568,21.899999618530273,-8.699999809265137,38.44391632080078,0,
 573327,-0.130126953125,-0.927490234375,0.14599609375,-11.219511985778809,30.64024543762207,93.44512176513672,7.199999809265137,23.25,-9.0,38.49183654785156,0,
 573337,-0.09814453125,-0.918701171875,0.1259765625,-6.463414669036865,26.73780632019043,100.94512176513672,7.199999809265137,23.25,-9.0,38.587684631347656,0,
 573347,-0.07470703125,-0.947509765625,0.131103515625,-1.5548781156539917,22.957317352294922,106.92073059082031,11.25,24.299999237060547,-7.949999809265137,38.44391632080078,0,
 573357,-0.06103515625,-0.931396484375,0.109375,0.060975611209869385,20.121952056884766,113.32317352294922,13.800000190734863,24.75,-6.150000095367432,38.44391632080078,0,
 573367,-0.050537109375,-0.93017578125,0.108642578125,0.4878048896789551,17.378049850463867,119.51219940185547,16.200000762939453,23.850000381469727,-2.4000000953674316,38.108455657958984,0,
 573377,-0.0810546875,-0.93017578125,0.074951171875,2.804877996444702,14.664634704589844,126.31098175048828,16.200000762939453,23.850000381469727,-2.4000000953674316,38.49183654785156,0,
 573387,-0.1103515625,-0.953857421875,0.035888671875,3.3841464519500732,13.20121955871582,134.0853729248047,15.600000381469727,25.350000381469727,-1.0499999523162842,38.63560485839844,0,
 573397,-0.10791015625,-1.01611328125,0.01513671875,1.920731782913208,13.567073822021484,140.27439880371094,17.25,26.700000762939453,1.649999976158142,38.395992279052734,0,
 573407,-0.06201171875,-1.08642578125,0.028076171875,-0.6707317233085632,14.664634704589844,144.57318115234375,16.950000762939453,27.0,2.700000047683716,38.683528900146484,0,
 573417,-0.015625,-1.145751953125,0.022705078125,-3.2012195587158203,15.457317352294922,147.86585998535156,15.449999809265137,26.700000762939453,5.699999809265137,38.300148010253906,0,
 573427,-0.01123046875,-1.168701171875,0.00244140625,-5.670732021331787,15.70121955871582,148.0792694091797,15.449999809265137,26.700000762939453,5.699999809265137,38.44391632080078,0,
 573437,-0.024658203125,-1.14697265625,-0.018310546875,-9.146341323852539,15.945122718811035,148.01829528808594,12.300000190734863,28.200000762939453,7.949999809265137,38.587684631347656,0,
 573447,-0.039306640625,-1.12353515625,-0.0400390625,-13.109756469726562,16.310976028442383,149.2073211669922,8.699999809265137,29.25,7.800000190734863,38.44391632080078,0,
 573457,-0.05712890625,-1.0859375,-0.058837890625,-16.585365295410156,16.95121955871582,151.85975646972656,7.5,30.450000762939453,6.75,38.63560485839844,0,
 573467,-0.0947265625,-1.069580078125,-0.064208984375,-20.060976028442383,17.2560977935791,156.3719482421875,7.5,30.450000762939453,6.75,38.25222396850586,0,
 573477,-0.12890625,-1.070068359375,-0.08544921875,-21.859756469726562,17.439023971557617,163.23170471191406,4.650000095367432,29.399999618530273,3.9000000953674316,38.587684631347656,0,
 573487,-0.185302734375,-1.0703125,-0.116455078125,-24.08536720275879,18.719512939453125,170.3048858642578,3.0,30.450000762939453,1.5,38.587684631347656,0,
 573497,-0.210205078125,-1.144287109375,-0.1337890625,-35.73170852661133,28.567073822021484,190.3048858642578,4.199999809265137,30.75,-1.7999999523162842,38.587684631347656,0,
 573507,-0.179443359375,-1.228515625,-0.11328125,-46.7378044128418,34.32926940917969,198.3841552734375,4.199999809265137,30.75,-1.7999999523162842,38.300148010253906,0,
 573517,-0.110107421875,-1.28076171875,-0.0810546875,-52.53049087524414,38.780487060546875,196.49391174316406,7.800000190734863,33.45000076293945,-4.650000095367432,38.587684631347656,0,
 573527,-0.05224609375,-1.294677734375,-0.036865234375,-48.53658676147461,39.817073822021484,183.84146118164062,8.699999809265137,31.950000762939453,-7.5,38.395992279052734,0,
 573537,0.041259765625,-1.394775390625,0.048095703125,-46.25,39.085365295410156,167.98780822753906,10.800000190734863,32.54999923706055,-7.650000095367432,38.44391632080078,0,
 573547,0.043212890625,-1.305908203125,-0.00341796875,-44.26829528808594,40.24390411376953,156.3719482421875,13.800000190734863,32.54999923706055,-12.449999809265137,38.683528900146484,0,
 573557,-0.023681640625,-1.236572265625,-0.01611328125,-40.30487823486328,43.53658676147461,150.85366821289062,13.800000190734863,32.54999923706055,-12.449999809265137,38.44391632080078,0,
 573567,-0.054443359375,-1.234375,-0.027099609375,-39.908538818359375,48.53658676147461,150.39634704589844,16.5,31.350000381469727,-9.899999618530273,38.395992279052734,0,
 573577,-0.083251953125,-1.25390625,-0.03955078125,-42.103660583496094,53.29268264770508,150.97561645507812,17.850000381469727,34.04999923706055,-10.5,38.587684631347656,0,
 573587,-0.105712890625,-1.242919921875,-0.0419921875,-46.92073440551758,58.23170852661133,152.9268341064453,20.399999618530273,31.350000381469727,-12.899999618530273,38.49183654785156,0,
 573597,-0.10546875,-1.213134765625,-0.04052734375,-49.84756088256836,60.853660583496094,153.65853881835938,20.399999618530273,31.350000381469727,-12.899999618530273,38.587684631347656,0,
 573607,-0.055908203125,-1.191162109375,-0.01953125,-54.57317352294922,60.88414764404297,152.5,22.649999618530273,30.299999237060547,-11.399999618530273,38.15637969970703,0,
 573617,-0.0244140625,-1.130859375,0.004150390625,-57.408538818359375,58.04878234863281,147.22561645507812,23.399999618530273,30.600000381469727,-11.699999809265137,38.49183654785156,0,
 573627,-0.00927734375,-1.03759765625,0.03759765625,-55.18292999267578,52.22561264038086,139.0853729248047,25.649999618530273,29.100000381469727,-12.449999809265137,38.49183654785156,0,
 573638,-0.000244140625,-0.904541015625,0.05615234375,-45.0,46.25,127.59146881103516,25.649999618530273,29.100000381469727,-12.449999809265137,38.49183654785156,0,
 573648,-0.0048828125,-0.880859375,0.072509765625,-32.8658561706543,41.067073822021484,107.59146881103516,29.100000381469727,31.350000381469727,-13.199999809265137,38.49183654785156,0,
 573658,-0.0234375,-0.896484375,0.09033203125,-20.15243911743164,38.17073440551758,81.61585235595703,29.549999237060547,29.100000381469727,-10.949999809265137,38.300148010253906,0,
 573668,-0.129150390625,-0.8720703125,0.08203125,-6.463414669036865,36.6158561706543,54.35975646972656,28.350000381469727,29.399999618530273,-9.449999809265137,38.49183654785156,0,
 573678,-0.17529296875,-0.808837890625,0.049072265625,0.5182926654815674,36.79878234863281,33.01829528808594,30.299999237060547,28.649999618530273,-10.649999618530273,38.44391632080078,0,
 573688,-0.224365234375,-0.72119140625,0.033447265625,1.737804889678955,37.74390411376953,19.05487823486328,30.299999237060547,28.649999618530273,-10.649999618530273,38.395992279052734,0,
 573698,-0.287841796875,-0.679931640625,0.01611328125,3.8719513416290283,38.84146499633789,11.95121955871582,30.75,30.299999237060547,-9.899999618530273,38.77937698364258,0,
 573708,-0.339111328125,-0.684326171875,0.00390625,6.067073345184326,38.780487060546875,8.292682647705078,31.5,28.200000762939453,-10.649999618530273,38.25222396850586,0,
 573718,-0.389892578125,-0.693115234375,-0.008056640625,5.731707572937012,38.719512939453125,3.5060975551605225,29.399999618530273,30.0,-10.800000190734863,38.63560485839844,0,
 573728,-0.431884765625,-0.677001953125,-0.037841796875,6.707317352294922,38.32317352294922,-0.5487805008888245,29.399999618530273,30.0,-10.800000190734863,38.587684631347656,0,
 573738,-0.4755859375,-0.701416015625,-0.04150390625,7.682927131652832,39.48170852661133,-4.0853657722473145,28.350000381469727,31.049999237060547,-10.649999618530273,38.300148010253906,0,
 573748,-0.486328125,-0.697265625,-0.04248046875,8.445121765136719,41.34146499633789,-8.384146690368652,28.649999618530273,30.450000762939453,-12.0,38.395992279052734,0,
 573758,-0.505126953125,-0.707763671875,-0.041015625,9.756097793579102,44.29878234863281,-16.067073822021484,29.549999237060547,29.399999618530273,-10.649999618530273,38.15637969970703,0,
 573768,-0.52880859375,-0.724365234375,-0.0498046875,12.286585807800293,46.03658676147461,-22.83536720275879,29.549999237060547,29.399999618530273,-10.649999618530273,38.44391632080078,0,
 573778,-0.550048828125,-0.743408203125,-0.067626953125,14.390244483947754,45.4878044128418,-27.957317352294922,29.549999237060547,29.850000381469727,-10.649999618530273,38.587684631347656,0,
 573788,-0.57958984375,-0.7431640625,-0.087890625,13.445122718811035,42.774391174316406,-30.426830291748047,28.200000762939453,30.450000762939453,-10.800000190734863,38.395992279052734,0,
 573798,-0.62158203125,-0.72216796875,-0.09716796875,10.030488014221191,38.719512939453125,-29.908536911010742,29.549999237060547,30.299999237060547,-11.399999618530273,38.49183654785156,0,
 573808,-0.673583984375,-0.6982421875,-0.102294921875,7.0731706619262695,36.18902587890625,-28.079269409179688,29.100000381469727,27.899999618530273,-10.199999809265137,38.44391632080078,0,
 573818,-0.71044921875,-0.69384765625,-0.105224609375,6.890244007110596,33.75,-24.60365867614746,29.100000381469727,27.899999618530273,-10.199999809265137,38.587684631347656,0,
 573828,-0.7392578125,-0.7041015625,-0.105224609375,7.103658676147461,31.829269409179688,-20.213415145874023,29.100000381469727,29.850000381469727,-11.399999618530273,38.44391632080078,0,
 573838,-0.747802734375,-0.75634765625,-0.10009765625,6.8597564697265625,30.670732498168945,-15.82317066192627,29.399999618530273,31.200000762939453,-10.050000190734863,38.49183654785156,0,
 573848,-0.734375,-0.768310546875,-0.101318359375,5.762195110321045,28.93292808532715,-13.689024925231934,27.600000381469727,30.299999237060547,-10.649999618530273,38.587684631347656,0,
 573858,-0.71435546875,-0.763427734375,-0.105224609375,5.853658676147461,25.762195587158203,-12.012195587158203,27.600000381469727,30.299999237060547,-10.649999618530273,38.44391632080078,0,
 573868,-0.7060546875,-0.765625,-0.11962890625,7.134146690368652,21.524391174316406,-10.518293380737305,28.049999237060547,30.600000381469727,-12.449999809265137,38.300148010253906,0,
 573878,-0.714599609375,-0.754150390625,-0.12744140625,7.317073345184326,17.83536720275879,-8.262195587158203,27.299999237060547,29.399999618530273,-12.899999618530273,38.587684631347656,0,
 573888,-0.712646484375,-0.73583984375,-0.1357421875,8.567073822021484,15.853658676147461,-5.487804889678955,28.799999237060547,30.600000381469727,-9.899999618530273,38.49183654785156,0,
 573898,-0.700927734375,-0.744873046875,-0.15576171875,10.304878234863281,15.182927131652832,-2.0731706619262695,27.299999237060547,31.049999237060547,-11.699999809265137,38.587684631347656,0,
 573908,-0.683837890625,-0.797119140625,-0.163330078125,11.67682933807373,15.518293380737305,1.0060975551605225,26.850000381469727,31.350000381469727,-11.399999618530273,38.49183654785156,0,
 573918,-0.6513671875,-0.8408203125,-0.185791015625,11.737805366516113,14.359756469726562,2.8353660106658936,25.950000762939453,31.200000762939453,-13.5,38.395992279052734,0,
 573928,-0.636962890625,-0.843505859375,-0.1904296875,9.817073822021484,12.65243911743164,3.170731782913208,27.600000381469727,29.850000381469727,-10.949999809265137,38.587684631347656,0,
 573938,-0.641357421875,-0.829345703125,-0.201904296875,7.408536911010742,11.37195110321045,2.591463565826416,26.850000381469727,32.25,-12.149999618530273,38.44391632080078,0,
 573948,-0.637939453125,-0.803955078125,-0.2109375,6.432927131652832,12.560976028442383,1.8292683362960815,26.850000381469727,32.25,-12.149999618530273,38.25222396850586,0,
 573958,-0.620361328125,-0.79248046875,-0.209228515625,7.256097793579102,13.536585807800293,0.9756097793579102,26.700000762939453,28.5,-12.75,38.587684631347656,0,
 573968,-0.597412109375,-0.803466796875,-0.212890625,7.469512462615967,13.47560977935791,-0.4573170840740204,27.299999237060547,29.399999618530273,-10.949999809265137,38.49183654785156,0,
 573978,-0.563720703125,-0.802978515625,-0.217529296875,7.1646342277526855,11.829268455505371,-1.3719512224197388,29.100000381469727,31.350000381469727,-12.899999618530273,38.44391632080078,0,
 573988,-0.552978515625,-0.810791015625,-0.21630859375,6.615853786468506,9.085366249084473,-1.6158536672592163,29.100000381469727,31.350000381469727,-12.899999618530273,38.587684631347656,0,
 573998,-0.558349609375,-0.7890625,-0.233154296875,5.091463565826416,7.378048896789551,-0.792682945728302,26.549999237060547,30.299999237060547,-14.699999809265137,38.06053161621094,0,
 574008,-0.564697265625,-0.775634765625,-0.23095703125,4.29878044128418,7.256097793579102,-0.18292683362960815,26.25,29.700000762939453,-12.75,38.395992279052734,0,
 574018,-0.569091796875,-0.761474609375,-0.233154296875,4.969512462615967,7.9268293380737305,0.09146341681480408,26.100000381469727,30.299999237060547,-11.699999809265137,38.587684631347656,0,
 574028,-0.57763671875,-0.759521484375,-0.24267578125,6.036585330963135,8.262195587158203,1.25,26.549999237060547,31.799999237060547,-12.449999809265137,38.587684631347656,0,
 574038,-0.58154296875,-0.765625,-0.2509765625,6.036585330963135,9.115854263305664,1.9817073345184326,26.549999237060547,31.799999237060547,-12.449999809265137,38.49183654785156,0,
 574048,-0.576904296875,-0.78466796875,-0.258056640625,4.146341323852539,10.15243911743164,3.170731782913208,28.649999618530273,29.25,-12.300000190734863,38.587684631347656,0,
 574058,-0.5771484375,-0.783203125,-0.27001953125,1.3414634466171265,12.103658676147461,3.628048896789551,28.200000762939453,33.150001525878906,-15.0,38.49183654785156,0,
 574068,-0.572509765625,-0.7685546875,-0.26416015625,0.3353658616542816,13.47560977935791,4.45121955871582,26.25,28.799999237060547,-11.550000190734863,38.63560485839844,0,
 574078,-0.5693359375,-0.77783203125,-0.2705078125,0.8536585569381714,14.237805366516113,3.4146342277526855,26.25,28.799999237060547,-11.550000190734863,38.587684631347656,0,
 574088,-0.55712890625,-0.795654296875,-0.2744140625,0.0,14.481707572937012,1.2195122241973877,27.0,30.75,-13.050000190734863,38.63560485839844,0,
 574098,-0.5595703125,-0.806640625,-0.273193359375,-1.6463414430618286,14.57317066192627,-0.21341463923454285,27.0,29.700000762939453,-12.0,38.395992279052734,0,
 574108,-0.564208984375,-0.821044921875,-0.276611328125,-4.420732021331787,14.84756088256836,-1.5243902206420898,26.850000381469727,28.649999618530273,-12.899999618530273,38.44391632080078,0,
 574118,-0.57275390625,-0.802734375,-0.259765625,-6.067073345184326,15.396342277526855,-2.2560975551605225,26.850000381469727,28.649999618530273,-12.899999618530273,38.587684631347656,0,
 574128,-0.57568359375,-0.79541015625,-0.246337890625,-7.713414669036865,16.128049850463867,-4.115853786468506,26.850000381469727,31.049999237060547,-11.699999809265137,38.44391632080078,0,
 574138,-0.58056640625,-0.786376953125,-0.240478515625,-8.414634704589844,15.914634704589844,-5.091463565826416,27.450000762939453,30.75,-12.75,38.587684631347656,0,
 574148,-0.58251953125,-0.784423828125,-0.230224609375,-9.17682933807373,15.335366249084473,-5.884146690368652,27.450000762939453,29.700000762939453,-10.800000190734863,38.25222396850586,0,
 574158,-0.5830078125,-0.775634765625,-0.22802734375,-10.42682933807373,14.664634704589844,-5.3353657722473145,26.549999237060547,31.350000381469727,-14.399999618530273,38.63560485839844,0,
 574168,-0.5849609375,-0.76513671875,-0.206298828125,-11.981707572937012,14.29878044128418,-4.512195110321045,26.549999237060547,31.350000381469727,-14.399999618530273,38.587684631347656,0,
 574178,-0.5849609375,-0.75830078125,-0.192138671875,-12.865854263305664,13.658536911010742,-3.47560977935791,26.25,29.700000762939453,-10.800000190734863,38.587684631347656,0,
 574188,-0.578857421875,-0.758544921875,-0.181884765625,-13.20121955871582,13.109756469726562,-3.567073345184326,25.950000762939453,29.700000762939453,-12.0,38.44391632080078,0,
 574198,-0.564208984375,-0.771240234375,-0.161376953125,-12.896341323852539,12.896341323852539,-4.542683124542236,25.5,30.0,-12.0,38.44391632080078,0,
 574208,-0.560302734375,-0.7763671875,-0.153076171875,-12.256097793579102,11.341464042663574,-5.884146690368652,25.5,30.0,-12.0,38.77937698364258,0,
 574218,-0.567626953125,-0.782958984375,-0.134033203125,-11.646341323852539,10.457317352294922,-7.134146690368652,26.25,30.0,-12.300000190734863,38.77937698364258,0,
 574228,-0.569580078125,-0.76123046875,-0.12451171875,-11.554878234863281,9.695121765136719,-8.079268455505371,24.899999618530273,31.049999237060547,-11.699999809265137,38.587684631347656,0,
 574238,-0.564697265625,-0.760986328125,-0.1162109375,-11.158536911010742,8.993902206420898,-7.621951580047607,25.950000762939453,29.700000762939453,-12.300000190734863,38.587684631347656,0,
 574248,-0.551513671875,-0.757080078125,-0.098388671875,-9.29878044128418,8.20121955871582,-8.32317066192627,25.950000762939453,29.700000762939453,-12.300000190734863,38.25222396850586,0,
 574258,-0.53369140625,-0.75830078125,-0.095458984375,-7.103658676147461,7.652439117431641,-9.085366249084473,25.649999618530273,30.299999237060547,-12.149999618530273,38.63560485839844,0,
 574268,-0.521728515625,-0.75927734375,-0.08544921875,-4.329268455505371,6.128048896789551,-9.664634704589844,27.600000381469727,30.299999237060547,-13.199999809265137,38.63560485839844,0,
 574278,-0.508056640625,-0.75830078125,-0.0830078125,-2.5,4.542683124542236,-10.304878234863281,25.950000762939453,31.649999618530273,-12.300000190734863,38.49183654785156,0,
 574288,-0.49658203125,-0.76416015625,-0.0673828125,-0.396341472864151,2.2865853309631348,-10.182927131652832,26.549999237060547,30.600000381469727,-12.149999618530273,38.63560485839844,0,
 574298,-0.4814453125,-0.767578125,-0.060791015625,2.2560975551605225,-0.3353658616542816,-12.103658676147461,26.549999237060547,30.600000381469727,-12.149999618530273,38.300148010253906,0,
 574308,-0.473388671875,-0.771240234375,-0.062255859375,6.737804889678955,-2.77439022064209,-16.463415145874023,25.5,29.700000762939453,-10.5,38.587684631347656,0,
 574318,-0.463134765625,-0.77880859375,-0.070068359375,11.25,-5.304878234863281,-21.615854263305664,25.5,30.0,-12.300000190734863,38.587684631347656,0,
 574328,-0.4580078125,-0.775634765625,-0.064453125,14.84756088256836,-8.04878044128418,-25.457317352294922,25.350000381469727,30.299999237060547,-11.399999618530273,38.587684631347656,0,
 574338,-0.44921875,-0.757080078125,-0.065673828125,17.774391174316406,-11.554878234863281,-28.262195587158203,25.350000381469727,30.299999237060547,-11.399999618530273,38.49183654785156,0,
 574348,-0.448974609375,-0.74365234375,-0.08154296875,18.628049850463867,-15.884146690368652,-28.35365867614746,25.350000381469727,29.850000381469727,-11.399999618530273,38.25222396850586,0,
 574358,-0.46923828125,-0.7158203125,-0.092529296875,20.15243911743164,-20.457317352294922,-26.40243911743164,24.75,29.700000762939453,-12.0,38.49183654785156,0,
 574368,-0.494140625,-0.70849609375,-0.09619140625,22.10365867614746,-23.140243530273438,-24.268293380737305,24.75,29.25,-15.300000190734863,38.395992279052734,0,
 574379,-0.52490234375,-0.71533203125,-0.119384765625,24.542682647705078,-23.963415145874023,-21.79878044128418,24.75,29.25,-15.300000190734863,38.300148010253906,0,
 574389,-0.547119140625,-0.747314453125,-0.133544921875,27.43902587890625,-22.560976028442383,-19.908536911010742,23.25,30.450000762939453,-13.5,38.587684631347656,0,
 574399,-0.55419921875,-0.778564453125,-0.16455078125,29.024391174316406,-20.70121955871582,-18.567073822021484,22.649999618530273,29.850000381469727,-12.449999809265137,38.63560485839844,0,
 574409,-0.532958984375,-0.81103515625,-0.177001953125,25.792682647705078,-18.90243911743164,-14.969512939453125,22.5,30.0,-13.5,38.587684631347656,0,
 574419,-0.52783203125,-0.843505859375,-0.18359375,23.59756088256836,-20.213415145874023,-13.292683601379395,22.049999237060547,30.450000762939453,-14.25,38.44391632080078,0,
 574429,-0.52099609375,-0.841796875,-0.191162109375,21.310976028442383,-22.317073822021484,-12.560976028442383,22.049999237060547,30.450000762939453,-14.25,38.587684631347656,0,
 574439,-0.51416015625,-0.8349609375,-0.19140625,20.2439022064209,-24.45121955871582,-11.37195110321045,22.5,30.450000762939453,-15.0,38.44391632080078,0,
 574449,-0.547119140625,-0.821044921875,-0.21484375,19.908536911010742,-24.115854263305664,-10.335366249084473,22.5,30.0,-13.050000190734863,38.63560485839844,0,
 574459,-0.58740234375,-0.81640625,-0.228271484375,20.15243911743164,-22.225610733032227,-8.170731544494629,23.25,30.0,-13.800000190734863,38.49183654785156,0,
 574469,-0.61376953125,-0.8388671875,-0.25048828125,18.75,-19.05487823486328,-5.731707572937012,23.25,30.0,-13.800000190734863,38.44391632080078,0,
 574479,-0.62939453125,-0.8818359375,-0.264892578125,15.27439022064209,-15.945122718811035,-4.29878044128418,23.549999237060547,30.450000762939453,-13.5,38.44391632080078,0,
 574489,-0.636474609375,-0.8984375,-0.2783203125,11.006097793579102,-12.713415145874023,-3.4146342277526855,22.200000762939453,31.799999237060547,-15.149999618530273,38.49183654785156,0,
 574499,-0.63623046875,-0.910888671875,-0.281494140625,7.256097793579102,-9.237805366516113,-3.1097562313079834,23.850000381469727,31.049999237060547,-12.449999809265137,38.49183654785156,0,
 574509,-0.636962890625,-0.905029296875,-0.287109375,3.5975611209869385,-5.609755992889404,-3.3841464519500732,23.850000381469727,31.049999237060547,-12.449999809265137,38.587684631347656,0,
 574519,-0.626708984375,-0.90283203125,-0.28662109375,0.6097561120986938,-3.079268455505371,-3.4146342277526855,22.799999237060547,30.75,-15.300000190734863,38.587684631347656,0,
 574529,-0.609130859375,-0.88818359375,-0.280517578125,-2.591463565826416,-0.8841463327407837,-3.170731782913208,21.0,31.200000762939453,-13.5,38.63560485839844,0,
 574539,-0.5888671875,-0.87060546875,-0.2783203125,-4.02439022064209,-0.7317073345184326,-2.896341562271118,21.299999237060547,30.75,-13.5,38.300148010253906,0,
 574549,-0.574951171875,-0.857666015625,-0.273681640625,-5.731707572937012,-0.3658536672592163,-1.8292683362960815,20.700000762939453,31.799999237060547,-15.449999809265137,38.683528900146484,0,
 574559,-0.578857421875,-0.852783203125,-0.274169921875,-7.804878234863281,-0.060975611209869385,-0.4878048896789551,20.700000762939453,31.799999237060547,-15.449999809265137,38.587684631347656,0,
 574569,-0.5732421875,-0.837158203125,-0.265625,-8.963415145874023,0.7012194991111755,1.3109756708145142,22.049999237060547,32.849998474121094,-14.25,38.44391632080078,0,
 574579,-0.55224609375,-0.837890625,-0.255126953125,-10.12195110321045,1.737804889678955,2.012195110321045,19.799999237060547,32.400001525878906,-14.25,38.587684631347656,0,
 574589,-0.551025390625,-0.835205078125,-0.25244140625,-11.493903160095215,2.5609755516052246,2.5304877758026123,20.700000762939453,30.299999237060547,-12.899999618530273,38.587684631347656,0,
 574599,-0.5419921875,-0.82666015625,-0.248046875,-13.079268455505371,3.1097562313079834,3.079268455505371,20.700000762939453,30.299999237060547,-12.899999618530273,38.44391632080078,0,
 574609,-0.53173828125,-0.826904296875,-0.24462890625,-13.719512939453125,4.603658676147461,3.5365853309631348,23.25,30.0,-12.75,38.587684631347656,0,
 574619,-0.533447265625,-0.824951171875,-0.23388671875,-15.030488014221191,5.670732021331787,3.9634146690368652,21.0,31.950000762939453,-12.0,38.49183654785156,0,
 574629,-0.527099609375,-0.830078125,-0.223388671875,-15.914634704589844,6.95121955871582,3.7804877758026123,21.0,31.649999618530273,-13.050000190734863,38.49183654785156,0,
 574639,-0.520751953125,-0.840087890625,-0.208740234375,-16.4939022064209,8.140244483947754,3.8719513416290283,21.0,31.649999618530273,-13.050000190734863,38.395992279052734,0,
 574649,-0.514892578125,-0.83837890625,-0.194580078125,-16.585365295410156,9.17682933807373,3.1097562313079834,22.649999618530273,32.54999923706055,-11.699999809265137,38.587684631347656,0,
 574659,-0.5087890625,-0.83154296875,-0.180908203125,-17.2560977935791,9.359756469726562,2.4695122241973877,23.25,31.649999618530273,-12.75,38.587684631347656,0,
 574669,-0.51171875,-0.827880859375,-0.1708984375,-17.80487823486328,10.670731544494629,2.408536672592163,21.899999618530273,30.600000381469727,-11.699999809265137,38.300148010253906,0,
 574679,-0.51025390625,-0.8203125,-0.1533203125,-17.957317352294922,11.646341323852539,2.5609755516052246,21.75,28.799999237060547,-13.050000190734863,38.587684631347656,0,
 574689,-0.5,-0.819091796875,-0.144775390625,-17.19512176513672,12.103658676147461,2.7134146690368652,21.75,28.799999237060547,-13.050000190734863,38.395992279052734,0,
 574699,-0.49658203125,-0.80859375,-0.135009765625,-16.4939022064209,12.77439022064209,2.4390244483947754,21.75,31.649999618530273,-13.050000190734863,38.49183654785156,0,
 574709,-0.48486328125,-0.808837890625,-0.12451171875,-14.908536911010742,13.109756469726562,2.0426828861236572,21.899999618530273,30.600000381469727,-12.149999618530273,38.49183654785156,0,
 574719,-0.492431640625,-0.81396484375,-0.12451171875,-13.170731544494629,13.079268455505371,1.6463414430618286,21.149999618530273,31.049999237060547,-13.199999809265137,38.587684631347656,0,
 574729,-0.486328125,-0.814697265625,-0.114501953125,-12.256097793579102,12.317073822021484,0.3048780560493469,21.149999618530273,31.049999237060547,-13.199999809265137,38.63560485839844,0,
 574739,-0.490966796875,-0.80712890625,-0.11474609375,-11.25,11.52439022064209,-0.15243902802467346,21.299999237060547,30.0,-13.050000190734863,38.25222396850586,0,
 574749,-0.498046875,-0.801025390625,-0.1181640625,-10.365854263305664,10.243902206420898,-0.8231707215309143,21.299999237060547,30.75,-12.0,38.587684631347656,0,
 574759,-0.500244140625,-0.802734375,-0.110107421875,-9.29878044128418,9.603658676147461,-1.0060975551605225,22.799999237060547,31.200000762939453,-11.550000190734863,38.49183654785156,0,
 574769,-0.501953125,-0.80126953125,-0.108154296875,-8.04878044128418,8.658536911010742,-1.6768293380737305,22.799999237060547,31.200000762939453,-11.550000190734863,38.300148010253906,0,
 574779,-0.50341796875,-0.8017578125,-0.106689453125,-7.286585330963135,7.530488014221191,-1.8902438879013062,23.100000381469727,31.049999237060547,-15.149999618530273,38.49183654785156,0,
 574789,-0.503662109375,-0.797607421875,-0.107666015625,-6.7682929039001465,6.341463565826416,-1.7987805604934692,21.0,31.200000762939453,-12.75,38.15637969970703,0,
 574799,-0.505859375,-0.795166015625,-0.10693359375,-5.731707572937012,5.091463565826416,-1.4634146690368652,23.850000381469727,31.049999237060547,-11.399999618530273,38.683528900146484,0,
 574809,-0.51220703125,-0.792724609375,-0.109375,-4.817073345184326,2.987804889678955,-1.2195122241973877,19.799999237060547,30.0,-10.5,38.587684631347656,0,
 574819,-0.520751953125,-0.800048828125,-0.11279296875,-4.207317352294922,1.2195122241973877,-0.21341463923454285,19.799999237060547,30.0,-10.5,38.587684631347656,0,
 574829,-0.53173828125,-0.79931640625,-0.11328125,-3.5975611209869385,0.27439025044441223,0.09146341681480408,22.049999237060547,31.649999618530273,-12.300000190734863,38.63560485839844,0,
 574839,-0.53955078125,-0.80419921875,-0.123779296875,-3.0487804412841797,0.09146341681480408,0.6707317233085632,22.200000762939453,32.25,-11.699999809265137,38.587684631347656,0,
 574849,-0.536865234375,-0.802978515625,-0.120849609375,-2.5304877758026123,0.18292683362960815,0.030487805604934692,21.149999618530273,29.850000381469727,-11.699999809265137,38.300148010253906,0,
 574859,-0.529052734375,-0.80419921875,-0.1337890625,-1.3414634466171265,0.4878048896789551,-0.8536585569381714,21.149999618530273,29.850000381469727,-11.699999809265137,38.300148010253906,0,
 574869,-0.529296875,-0.806640625,-0.136474609375,-0.030487805604934692,-0.6097561120986938,-0.9451219439506531,22.049999237060547,30.75,-11.550000190734863,38.395992279052734,0,
 574879,-0.528564453125,-0.810546875,-0.14306640625,0.24390244483947754,-1.7987805604934692,-0.5487805008888245,24.450000762939453,30.75,-15.300000190734863,38.25222396850586,0,
 574889,-0.5322265625,-0.802734375,-0.148193359375,0.7621951103210449,-2.8353660106658936,0.18292683362960815,21.899999618530273,30.600000381469727,-12.149999618530273,38.63560485839844,0,
 574899,-0.542724609375,-0.810546875,-0.15966796875,1.3414634466171265,-3.9024391174316406,0.8536585569381714,22.200000762939453,31.799999237060547,-12.449999809265137,38.683528900146484,0,
 574909,-0.5419921875,-0.821044921875,-0.1708984375,1.6768293380737305,-4.512195110321045,0.5182926654815674,21.899999618530273,30.600000381469727,-13.649999618530273,38.587684631347656,0,
 574919,-0.544189453125,-0.82666015625,-0.1767578125,1.6463414430618286,-4.756097793579102,0.3353658616542816,21.0,30.75,-11.25,38.395992279052734,0,
 574929,-0.545166015625,-0.829833984375,-0.182373046875,1.8902438879013062,-4.878048896789551,0.18292683362960815,22.799999237060547,30.75,-12.300000190734863,38.25222396850586,0,
 574939,-0.543701171875,-0.83203125,-0.1845703125,1.6768293380737305,-5.182927131652832,0.3048780560493469,21.149999618530273,31.799999237060547,-12.149999618530273,38.49183654785156,0,
 574949,-0.544921875,-0.83056640625,-0.193115234375,1.920731782913208,-5.792683124542236,0.9756097793579102,21.149999618530273,31.799999237060547,-12.149999618530273,38.587684631347656,0,
 574959,-0.5517578125,-0.82421875,-0.19970703125,1.7987805604934692,-5.884146690368652,1.7987805604934692,21.899999618530273,29.850000381469727,-11.699999809265137,38.587684631347656,0,
 574969,-0.555419921875,-0.813232421875,-0.209228515625,1.432926893234253,-5.091463565826416,2.9573171138763428,22.799999237060547,30.75,-11.25,38.300148010253906,0,
 574979,-0.560302734375,-0.8154296875,-0.21044921875,1.1890244483947754,-3.9024391174316406,3.7804877758026123,21.299999237060547,33.599998474121094,-13.050000190734863,38.300148010253906,0,
 574989,-0.560302734375,-0.81396484375,-0.216552734375,0.7621951103210449,-2.896341562271118,3.9634146690368652,21.299999237060547,33.599998474121094,-13.050000190734863,38.77937698364258,0,
 574999,-0.549072265625,-0.822265625,-0.2314453125,0.396341472864151,-2.5609755516052246,4.207317352294922,23.850000381469727,30.600000381469727,-12.449999809265137,38.44391632080078,0,
 575009,-0.5400390625,-0.82373046875,-0.225830078125,-0.4878048896789551,-2.5609755516052246,4.634146213531494,22.5,31.200000762939453,-11.25,38.300148010253906,0,
 575019,-0.537109375,-0.80517578125,-0.226806640625,-0.6097561120986938,-2.3475611209869385,5.54878044128418,21.899999618530273,31.799999237060547,-11.699999809265137,38.44391632080078,0,
 575029,-0.53271484375,-0.81298828125,-0.2314453125,-0.7317073345184326,-2.408536672592163,6.006097793579102,21.75,31.200000762939453,-12.0,38.300148010253906,0,
 575039,-0.5224609375,-0.8154296875,-0.238037109375,-0.9146341681480408,-2.103658676147461,5.792683124542236,22.799999237060547,31.200000762939453,-12.300000190734863,38.44391632080078,0,
 575049,-0.5166015625,-0.813720703125,-0.239990234375,-0.9756097793579102,-1.920731782913208,5.365853786468506,20.700000762939453,33.0,-12.149999618530273,38.49183654785156,0,
 575059,-0.5166015625,-0.80908203125,-0.244140625,-1.5548781156539917,-1.5548781156539917,5.457317352294922,22.649999618530273,31.049999237060547,-11.699999809265137,38.44391632080078,0,
 575069,-0.515869140625,-0.80517578125,-0.24609375,-1.6463414430618286,-1.402438998222351,5.945122241973877,22.049999237060547,31.200000762939453,-12.0,38.300148010253906,0,
 575079,-0.51611328125,-0.815673828125,-0.245361328125,-1.9512195587158203,-0.5487805008888245,6.128048896789551,22.049999237060547,31.200000762939453,-12.0,38.300148010253906,0,
 575089,-0.520263671875,-0.82861328125,-0.24658203125,-2.317073106765747,0.6097561120986938,5.365853786468506,21.899999618530273,29.850000381469727,-13.199999809265137,38.63560485839844,0,
 575099,-0.525634765625,-0.830810546875,-0.244384765625,-2.6219513416290283,1.8597561120986938,4.115853786468506,23.399999618530273,30.600000381469727,-13.199999809265137,38.49183654785156,0,
 575109,-0.519775390625,-0.82958984375,-0.24560546875,-2.682926893234253,3.2317073345184326,3.0182926654815674,21.75,32.400001525878906,-10.5,38.395992279052734,0,
 575119,-0.51611328125,-0.8349609375,-0.23974609375,-3.0487804412841797,5.5182929039001465,2.103658676147461,21.75,32.400001525878906,-10.5,38.63560485839844,0,
 575129,-0.514404296875,-0.834228515625,-0.238525390625,-3.1402440071105957,6.463414669036865,1.5243902206420898,22.799999237060547,30.450000762939453,-13.050000190734863,38.395992279052734,0,
 575139,-0.510986328125,-0.816162109375,-0.234130859375,-3.9024391174316406,7.347561359405518,1.0670732259750366,22.049999237060547,29.700000762939453,-12.300000190734863,38.587684631347656,0,
 575149,-0.505859375,-0.814208984375,-0.229248046875,-3.658536672592163,7.682927131652832,0.6402438879013062,22.799999237060547,30.75,-11.550000190734863,38.395992279052734,0,
 575159,-0.505126953125,-0.815185546875,-0.22265625,-3.841463565826416,8.079268455505371,0.4573170840740204,22.5,31.200000762939453,-13.050000190734863,38.49183654785156,0,
 575169,-0.514404296875,-0.814453125,-0.215087890625,-3.47560977935791,7.9268293380737305,0.15243902802467346,22.649999618530273,30.299999237060547,-12.899999618530273,38.587684631347656,0,
 575180,-0.50537109375,-0.804443359375,-0.214111328125,-3.6890244483947754,7.835366249084473,-0.21341463923454285,22.5,31.200000762939453,-12.75,38.395992279052734,0,
 575190,-0.508056640625,-0.80029296875,-0.209716796875,-4.359755992889404,7.439024448394775,-0.5792682766914368,24.600000381469727,30.600000381469727,-16.200000762939453,38.300148010253906,0,
 575200,-0.512939453125,-0.804443359375,-0.213134765625,-4.0853657722473145,7.195122241973877,-0.3658536672592163,23.25,30.75,-11.550000190734863,38.395992279052734,0,
 575210,-0.52587890625,-0.810546875,-0.2099609375,-3.841463565826416,7.195122241973877,-0.4878048896789551,23.25,30.75,-11.550000190734863,38.49183654785156,0,
 575220,-0.531982421875,-0.810302734375,-0.209228515625,-4.2682929039001465,7.256097793579102,-0.6707317233085632,23.399999618530273,31.350000381469727,-12.449999809265137,38.63560485839844,0,
 575230,-0.533203125,-0.810302734375,-0.201416015625,-4.908536911010742,7.530488014221191,-0.3658536672592163,21.899999618530273,29.850000381469727,-12.899999618530273,38.300148010253906,0,
 575240,-0.526611328125,-0.806396484375,-0.20751953125,-5.121951103210449,7.713414669036865,-0.396341472864151,22.649999618530273,31.799999237060547,-11.699999809265137,38.44391632080078,0,
 575250,-0.528076171875,-0.807861328125,-0.197998046875,-5.945122241973877,8.079268455505371,-0.3658536672592163,22.649999618530273,31.799999237060547,-11.699999809265137,38.587684631347656,0,
 575260,-0.52685546875,-0.81103515625,-0.19287109375,-5.213414669036865,7.682927131652832,-0.6402438879013062,22.049999237060547,31.200000762939453,-11.550000190734863,38.49183654785156,0,
 575270,-0.522705078125,-0.812255859375,-0.1826171875,-5.792683124542236,7.347561359405518,-0.792682945728302,21.75,30.75,-11.550000190734863,38.300148010253906,0,
 575280,-0.5302734375,-0.810546875,-0.183349609375,-5.457317352294922,6.7682929039001465,-1.3414634466171265,23.100000381469727,31.350000381469727,-12.449999809265137,38.44391632080078,0,
 575290,-0.530029296875,-0.813720703125,-0.179443359375,-5.365853786468506,6.067073345184326,-1.8292683362960815,24.600000381469727,30.299999237060547,-16.200000762939453,38.300148010253906,0,
 575300,-0.526123046875,-0.809814453125,-0.178466796875,-5.182927131652832,5.670732021331787,-1.6463414430618286,24.600000381469727,30.299999237060547,-16.200000762939453,38.44391632080078,0,
 575310,-0.5185546875,-0.80517578125,-0.17236328125,-5.792683124542236,5.0,-1.3719512224197388,24.450000762939453,31.649999618530273,-12.0,38.395992279052734,0,
 575320,-0.520751953125,-0.8046875,-0.158935546875,-5.396341800689697,2.5304877758026123,-0.4268292784690857,24.450000762939453,28.799999237060547,-12.0,38.300148010253906,0,
 575330,-0.532470703125,-0.802490234375,-0.158203125,-4.5731706619262695,1.4634146690368652,-0.21341463923454285,22.649999618530273,32.25,-10.949999809265137,38.44391632080078,0,
 575340,-0.544921875,-0.803955078125,-0.161376953125,-3.7804877758026123,1.432926893234253,-0.3658536672592163,22.649999618530273,32.25,-10.949999809265137,38.49183654785156,0,
 575350,-0.54150390625,-0.801513671875,-0.156494140625,-3.567073345184326,1.402438998222351,0.3353658616542816,22.200000762939453,29.850000381469727,-12.149999618530273,38.587684631347656,0,
 575360,-0.539306640625,-0.804931640625,-0.16259765625,-2.987804889678955,1.1280487775802612,0.4878048896789551,24.0,30.0,-12.0,38.587684631347656,0,
 575370,-0.53125,-0.807861328125,-0.1572265625,-2.408536672592163,0.060975611209869385,0.792682945728302,21.299999237060547,31.649999618530273,-10.050000190734863,38.300148010253906,0,
 575380,-0.527099609375,-0.80322265625,-0.161376953125,-2.012195110321045,-0.4573170840740204,0.9756097793579102,21.299999237060547,31.649999618530273,-10.050000190734863,38.587684631347656,0,
 575390,-0.532958984375,-0.796875,-0.15673828125,-1.402438998222351,-1.3719512224197388,1.6768293380737305,23.25,33.599998474121094,-14.550000190734863,38.587684631347656,0,
 575400,-0.5322265625,-0.790771484375,-0.1591796875,-0.3353658616542816,-1.5548781156539917,1.9512195587158203,22.049999237060547,32.849998474121094,-11.25,38.49183654785156,0,
 575410,-0.525390625,-0.799072265625,-0.1669921875,1.0365853309631348,-2.1646342277526855,1.5243902206420898,21.75,30.75,-11.550000190734863,38.44391632080078,0,
 575420,-0.5283203125,-0.80029296875,-0.167236328125,1.4634146690368652,-2.408536672592163,1.1585365533828735,23.100000381469727,32.25,-13.199999809265137,38.300148010253906,0,
 575430,-0.52685546875,-0.796630859375,-0.173583984375,2.6524391174316406,-2.896341562271118,1.1585365533828735,23.100000381469727,32.25,-13.199999809265137,38.63560485839844,0,
 575440,-0.525390625,-0.791259765625,-0.173095703125,3.1097562313079834,-3.1402440071105957,1.402438998222351,21.450000762939453,32.25,-11.399999618530273,38.300148010253906,0,
 575450,-0.532470703125,-0.798583984375,-0.185791015625,3.3841464519500732,-3.7195122241973877,2.5304877758026123,22.649999618530273,30.299999237060547,-11.399999618530273,38.300148010253906,0,
 575460,-0.530029296875,-0.789794921875,-0.18994140625,3.9634146690368652,-3.7195122241973877,2.9573171138763428,23.100000381469727,30.600000381469727,-11.399999618530273,38.683528900146484,0,
 575470,-0.5244140625,-0.7978515625,-0.198486328125,4.481707572937012,-3.932926893234253,2.865853786468506,23.100000381469727,30.600000381469727,-11.399999618530273,38.395992279052734,0,
 575480,-0.523681640625,-0.800048828125,-0.200927734375,4.5731706619262695,-4.02439022064209,2.4390244483947754,22.049999237060547,31.649999618530273,-12.300000190734863,38.300148010253906,0,
 575490,-0.532958984375,-0.811279296875,-0.208251953125,5.182927131652832,-3.5975611209869385,1.8292683362960815,21.450000762939453,32.25,-12.149999618530273,38.683528900146484,0,
 575500,-0.525634765625,-0.8056640625,-0.2158203125,4.878048896789551,-3.841463565826416,1.5548781156539917,22.5,30.0,-13.050000190734863,38.49183654785156,0,
 575510,-0.526123046875,-0.802001953125,-0.21533203125,5.030488014221191,-3.6890244483947754,1.7682926654815674,22.5,30.0,-13.050000190734863,38.44391632080078,0,
 575520,-0.528564453125,-0.79833984375,-0.228759765625,4.72560977935791,-3.5975611209869385,2.2560975551605225,23.25,29.25,-10.050000190734863,38.44391632080078,0,
 575530,-0.530517578125,-0.80615234375,-0.220947265625,4.969512462615967,-3.628048896789551,1.9512195587158203,22.799999237060547,31.200000762939453,-9.75,38.49183654785156,0,
 575540,-0.536376953125,-0.81591796875,-0.236572265625,4.878048896789551,-3.9634146690368652,2.317073106765747,23.399999618530273,30.299999237060547,-12.449999809265137,38.63560485839844,0,
 575550,-0.54052734375,-0.830322265625,-0.239990234375,5.182927131652832,-3.4146342277526855,1.5548781156539917,23.100000381469727,30.299999237060547,-10.949999809265137,38.683528900146484,0,
 575560,-0.54443359375,-0.826904296875,-0.23876953125,4.756097793579102,-2.865853786468506,0.7621951103210449,23.100000381469727,30.299999237060547,-10.949999809265137,38.63560485839844,0,
 575570,-0.5478515625,-0.8203125,-0.245849609375,3.841463565826416,-2.0731706619262695,0.4573170840740204,23.399999618530273,30.600000381469727,-10.949999809265137,38.25222396850586,0,
 575580,-0.550537109375,-0.819580078125,-0.244384765625,3.47560977935791,-1.3719512224197388,0.060975611209869385,23.850000381469727,30.299999237060547,-11.399999618530273,38.44391632080078,0,
 575590,-0.548095703125,-0.8193359375,-0.2431640625,2.987804889678955,-0.6707317233085632,0.030487805604934692,22.649999618530273,33.45000076293945,-11.399999618530273,38.587684631347656,0,
 575600,-0.53662109375,-0.8154296875,-0.238037109375,2.2560975551605225,0.0,0.3353658616542816,22.649999618530273,33.45000076293945,-11.399999618530273,38.587684631347656,0,
 575610,-0.5283203125,-0.82568359375,-0.23291015625,1.8292683362960815,0.4268292784690857,-0.060975611209869385,21.899999618530273,31.350000381469727,-12.149999618530273,38.587684631347656,0,
 575620,-0.5166015625,-0.822265625,-0.235595703125,1.0365853309631348,0.15243902802467346,-1.2804877758026123,23.549999237060547,31.649999618530273,-12.300000190734863,38.15637969970703,0,
 575630,-0.509765625,-0.83056640625,-0.23095703125,-0.27439025044441223,0.24390244483947754,-2.7439024448394775,23.850000381469727,30.600000381469727,-10.949999809265137,38.44391632080078,0,
 575640,-0.5,-0.81640625,-0.216064453125,-1.432926893234253,0.15243902802467346,-4.115853786468506,23.850000381469727,30.600000381469727,-10.949999809265137,38.587684631347656,0,
 575650,-0.499755859375,-0.793701171875,-0.201904296875,-3.1402440071105957,0.09146341681480408,-5.27439022064209,23.850000381469727,31.049999237060547,-10.649999618530273,38.587684631347656,0,
 575660,-0.489013671875,-0.7919921875,-0.177978515625,-3.9024391174316406,-0.15243902802467346,-6.036585330963135,23.100000381469727,32.25,-12.899999618530273,38.587684631347656,0,
 575670,-0.462646484375,-0.803466796875,-0.1552734375,-4.237804889678955,-0.8841463327407837,-7.195122241973877,23.399999618530273,31.799999237060547,-12.149999618530273,38.25222396850586,0,
 575680,-0.44677734375,-0.821044921875,-0.125732421875,-3.7804877758026123,-2.865853786468506,-10.457317352294922,22.649999618530273,31.049999237060547,-12.449999809265137,38.587684631347656,0,
 575690,-0.4228515625,-0.802490234375,-0.101806640625,-2.2560975551605225,-5.945122241973877,-14.72560977935791,22.649999618530273,31.049999237060547,-12.449999809265137,38.44391632080078,0,
 575700,-0.416015625,-0.798828125,-0.076171875,0.21341463923454285,-9.817073822021484,-19.024391174316406,22.5,30.0,-18.0,38.63560485839844,0,
 575710,-0.426513671875,-0.7841796875,-0.070068359375,2.865853786468506,-13.62804889678955,-22.317073822021484,23.549999237060547,31.649999618530273,-12.0,38.587684631347656,0,
 575720,-0.440673828125,-0.779296875,-0.06103515625,5.304878234863281,-17.073171615600586,-23.75,21.450000762939453,29.850000381469727,-11.399999618530273,38.108455657958984,0,
 575730,-0.447021484375,-0.77978515625,-0.061767578125,8.04878044128418,-19.78658676147461,-23.719512939453125,21.450000762939453,29.850000381469727,-11.399999618530273,38.587684631347656,0,
 575740,-0.447021484375,-0.797607421875,-0.06494140625,10.518293380737305,-21.310976028442383,-22.865854263305664,21.899999618530273,30.600000381469727,-11.699999809265137,38.300148010253906,0,
 575750,-0.45263671875,-0.826904296875,-0.056884765625,13.75,-22.164634704589844,-23.170732498168945,20.700000762939453,30.299999237060547,-13.649999618530273,38.587684631347656,0,
 575760,-0.438720703125,-0.836181640625,-0.066162109375,15.97560977935791,-22.378049850463867,-23.658536911010742,23.100000381469727,31.799999237060547,-12.899999618530273,38.587684631347656,0,
 575770,-0.419921875,-0.86376953125,-0.05859375,16.768293380737305,-22.5,-24.664634704589844,23.100000381469727,31.799999237060547,-12.899999618530273,38.300148010253906,0,
 575780,-0.392333984375,-0.86962890625,-0.0537109375,18.963415145874023,-23.841463088989258,-31.95121955871582,21.450000762939453,31.049999237060547,-11.699999809265137,38.44391632080078,0,
 575790,-0.354736328125,-0.876708984375,-0.032958984375,19.969512939453125,-25.274391174316406,-36.25,19.649999618530273,33.0,-11.699999809265137,38.395992279052734,0,
 575800,-0.363525390625,-0.8251953125,-0.031494140625,21.03658676147461,-27.164634704589844,-38.38414764404297,19.649999618530273,33.45000076293945,-13.949999809265137,38.49183654785156,0,
 575810,-0.34423828125,-0.795166015625,-0.008544921875,23.841463088989258,-28.90243911743164,-38.99390411376953,19.649999618530273,31.350000381469727,-12.449999809265137,38.25222396850586,0,
 575820,-0.342041015625,-0.79296875,-0.015380859375,28.38414764404297,-30.30487823486328,-40.64024353027344,19.649999618530273,31.350000381469727,-12.449999809265137,38.587684631347656,0,
 575830,-0.329833984375,-0.80224609375,-0.013427734375,31.463415145874023,-30.2439022064209,-43.963417053222656,18.299999237060547,31.200000762939453,-12.300000190734863,38.49183654785156,0,
 575840,-0.328857421875,-0.81201171875,-0.013916015625,34.26829528808594,-29.14634132385254,-48.99390411376953,17.850000381469727,34.04999923706055,-12.300000190734863,38.49183654785156,0,
 575850,-0.316650390625,-0.841796875,-0.020263671875,38.353660583496094,-26.768293380737305,-55.0,18.299999237060547,30.75,-12.75,38.49183654785156,0,
 575860,-0.289794921875,-0.8583984375,-0.034423828125,41.34146499633789,-25.060976028442383,-62.560977935791016,18.299999237060547,30.75,-12.75,38.44391632080078,0,
 575870,-0.23193359375,-0.9169921875,-0.038330078125,42.560977935791016,-25.2439022064209,-71.55487823486328,17.549999237060547,31.200000762939453,-13.050000190734863,38.63560485839844,0,
 575880,-0.179931640625,-0.949462890625,-0.0322265625,40.51829528808594,-26.89024543762207,-79.45121765136719,15.149999618530273,31.950000762939453,-14.550000190734863,38.395992279052734,0,
 575890,-0.130615234375,-0.943603515625,-0.0361328125,38.07926940917969,-30.121952056884766,-82.53048706054688,14.399999618530273,31.649999618530273,-14.550000190734863,38.63560485839844,0,
 575900,-0.08154296875,-0.920166015625,0.001708984375,35.24390411376953,-36.128047943115234,-83.26219940185547,14.399999618530273,31.649999618530273,-14.550000190734863,38.683528900146484,0,
 575910,-0.028076171875,-0.8642578125,0.02978515625,39.1158561706543,-43.23170852661133,-82.92683410644531,11.399999618530273,31.200000762939453,-13.5,38.44391632080078,0,
 575920,0.05908203125,-0.874755859375,0.096923828125,41.79878234863281,-54.42073440551758,-80.7317123413086,11.399999618530273,30.450000762939453,-13.800000190734863,38.49183654785156,0,
 575930,0.125,-0.89599609375,0.16064453125,47.07317352294922,-64.81707763671875,-81.06707763671875,10.050000190734863,30.600000381469727,-12.899999618530273,38.63560485839844,0,
 575940,0.129638671875,-0.913330078125,0.216552734375,55.3658561706543,-72.31707763671875,-83.26219940185547,9.899999618530273,33.150001525878906,-13.5,38.587684631347656,0,
 575950,0.103271484375,-1.009765625,0.199951171875,65.18292999267578,-74.20732116699219,-87.16463470458984,9.899999618530273,33.150001525878906,-13.5,38.49183654785156,0,
 575960,0.087158203125,-1.11865234375,0.169921875,71.85975646972656,-70.48780822753906,-93.56707763671875,6.0,32.849998474121094,-12.300000190734863,38.44391632080078,0,
 575970,0.084228515625,-1.212646484375,0.137451171875,73.6280517578125,-62.89634323120117,-100.94512176513672,4.949999809265137,31.649999618530273,-13.050000190734863,38.44391632080078,0,
 575980,0.07373046875,-1.273193359375,0.07958984375,71.82926940917969,-52.256099700927734,-110.2743911743164,4.349999904632568,33.0,-10.949999809265137,38.49183654785156,0,
 575990,0.092529296875,-1.365966796875,0.05859375,70.03048706054688,-39.5121955871582,-119.4817123413086,4.349999904632568,33.0,-10.949999809265137,38.587684631347656,0,
 576001,0.12548828125,-1.41845703125,0.02978515625,63.99390411376953,-27.469512939453125,-128.53659057617188,1.0499999523162842,32.400001525878906,-8.550000190734863,38.49183654785156,0,
 576011,0.154296875,-1.447998046875,0.04345703125,54.48170852661133,-18.475610733032227,-135.36585998535156,1.0499999523162842,30.0,-8.550000190734863,38.06053161621094,0,
 576021,0.15087890625,-1.349853515625,0.054443359375,44.39024353027344,-14.17682933807373,-139.78659057617188,-0.44999998807907104,31.049999237060547,-3.450000047683716,38.395992279052734,0,
 576031,0.122314453125,-1.270263671875,0.067138671875,40.30487823486328,-14.908536911010742,-140.09146118164062,-0.44999998807907104,31.049999237060547,-3.450000047683716,38.587684631347656,0,
 576041,0.10888671875,-1.25390625,0.085693359375,39.84756088256836,-17.042682647705078,-137.8048858642578,-1.649999976158142,32.25,-0.15000000596046448,38.44391632080078,0,
 576051,0.100341796875,-1.24755859375,0.08984375,40.274391174316406,-22.317073822021484,-134.2073211669922,0.44999998807907104,29.850000381469727,3.9000000953674316,38.587684631347656,0,
 576061,0.082763671875,-1.2099609375,0.099609375,37.774391174316406,-29.420732498168945,-130.6707305908203,2.0999999046325684,30.600000381469727,4.949999809265137,38.44391632080078,0,
 576071,0.030517578125,-1.150390625,0.10302734375,35.182926177978516,-37.164634704589844,-126.31098175048828,3.75,30.0,6.300000190734863,38.49183654785156,0,
 576081,-0.01708984375,-1.131591796875,0.08837890625,34.32926940917969,-42.59146499633789,-122.256103515625,3.75,30.0,6.300000190734863,38.587684631347656,0,
 576091,-0.031005859375,-1.126708984375,0.09130859375,32.530487060546875,-49.14634323120117,-115.94512176513672,11.25,27.450000762939453,6.150000095367432,38.44391632080078,0,
 576101,-0.044677734375,-1.098876953125,0.0849609375,26.95121955871582,-56.55487823486328,-106.64634704589844,13.050000190734863,29.100000381469727,5.400000095367432,38.44391632080078,0,
 576111,-0.09423828125,-1.041015625,0.083251953125,18.689023971557617,-65.1524429321289,-95.1524429321289,16.5,27.0,-0.15000000596046448,38.395992279052734,0,
 576121,-0.1689453125,-0.98095703125,0.064208984375,12.439024925231934,-71.92073059082031,-81.21951293945312,16.5,27.0,-0.15000000596046448,38.49183654785156,0,
 576131,-0.2421875,-0.9619140625,0.029052734375,7.987804889678955,-77.34756469726562,-64.7256088256836,15.899999618530273,27.299999237060547,-2.25,38.587684631347656,0,
 576141,-0.304443359375,-0.974853515625,-0.0009765625,2.1646342277526855,-79.96951293945312,-47.43902587890625,15.0,27.899999618530273,-5.400000095367432,38.587684631347656,0,
 576151,-0.355224609375,-0.955078125,-0.0283203125,-4.054878234863281,-78.29268646240234,-33.506099700927734,15.0,27.0,-5.699999809265137,38.63560485839844,0,
 576161,-0.35009765625,-1.00732421875,-0.0361328125,-6.067073345184326,-73.71951293945312,-24.573171615600586,15.0,27.0,-5.699999809265137,38.395992279052734,0,
 576171,-0.363525390625,-1.054443359375,-0.052734375,-5.457317352294922,-65.79268646240234,-23.9939022064209,14.399999618530273,25.350000381469727,-9.75,38.49183654785156,0,
 576181,-0.3544921875,-1.100341796875,-0.070556640625,-4.786585330963135,-56.85975646972656,-28.658536911010742,12.75,25.049999237060547,-10.199999809265137,38.300148010253906,0,
 576191,-0.319091796875,-1.12939453125,-0.062744140625,-6.371951580047607,-45.64024353027344,-32.835365295410156,11.25,25.5,-10.649999618530273,38.49183654785156,0,
 576201,-0.285400390625,-1.104736328125,-0.035888671875,-9.603658676147461,-34.969512939453125,-38.963417053222656,9.899999618530273,24.899999618530273,-10.800000190734863,38.587684631347656,0,
 576211,-0.233154296875,-1.033203125,-0.02001953125,-13.445122718811035,-26.707317352294922,-43.99390411376953,9.899999618530273,24.899999618530273,-10.800000190734863,38.587684631347656,0,
 576221,-0.22021484375,-0.96240234375,-0.004150390625,-16.40243911743164,-21.829269409179688,-44.1158561706543,7.800000190734863,23.850000381469727,-11.699999809265137,38.44391632080078,0,
 576231,-0.23876953125,-0.9521484375,0.001220703125,-18.20121955871582,-12.682927131652832,-38.780487060546875,8.550000190734863,23.549999237060547,-10.949999809265137,38.49183654785156,0,
 576241,-0.24267578125,-0.95458984375,0.0029296875,-18.90243911743164,-8.567073822021484,-35.975608825683594,7.199999809265137,22.950000762939453,-13.5,38.63560485839844,0,
 576251,-0.246337890625,-0.946044921875,0.017333984375,-20.030488967895508,-6.067073345184326,-31.0060977935791,7.199999809265137,22.950000762939453,-13.5,38.44391632080078,0,
 576261,-0.255859375,-0.90087890625,0.02197265625,-50.060977935791016,-20.060976028442383,-4.695122241973877,5.849999904632568,21.450000762939453,-13.199999809265137,38.49183654785156,0,
 576271,-1.4228515625,-1.08837890625,-0.082275390625,-38.90243911743164,-1.8597561120986938,25.88414764404297,5.25,20.100000381469727,-13.800000190734863,38.44391632080078,0,
 576281,-0.144287109375,-1.038818359375,-0.16162109375,-43.04878234863281,10.82317066192627,28.5060977935791,5.849999904632568,21.899999618530273,-12.899999618530273,38.683528900146484,0,
 576291,-0.13671875,-0.82568359375,0.149658203125,9.786585807800293,0.7012194991111755,11.341464042663574,5.849999904632568,21.899999618530273,-12.899999618530273,38.587684631347656,0,
 576301,-0.182373046875,-1.191650390625,0.20166015625,-8.59756088256836,8.109756469726562,-7.957317352294922,5.099999904632568,19.5,-13.649999618530273,38.25222396850586,0,
 576751,0.126953125,-1.072265625,0.125,14.17682933807373,-12.22560977935791,18.231708526611328,9.449999809265137,25.350000381469727,-14.25,38.63560485839844,0,
 576761,0.176513671875,-0.927001953125,0.135009765625,14.207317352294922,-14.329268455505371,15.945122718811035,11.550000190734863,24.299999237060547,-14.399999618530273,38.395992279052734,0,
 576771,0.161376953125,-0.827392578125,0.211181640625,19.878049850463867,-18.963415145874023,15.213415145874023,11.550000190734863,24.299999237060547,-14.399999618530273,38.44391632080078,0,
 576781,0.143310546875,-0.815185546875,0.196533203125,27.28658676147461,-22.7439022064209,14.634146690368652,8.699999809265137,24.450000762939453,-14.550000190734863,38.63560485839844,0,
 576791,0.089111328125,-0.8974609375,0.16748046875,30.18292808532715,-24.024391174316406,11.737805366516113,9.600000381469727,23.850000381469727,-12.899999618530273,38.395992279052734,0,
 576802,0.040771484375,-1.012451171875,0.12939453125,27.469512939453125,-23.140243530273438,7.865853786468506,9.300000190734863,25.799999237060547,-14.699999809265137,38.587684631347656,0,
 576812,-0.005859375,-1.062255859375,0.09033203125,20.30487823486328,-20.274391174316406,4.054878234863281,9.600000381469727,25.049999237060547,-15.149999618530273,38.77937698364258,0,
 576822,-0.0283203125,-1.03759765625,0.079833984375,17.012195587158203,-16.920732498168945,1.3109756708145142,9.300000190734863,24.75,-14.699999809265137,38.49183654785156,0,
 576832,-0.06396484375,-1.00927734375,0.053955078125,18.20121955871582,-12.987805366516113,-0.5792682766914368,9.300000190734863,23.549999237060547,-16.200000762939453,38.300148010253906,0,
 576842,-0.072998046875,-1.0078125,0.04443359375,16.95121955871582,-8.841464042663574,-1.2804877758026123,8.699999809265137,23.25,-15.75,38.25222396850586,0,
 576852,-0.087646484375,-1.03564453125,0.015380859375,12.804878234863281,-3.6890244483947754,-4.29878044128418,8.100000381469727,23.100000381469727,-15.899999618530273,38.395992279052734,0,
 576862,-0.096435546875,-0.9853515625,0.01171875,5.762195110321045,-0.21341463923454285,-4.72560977935791,8.100000381469727,23.100000381469727,-15.899999618530273,38.44391632080078,0,
 576872,-0.126953125,-0.9423828125,0.023193359375,5.0,2.8353660106658936,-2.9268293380737305,8.399999618530273,23.25,-17.549999237060547,38.587684631347656,0,
 576882,-0.02001953125,-0.947021484375,0.078125,7.621951580047607,5.5182929039001465,-1.097561001777649,7.949999809265137,23.700000762939453,-16.049999237060547,38.63560485839844,0,
 576892,0.0888671875,-1.054443359375,0.115966796875,12.164634704589844,2.5,-0.5487805008888245,10.050000190734863,24.299999237060547,-16.649999618530273,38.108455657958984,0,
 576902,0.114013671875,-1.01416015625,0.114013671875,7.591463565826416,-1.6158536672592163,-1.6768293380737305,10.050000190734863,24.299999237060547,-16.649999618530273,38.587684631347656,0,
 576912,0.10107421875,-0.967529296875,0.120849609375,4.481707572937012,-4.817073345184326,-0.9451219439506531,8.100000381469727,23.549999237060547,-17.399999618530273,38.395992279052734,0,
 576922,0.069091796875,-0.992919921875,0.12255859375,3.658536672592163,-7.621951580047607,-0.5487805008888245,9.300000190734863,24.299999237060547,-14.699999809265137,38.44391632080078,0,
 576932,0.068115234375,-0.96875,0.125244140625,1.8597561120986938,-9.329268455505371,-0.7621951103210449,7.800000190734863,22.350000381469727,-17.700000762939453,38.683528900146484,0,
 576942,0.06396484375,-0.96875,0.12744140625,0.12195122241973877,-10.27439022064209,-0.6097561120986938,6.599999904632568,24.75,-15.449999809265137,38.44391632080078,0,
 576952,0.065185546875,-0.945068359375,0.139892578125,-1.6463414430618286,-10.27439022064209,-0.5182926654815674,7.5,23.25,-15.0,38.49183654785156,0,
 576972,0.0673828125,-0.947021484375,0.165771484375,-1.1280487775802612,-10.396341323852539,-1.585365891456604,8.699999809265137,24.149999618530273,-16.049999237060547,38.44391632080078,0,
 576982,0.073974609375,-0.95947265625,0.166015625,-3.2926828861236572,-11.219511985778809,-1.2804877758026123,8.100000381469727,22.350000381469727,-15.149999618530273,38.44391632080078,0,
 576992,0.0498046875,-0.947265625,0.15966796875,-6.25,-11.432927131652832,-1.7073171138763428,8.100000381469727,22.350000381469727,-15.149999618530273,38.25222396850586,0,
 577002,0.032470703125,-0.91650390625,0.16357421875,-6.5853657722473145,-10.213415145874023,-1.7682926654815674,9.149999618530273,23.700000762939453,-15.0,38.587684631347656,0,
 577012,0.035888671875,-0.924072265625,0.16552734375,-4.817073345184326,-7.957317352294922,-2.22560977935791,8.850000381469727,23.549999237060547,-15.899999618530273,38.683528900146484,0,
 577022,0.04638671875,-0.92431640625,0.16357421875,-4.115853786468506,-6.128048896789551,-2.103658676147461,7.5,24.450000762939453,-15.300000190734863,38.63560485839844,0,
 577032,0.03662109375,-0.9384765625,0.165283203125,-3.445122003555298,-3.9634146690368652,-2.5,7.5,24.450000762939453,-15.300000190734863,38.395992279052734,0,
 577042,0.048828125,-0.940185546875,0.154052734375,-2.804877996444702,-1.8597561120986938,-2.7439024448394775,7.949999809265137,22.950000762939453,-16.799999237060547,38.395992279052734,0,
 577052,0.05810546875,-0.949462890625,0.150634765625,-3.6890244483947754,-0.6097561120986938,-2.3475611209869385,7.949999809265137,24.149999618530273,-14.550000190734863,38.587684631347656,0,
 577062,0.067138671875,-0.953125,0.146484375,-3.75,0.7317073345184326,-2.378048896789551,8.399999618530273,22.5,-15.300000190734863,38.395992279052734,0,
 577072,0.05810546875,-0.94921875,0.139404296875,-4.756097793579102,1.25,-2.5304877758026123,7.800000190734863,22.350000381469727,-14.699999809265137,38.44391632080078,0,
 577082,0.057861328125,-0.958984375,0.13623046875,-5.030488014221191,1.3109756708145142,-1.8902438879013062,7.199999809265137,24.149999618530273,-14.550000190734863,38.683528900146484,0,
 577092,0.061279296875,-0.973388671875,0.13671875,-5.27439022064209,1.2804877758026123,-2.378048896789551,9.600000381469727,23.549999237060547,-14.699999809265137,38.395992279052734,0,
 577102,0.05126953125,-0.9794921875,0.1259765625,-5.731707572937012,1.432926893234253,-2.317073106765747,8.100000381469727,24.75,-15.149999618530273,38.44391632080078,0,
 577112,0.06591796875,-1.00146484375,0.1396484375,-5.945122241973877,1.097561001777649,-2.6524391174316406,8.550000190734863,23.850000381469727,-15.149999618530273,38.63560485839844,0,
 577122,0.054931640625,-0.97900390625,0.13720703125,-7.256097793579102,1.3719512224197388,-3.4146342277526855,8.550000190734863,23.850000381469727,-15.149999618530273,38.63560485839844,0,
 577132,0.05224609375,-0.9658203125,0.137451171875,-7.5,1.6463414430618286,-3.2317073345184326,7.800000190734863,25.799999237060547,-15.899999618530273,38.395992279052734,0,
 577142,0.047119140625,-0.972900390625,0.121826171875,-6.707317352294922,2.1341464519500732,-4.2682929039001465,7.199999809265137,23.25,-15.75,38.44391632080078,0,
 577152,0.056640625,-0.975341796875,0.11865234375,-5.762195110321045,1.8902438879013062,-6.493902683258057,7.199999809265137,25.649999618530273,-16.5,38.49183654785156,0,
 577162,0.05859375,-0.970703125,0.123291015625,-5.030488014221191,1.1280487775802612,-7.469512462615967,7.199999809265137,25.649999618530273,-16.5,38.63560485839844,0,
 577172,0.052734375,-0.968017578125,0.112548828125,-4.115853786468506,0.9146341681480408,-7.804878234863281,7.949999809265137,24.899999618530273,-15.0,38.395992279052734,0,
 577182,0.05419921875,-0.979248046875,0.098876953125,-2.5,1.402438998222351,-7.652439117431641,7.199999809265137,24.899999618530273,-13.800000190734863,38.15637969970703,0,
 577192,0.0654296875,-0.971923828125,0.113525390625,-1.1280487775802612,1.5548781156539917,-7.103658676147461,7.5,24.899999618530273,-16.049999237060547,38.44391632080078,0,
 577202,0.086669921875,-0.98681640625,0.109619140625,-0.12195122241973877,1.0060975551605225,-6.402439117431641,6.0,23.25,-13.800000190734863,38.395992279052734,0,
 577212,0.094970703125,-1.002197265625,0.122802734375,-0.396341472864151,-0.3658536672592163,-5.243902683258057,7.5,24.899999618530273,-14.25,38.63560485839844,0,
 577222,0.0849609375,-0.995849609375,0.116455078125,-0.7621951103210449,-1.1585365533828735,-4.329268455505371,7.050000190734863,23.850000381469727,-15.449999809265137,38.395992279052734,0,
 577232,0.072021484375,-0.978515625,0.11669921875,0.3353658616542816,-1.25,-4.786585330963135,7.199999809265137,25.649999618530273,-15.0,38.25222396850586,0,
 577242,0.070068359375,-0.9736328125,0.118896484375,1.0670732259750366,-0.9451219439506531,-5.030488014221191,5.400000095367432,22.350000381469727,-15.149999618530273,38.44391632080078,0,
 577252,0.072998046875,-0.977783203125,0.121337890625,1.3719512224197388,-1.5243902206420898,-5.945122241973877,5.400000095367432,22.350000381469727,-15.149999618530273,38.587684631347656,0,
 577262,0.070068359375,-0.971435546875,0.117919921875,2.22560977935791,-2.1646342277526855,-6.310975551605225,8.550000190734863,24.75,-16.200000762939453,38.63560485839844,0,
 577272,0.073486328125,-0.975830078125,0.123291015625,2.408536672592163,-2.4695122241973877,-6.890244007110596,7.5,24.450000762939453,-14.550000190734863,38.395992279052734,0,
 577282,0.0751953125,-0.98388671875,0.132080078125,1.7682926654815674,-1.6768293380737305,-7.621951580047607,6.449999809265137,23.25,-13.5,38.395992279052734,0,
 577292,0.06982421875,-0.962890625,0.131103515625,2.1341464519500732,-1.6463414430618286,-8.62804889678955,6.449999809265137,23.25,-13.5,38.587684631347656,0,
 577302,0.074462890625,-0.97119140625,0.130859375,0.792682945728302,-1.2195122241973877,-9.969511985778809,7.050000190734863,25.049999237060547,-13.949999809265137,38.395992279052734,0,
 577312,0.085693359375,-0.943115234375,0.11572265625,0.12195122241973877,-1.6158536672592163,-12.560976028442383,7.349999904632568,22.649999618530273,-15.899999618530273,38.44391632080078,0,
 577322,0.092041015625,-0.934814453125,0.125732421875,0.3658536672592163,-2.7439024448394775,-14.87804889678955,6.449999809265137,22.5,-15.75,38.49183654785156,0,
 577332,0.10009765625,-0.938232421875,0.126220703125,1.2804877758026123,-4.1768293380737305,-16.310976028442383,7.949999809265137,24.899999618530273,-15.300000190734863,37.96468734741211,0,
 577342,0.095947265625,-0.941162109375,0.125,1.3109756708145142,-6.189024448394775,-17.378049850463867,7.949999809265137,24.899999618530273,-15.300000190734863,38.683528900146484,0,
 577352,0.09716796875,-0.938232421875,0.124755859375,1.4634146690368652,-7.256097793579102,-17.774391174316406,6.449999809265137,24.450000762939453,-15.0,38.49183654785156,0,
 577362,0.09423828125,-0.93115234375,0.120849609375,1.8902438879013062,-7.896341800689697,-18.292682647705078,5.699999809265137,22.5,-15.75,38.49183654785156,0,
 577372,0.095947265625,-0.93994140625,0.12109375,3.2012195587158203,-6.890244007110596,-20.091463088989258,5.849999904632568,23.100000381469727,-15.449999809265137,38.300148010253906,0,
 577382,0.0986328125,-0.916015625,0.1181640625,4.146341323852539,-5.487804889678955,-20.762195587158203,5.849999904632568,23.100000381469727,-15.449999809265137,38.300148010253906,0,
 577392,0.114990234375,-0.9091796875,0.120849609375,5.3353657722473145,-3.75,-19.268293380737305,6.300000190734863,23.850000381469727,-13.649999618530273,38.587684631347656,0,
 577402,0.118896484375,-0.9248046875,0.13427734375,4.786585330963135,-1.8292683362960815,-16.371952056884766,5.400000095367432,23.549999237060547,-15.149999618530273,38.63560485839844,0,
 577412,0.130859375,-0.944091796875,0.139892578125,3.2012195587158203,-0.18292683362960815,-13.292683601379395,4.5,22.950000762939453,-16.049999237060547,38.587684631347656,0,
 577422,0.14111328125,-0.95263671875,0.146728515625,0.8536585569381714,0.6402438879013062,-9.57317066192627,4.5,22.950000762939453,-16.049999237060547,38.395992279052734,0,
 577432,0.1591796875,-0.9345703125,0.15087890625,-0.4268292784690857,0.5792682766914368,-6.52439022064209,5.849999904632568,23.549999237060547,-14.699999809265137,38.395992279052734,0,
 577442,0.14404296875,-0.945068359375,0.150146484375,-1.3414634466171265,0.15243902802467346,-4.969512462615967,5.699999809265137,22.049999237060547,-18.299999237060547,38.587684631347656,0,
 577452,0.1474609375,-0.9443359375,0.13671875,-2.408536672592163,-0.030487805604934692,-1.8292683362960815,4.349999904632568,23.850000381469727,-14.399999618530273,38.300148010253906,0,
 577462,0.14453125,-0.9404296875,0.12451171875,-4.1768293380737305,-1.097561001777649,2.865853786468506,4.650000095367432,23.549999237060547,-16.200000762939453,38.683528900146484,0,
 577472,0.13818359375,-0.94873046875,0.137939453125,-5.609755992889404,-1.4939024448394775,6.371951580047607,4.650000095367432,23.549999237060547,-16.200000762939453,38.587684631347656,0,
 577482,0.121826171875,-0.93359375,0.107421875,-5.97560977935791,-2.408536672592163,8.658536911010742,6.0,24.149999618530273,-16.049999237060547,38.15637969970703,0,
 577492,0.116943359375,-0.922607421875,0.116943359375,-4.512195110321045,-1.920731782913208,11.37195110321045,3.299999952316284,24.149999618530273,-13.800000190734863,38.63560485839844,0,
 577502,0.13916015625,-0.937744140625,0.1103515625,-3.1097562313079834,-1.920731782913208,15.884146690368652,5.400000095367432,23.850000381469727,-14.399999618530273,38.63560485839844,0,
 577512,0.137939453125,-0.963134765625,0.11328125,-2.317073106765747,-2.408536672592163,19.63414764404297,5.400000095367432,23.850000381469727,-14.399999618530273,38.587684631347656,0,
 577522,0.14501953125,-0.96826171875,0.122314453125,-2.4390244483947754,-3.5060975551605225,22.530488967895508,5.099999904632568,24.75,-14.699999809265137,38.77937698364258,0,
 577532,0.17529296875,-0.981689453125,0.16455078125,1.7682926654815674,-2.7439024448394775,22.012195587158203,5.400000095367432,22.649999618530273,-14.399999618530273,38.300148010253906,0,
 577542,0.125,-0.91796875,0.08642578125,1.2804877758026123,-1.1585365533828735,13.75,7.199999809265137,25.350000381469727,-17.549999237060547,38.49183654785156,0,
 577552,0.164794921875,-0.937255859375,0.124755859375,3.1402440071105957,1.920731782913208,21.067073822021484,7.199999809265137,25.350000381469727,-17.549999237060547,38.587684631347656,0,
 577562,0.128662109375,-1.0078125,0.14453125,3.7195122241973877,2.591463565826416,23.20121955871582,6.599999904632568,23.549999237060547,-15.149999618530273,38.395992279052734,0,
 577572,0.1083984375,-0.95849609375,0.134033203125,-2.1646342277526855,2.7134146690368652,24.359756469726562,6.300000190734863,23.549999237060547,-14.399999618530273,38.683528900146484,0,
 577583,0.083251953125,-1.002685546875,0.151611328125,-2.804877996444702,3.1402440071105957,26.463415145874023,6.599999904632568,23.100000381469727,-13.949999809265137,38.395992279052734,0,
 577593,0.089599609375,-0.96240234375,0.169677734375,-5.54878044128418,3.262195110321045,24.268293380737305,7.800000190734863,23.850000381469727,-15.449999809265137,38.587684631347656,0,
 577603,0.052001953125,-0.981689453125,0.1484375,-8.018292427062988,1.6463414430618286,11.615854263305664,7.800000190734863,23.850000381469727,-15.449999809265137,38.63560485839844,0,
 577613,0.009765625,-1.0166015625,0.131591796875,-8.414634704589844,1.3414634466171265,3.2317073345184326,6.75,25.350000381469727,-13.800000190734863,38.683528900146484,0,
 577623,-0.001953125,-1.008544921875,0.112060546875,-8.292682647705078,2.195122003555298,-5.121951103210449,6.75,24.899999618530273,-14.550000190734863,38.108455657958984,0,
 577633,-0.002197265625,-1.015380859375,0.11279296875,-8.414634704589844,2.896341562271118,-13.506097793579102,6.449999809265137,22.950000762939453,-16.799999237060547,38.49183654785156,0,
 577643,0.003662109375,-0.986083984375,0.111572265625,-7.0731706619262695,2.804877996444702,-18.75,6.449999809265137,22.950000762939453,-16.799999237060547,38.587684631347656,0,
 577653,0.02001953125,-0.98046875,0.127197265625,-4.5731706619262695,3.0487804412841797,-23.170732498168945,5.699999809265137,24.899999618530273,-15.0,38.44391632080078,0,
 577663,0.02587890625,-0.999755859375,0.113037109375,-3.4146342277526855,3.8719513416290283,-26.920732498168945,5.099999904632568,24.75,-14.399999618530273,38.395992279052734,0,
 577673,0.042236328125,-0.97216796875,0.091552734375,-1.1280487775802612,5.152439117431641,-28.109756469726562,5.699999809265137,22.950000762939453,-15.75,38.15637969970703,0,
 577683,0.068115234375,-0.945068359375,0.1123046875,1.2804877758026123,5.213414669036865,-26.768293380737305,5.699999809265137,22.950000762939453,-15.75,38.49183654785156,0,
 577693,0.107177734375,-0.93408203125,0.111083984375,2.987804889678955,4.542683124542236,-24.78658676147461,6.75,24.899999618530273,-14.550000190734863,38.77937698364258,0,
 577703,0.12109375,-0.966064453125,0.115234375,0.21341463923454285,4.847560882568359,-21.189023971557617,5.699999809265137,24.450000762939453,-14.25,38.49183654785156,0,
 577713,0.12158203125,-0.936767578125,0.114990234375,-1.25,5.152439117431641,-18.38414764404297,5.099999904632568,24.299999237060547,-15.449999809265137,38.395992279052734,0,
 577723,0.138427734375,-0.906005859375,0.108642578125,0.09146341681480408,4.847560882568359,-14.085366249084473,6.599999904632568,24.299999237060547,-14.699999809265137,38.49183654785156,0,
 577733,0.129150390625,-0.9208984375,0.117431640625,0.4573170840740204,3.2926828861236572,-8.59756088256836,6.599999904632568,24.299999237060547,-14.699999809265137,38.63560485839844,0,
 577743,0.14599609375,-0.930908203125,0.12158203125,-1.585365891456604,2.317073106765747,-4.390244007110596,7.5,22.950000762939453,-15.75,38.49183654785156,0,
 577753,0.130126953125,-0.928955078125,0.1259765625,-4.207317352294922,0.5182926654815674,-0.21341463923454285,6.0,24.149999618530273,-15.0,38.683528900146484,0,
 577763,0.140869140625,-0.907958984375,0.119873046875,-4.603658676147461,0.12195122241973877,1.9817073345184326,6.599999904632568,23.549999237060547,-13.949999809265137,38.587684631347656,0,
 577773,0.150146484375,-0.925048828125,0.10986328125,-4.420732021331787,-0.4268292784690857,2.682926893234253,6.599999904632568,23.549999237060547,-13.949999809265137,38.300148010253906,0,
 577783,0.142333984375,-0.92333984375,0.087646484375,-3.445122003555298,-0.8536585569381714,2.2560975551605225,6.0,22.5,-14.550000190734863,38.587684631347656,0,
 577793,0.185791015625,-0.947265625,0.098876953125,-2.7439024448394775,-2.195122003555298,1.3414634466171265,6.0,23.700000762939453,-14.550000190734863,38.63560485839844,0,
 577803,0.157958984375,-0.943359375,0.08837890625,-2.1341464519500732,-3.7195122241973877,-0.18292683362960815,7.050000190734863,24.75,-14.399999618530273,38.49183654785156,0,
 577813,0.145751953125,-0.93310546875,0.111083984375,-1.585365891456604,-5.8231706619262695,-1.7073171138763428,7.050000190734863,24.75,-14.399999618530273,38.63560485839844,0,
 577823,0.146484375,-0.944091796875,0.087158203125,0.9451219439506531,-7.682927131652832,-4.329268455505371,4.949999809265137,23.700000762939453,-13.800000190734863,38.300148010253906,0,
 577833,0.105712890625,-0.966064453125,0.107421875,3.3841464519500732,-8.32317066192627,-6.5853657722473145,7.050000190734863,23.100000381469727,-15.149999618530273,38.25222396850586,0,
 577843,0.13427734375,-0.971435546875,0.103515625,4.1768293380737305,-8.59756088256836,-7.103658676147461,5.400000095367432,23.850000381469727,-14.699999809265137,38.971065521240234,0,
 577853,0.134765625,-1.00341796875,0.12646484375,4.634146213531494,-8.90243911743164,-8.04878044128418,6.599999904632568,23.850000381469727,-17.399999618530273,38.587684631347656,0,
 577863,0.09814453125,-1.0,0.14501953125,4.02439022064209,-9.146341323852539,-8.414634704589844,6.599999904632568,23.850000381469727,-17.399999618530273,38.587684631347656,0,
 577873,0.1025390625,-0.991455078125,0.12109375,5.8231706619262695,-8.810976028442383,-8.536585807800293,6.449999809265137,24.149999618530273,-13.800000190734863,38.395992279052734,0,
 577883,0.110107421875,-0.987548828125,0.124755859375,4.72560977935791,-8.689024925231934,-7.865853786468506,5.849999904632568,25.049999237060547,-15.449999809265137,38.300148010253906,0,
 577893,0.099609375,-0.98681640625,0.128662109375,3.6890244483947754,-8.262195587158203,-7.012195110321045,4.5,26.100000381469727,-15.300000190734863,38.49183654785156,0,
 577903,0.08349609375,-1.006591796875,0.130126953125,1.737804889678955,-7.347561359405518,-5.152439117431641,4.5,26.100000381469727,-15.300000190734863,38.587684631347656,0,
 577913,0.103271484375,-0.942138671875,0.1123046875,1.7073171138763428,-6.25,-3.1097562313079834,6.449999809265137,22.950000762939453,-14.550000190734863,38.587684631347656,0,
 577923,0.107421875,-0.9775390625,0.132568359375,1.1280487775802612,-3.658536672592163,-1.585365891456604,4.349999904632568,24.299999237060547,-13.949999809265137,38.300148010253906,0,
 577933,0.11767578125,-0.975341796875,0.124267578125,0.7012194991111755,-1.5548781156539917,-0.030487805604934692,5.400000095367432,22.649999618530273,-13.199999809265137,38.587684631347656,0,
 577943,0.15478515625,-0.96630859375,0.12109375,0.7012194991111755,-0.6707317233085632,1.5243902206420898,5.400000095367432,22.649999618530273,-13.199999809265137,38.49183654785156,0,
 577953,0.06787109375,-0.951416015625,0.138427734375,-0.4573170840740204,0.8841463327407837,2.682926893234253,6.300000190734863,24.75,-16.649999618530273,38.25222396850586,0,
 577963,0.127197265625,-0.927978515625,0.126708984375,-0.09146341681480408,0.7621951103210449,4.817073345184326,5.699999809265137,22.5,-14.550000190734863,38.587684631347656,0,
 577983,0.114990234375,-0.94384765625,0.11865234375,0.24390244483947754,1.8597561120986938,7.012195110321045,3.5999999046325684,24.75,-13.949999809265137,38.683528900146484,0,
 577993,0.1240234375,-0.94189453125,0.10400390625,1.0670732259750366,1.1585365533828735,8.75,3.5999999046325684,24.75,-13.949999809265137,38.587684631347656,0,
 578003,0.135498046875,-0.935546875,0.13427734375,0.8231707215309143,1.3719512224197388,8.689024925231934,5.849999904632568,23.850000381469727,-14.699999809265137,38.587684631347656,0,
 578013,0.158935546875,-0.939453125,0.105224609375,1.5243902206420898,1.1585365533828735,8.658536911010742,6.599999904632568,24.75,-13.949999809265137,38.63560485839844,0,
 578023,0.156494140625,-0.947021484375,0.112548828125,2.5304877758026123,2.0426828861236572,6.890244007110596,6.75,23.25,-14.550000190734863,38.395992279052734,0,
 578033,0.146728515625,-0.926513671875,0.111572265625,3.2926828861236572,1.9512195587158203,5.640244007110596,6.75,23.25,-14.550000190734863,38.49183654785156,0,
 578043,0.15283203125,-0.951171875,0.10888671875,5.3353657722473145,2.1646342277526855,4.359755992889404,6.599999904632568,24.299999237060547,-14.399999618530273,38.49183654785156,0,
 578053,0.15673828125,-0.94580078125,0.111328125,5.182927131652832,2.591463565826416,2.012195110321045,5.849999904632568,25.5,-14.699999809265137,38.683528900146484,0,
 578063,0.15625,-0.947509765625,0.130859375,4.817073345184326,2.7134146690368652,-0.030487805604934692,5.099999904632568,22.649999618530273,-16.200000762939453,38.15637969970703,0,
 578073,0.155029296875,-0.94775390625,0.13232421875,5.457317352294922,2.591463565826416,-1.1280487775802612,5.099999904632568,22.649999618530273,-16.200000762939453,38.77937698364258,0,
 578083,0.135009765625,-0.955078125,0.138916015625,5.609755992889404,2.22560977935791,-1.8902438879013062,5.849999904632568,25.5,-12.149999618530273,38.587684631347656,0,
