timestamp,accl_x,accl_y,accl_z,gyro_x,gyro_y,gyro_z,mag_x,mag_y,mag_z,temp,emg,
 1349349,-0.014404296875,-0.97607421875,0.02490234375,-0.6707317233085632,0.5182926654815674,0.030487805604934692,5.699999809265137,28.799999237060547,-11.25,39.11483383178711,0,
 1349360,-0.01416015625,-0.973876953125,0.0205078125,-0.8231707215309143,0.5487805008888245,0.060975611209869385,5.699999809265137,28.799999237060547,-11.25,39.2106819152832,0,
 1349370,-0.011962890625,-0.974609375,0.023681640625,-1.0670732259750366,0.5182926654815674,-0.030487805604934692,6.0,29.700000762939453,-12.0,39.11483383178711,0,
 1349380,-0.010986328125,-0.96875,0.0185546875,-1.0670732259750366,0.3658536672592163,0.24390244483947754,6.300000190734863,28.649999618530273,-10.649999618530273,38.971065521240234,0,
 1349390,-0.00830078125,-0.9765625,0.0224609375,-1.402438998222351,0.3353658616542816,0.27439025044441223,7.5,29.25,-10.050000190734863,39.01898956298828,0,
 1349400,-0.015380859375,-0.975341796875,0.02392578125,-1.402438998222351,0.12195122241973877,-0.030487805604934692,7.5,29.25,-10.050000190734863,39.2106819152832,0,
 1349410,-0.010986328125,-0.982666015625,0.02490234375,-1.432926893234253,0.09146341681480408,0.060975611209869385,7.050000190734863,28.649999618530273,-10.949999809265137,39.2106819152832,0,
 1349420,-0.019775390625,-0.96875,0.028076171875,-1.5243902206420898,0.4878048896789551,-0.12195122241973877,6.449999809265137,28.5,-12.0,39.35445022583008,0,
 1349430,-0.0107421875,-0.978515625,0.02685546875,-1.6158536672592163,0.5792682766914368,0.0,7.949999809265137,28.5,-13.5,38.82729721069336,0,
 1349440,-0.012939453125,-0.97509765625,0.01611328125,-2.012195110321045,0.24390244483947754,0.060975611209869385,7.949999809265137,28.5,-13.5,39.01898956298828,0,
 1349450,-0.012939453125,-0.972412109375,0.021240234375,-1.7073171138763428,0.15243902802467346,0.396341472864151,6.0,28.799999237060547,-12.300000190734863,39.162757873535156,0,
 1349460,-0.009521484375,-0.9755859375,0.011474609375,-2.1341464519500732,0.4268292784690857,0.396341472864151,7.349999904632568,30.299999237060547,-15.899999618530273,39.162757873535156,0,
 1349470,-0.00830078125,-0.974365234375,0.02392578125,-1.5548781156539917,0.3658536672592163,0.4878048896789551,6.75,27.299999237060547,-14.550000190734863,39.2106819152832,0,
 1349480,-0.011962890625,-0.971923828125,0.01806640625,-1.5243902206420898,0.3048780560493469,0.7621951103210449,6.300000190734863,29.399999618530273,-10.649999618530273,39.2106819152832,0,
 1349490,-0.01123046875,-0.9697265625,0.021240234375,-1.4939024448394775,0.3353658616542816,0.4878048896789551,6.300000190734863,29.399999618530273,-10.649999618530273,39.01898956298828,0,
 1349500,-0.016845703125,-0.97265625,0.015380859375,-0.9451219439506531,0.24390244483947754,0.7317073345184326,5.25,28.799999237060547,-11.550000190734863,39.11483383178711,0,
 1349510,-0.017333984375,-0.969970703125,0.017822265625,-0.6707317233085632,0.24390244483947754,0.4268292784690857,6.75,29.25,-12.300000190734863,39.2106819152832,0,
 1349520,-0.022705078125,-0.976318359375,0.015625,0.0,0.15243902802467346,0.7317073345184326,8.550000190734863,29.850000381469727,-10.949999809265137,39.2106819152832,0,
 1349530,-0.016357421875,-0.973388671875,0.022216796875,-0.12195122241973877,0.18292683362960815,0.0,8.550000190734863,29.850000381469727,-10.949999809265137,39.01898956298828,0,
 1349540,-0.01171875,-0.97705078125,0.021728515625,-0.27439025044441223,0.12195122241973877,0.396341472864151,6.0,29.700000762939453,-12.300000190734863,39.2106819152832,0,
 1349550,-0.021484375,-0.971435546875,0.0234375,0.030487805604934692,0.5182926654815674,0.060975611209869385,8.100000381469727,30.600000381469727,-11.399999618530273,39.11483383178711,0,
 1349560,-0.015625,-0.97705078125,0.021484375,-0.27439025044441223,0.3658536672592163,0.3048780560493469,8.699999809265137,29.700000762939453,-11.550000190734863,39.01898956298828,0,
 1349570,-0.012939453125,-0.97314453125,0.021240234375,-0.060975611209869385,0.7317073345184326,0.0,8.699999809265137,29.700000762939453,-11.550000190734863,39.49821853637695,0,
 1349580,-0.013427734375,-0.9716796875,0.0224609375,0.12195122241973877,0.5182926654815674,0.060975611209869385,7.050000190734863,28.200000762939453,-12.449999809265137,39.162757873535156,0,
 1349590,-0.015625,-0.972412109375,0.01708984375,0.18292683362960815,0.18292683362960815,-0.4573170840740204,6.449999809265137,29.25,-12.300000190734863,39.2106819152832,0,
 1349600,-0.0166015625,-0.974853515625,0.019287109375,0.4268292784690857,0.396341472864151,0.0,7.5,28.5,-13.5,39.2106819152832,0,
 1349610,-0.010986328125,-0.973388671875,0.015380859375,0.8841463327407837,0.24390244483947754,0.4573170840740204,8.100000381469727,29.399999618530273,-10.949999809265137,39.2106819152832,0,
 1349620,-0.0126953125,-0.9755859375,0.0234375,1.097561001777649,0.3048780560493469,0.4878048896789551,8.100000381469727,29.399999618530273,-10.949999809265137,39.2106819152832,0,
 1349630,-0.010986328125,-0.9775390625,0.025634765625,1.0060975551605225,0.21341463923454285,1.1585365533828735,7.5,28.5,-12.75,39.11483383178711,0,
 1349640,-0.0126953125,-0.97802734375,0.02783203125,0.4878048896789551,0.030487805604934692,0.8231707215309143,6.599999904632568,29.100000381469727,-12.149999618530273,39.11483383178711,0,
 1349650,-0.010986328125,-0.978271484375,0.02734375,0.4268292784690857,0.15243902802467346,0.792682945728302,7.199999809265137,30.0,-12.75,39.450294494628906,0,
 1349660,-0.014404296875,-0.98046875,0.027587890625,-0.12195122241973877,0.4573170840740204,0.6097561120986938,7.199999809265137,30.0,-12.75,39.2106819152832,0,
 1349670,-0.010498046875,-0.97705078125,0.02099609375,0.030487805604934692,0.396341472864151,0.5487805008888245,6.449999809265137,28.799999237060547,-11.25,39.35445022583008,0,
 1349680,-0.0126953125,-0.971923828125,0.024658203125,-0.12195122241973877,0.3353658616542816,0.4878048896789551,6.75,29.25,-12.300000190734863,39.11483383178711,0,
 1349690,-0.011962890625,-0.982177734375,0.02197265625,0.12195122241973877,0.3048780560493469,0.3048780560493469,6.599999904632568,29.399999618530273,-13.199999809265137,39.30652618408203,0,
 1349700,-0.011474609375,-0.96875,0.021728515625,0.15243902802467346,0.4268292784690857,0.3353658616542816,6.599999904632568,29.399999618530273,-13.199999809265137,39.30652618408203,0,
 1349710,-0.010986328125,-0.977294921875,0.0244140625,-0.09146341681480408,0.18292683362960815,0.3353658616542816,6.449999809265137,30.0,-10.050000190734863,39.2106819152832,0,
 1349720,-0.0166015625,-0.9736328125,0.024658203125,-0.18292683362960815,0.21341463923454285,0.09146341681480408,6.75,28.5,-12.0,39.01898956298828,0,
 1349730,-0.014892578125,-0.974853515625,0.02392578125,-0.3353658616542816,0.3658536672592163,0.0,5.25,31.950000762939453,-12.75,39.2106819152832,0,
 1349740,-0.010009765625,-0.974853515625,0.029541015625,-0.4268292784690857,0.3353658616542816,0.12195122241973877,7.349999904632568,29.100000381469727,-9.899999618530273,39.30652618408203,0,
 1349750,-0.014892578125,-0.976318359375,0.029541015625,-0.5182926654815674,0.5182926654815674,-0.21341463923454285,7.349999904632568,29.100000381469727,-9.899999618530273,39.30652618408203,0,
 1349760,-0.01123046875,-0.973388671875,0.02197265625,-1.0060975551605225,0.396341472864151,0.060975611209869385,5.699999809265137,29.700000762939453,-11.25,39.35445022583008,0,
 1349770,-0.01123046875,-0.973388671875,0.0205078125,-1.0060975551605225,0.3658536672592163,-0.030487805604934692,7.050000190734863,30.600000381469727,-10.949999809265137,39.2106819152832,0,
 1349780,-0.01025390625,-0.976806640625,0.02197265625,-0.7317073345184326,0.27439025044441223,0.4268292784690857,5.699999809265137,29.700000762939453,-12.75,38.92314529418945,0,
 1349790,-0.015869140625,-0.97021484375,0.022705078125,-0.6402438879013062,0.5182926654815674,0.4573170840740204,5.699999809265137,29.700000762939453,-12.75,39.30652618408203,0,
 1349800,-0.011962890625,-0.970947265625,0.02001953125,-0.6707317233085632,0.18292683362960815,0.7317073345184326,5.400000095367432,30.600000381469727,-10.649999618530273,39.162757873535156,0,
 1349810,-0.011474609375,-0.97119140625,0.021728515625,-0.5792682766914368,0.21341463923454285,0.9451219439506531,6.449999809265137,30.450000762939453,-11.550000190734863,39.2106819152832,0,
 1349820,-0.013671875,-0.9755859375,0.02197265625,-0.7012194991111755,0.4878048896789551,0.792682945728302,6.0,29.700000762939453,-10.800000190734863,39.35445022583008,0,
 1349830,-0.01318359375,-0.96728515625,0.017578125,-0.4573170840740204,0.3353658616542816,0.8231707215309143,7.050000190734863,29.100000381469727,-11.399999618530273,39.01898956298828,0,
 1349840,-0.01513671875,-0.972412109375,0.0234375,-0.7317073345184326,0.15243902802467346,0.4878048896789551,6.599999904632568,27.899999618530273,-12.899999618530273,39.2106819152832,0,
 1349850,-0.01513671875,-0.970458984375,0.020751953125,-0.12195122241973877,0.3353658616542816,0.5487805008888245,6.599999904632568,29.399999618530273,-10.949999809265137,39.35445022583008,0,
 1349860,-0.00830078125,-0.9716796875,0.028076171875,-0.18292683362960815,0.24390244483947754,0.3353658616542816,8.699999809265137,29.700000762939453,-11.25,39.35445022583008,0,
 1349870,-0.0166015625,-0.97119140625,0.02001953125,-0.12195122241973877,0.21341463923454285,0.3048780560493469,6.449999809265137,29.700000762939453,-10.800000190734863,39.2106819152832,0,
 1349880,-0.01171875,-0.974853515625,0.019287109375,-0.24390244483947754,0.4268292784690857,-0.09146341681480408,6.449999809265137,29.700000762939453,-10.800000190734863,39.11483383178711,0,
 1349890,-0.0146484375,-0.971923828125,0.021728515625,-0.4573170840740204,0.15243902802467346,-0.15243902802467346,7.050000190734863,29.850000381469727,-12.149999618530273,39.01898956298828,0,
 1349900,-0.012939453125,-0.974609375,0.017822265625,-0.7012194991111755,0.3353658616542816,-0.030487805604934692,6.449999809265137,29.700000762939453,-11.550000190734863,39.30652618408203,0,
 1349910,-0.0107421875,-0.97705078125,0.019287109375,-0.09146341681480408,0.24390244483947754,-0.060975611209869385,6.0,30.0,-11.25,39.2106819152832,0,
 1349920,-0.007568359375,-0.977294921875,0.025146484375,-0.4878048896789551,0.396341472864151,0.21341463923454285,6.0,30.0,-11.25,39.450294494628906,0,
 1349930,-0.012939453125,-0.978271484375,0.0205078125,-0.3658536672592163,0.27439025044441223,0.15243902802467346,7.199999809265137,29.700000762939453,-11.550000190734863,38.971065521240234,0,
 1349940,-0.016845703125,-0.978759765625,0.02294921875,-0.15243902802467346,0.09146341681480408,0.18292683362960815,7.949999809265137,28.5,-13.5,39.2106819152832,0,
 1349950,-0.017578125,-0.984130859375,0.014892578125,-0.18292683362960815,0.12195122241973877,0.396341472864151,7.050000190734863,29.850000381469727,-11.699999809265137,38.92314529418945,0,
 1349960,-0.010009765625,-0.96875,0.021728515625,0.15243902802467346,-0.060975611209869385,0.12195122241973877,6.599999904632568,30.600000381469727,-11.699999809265137,39.30652618408203,0,
 1349970,-0.016357421875,-0.973876953125,0.019775390625,-0.09146341681480408,0.15243902802467346,0.27439025044441223,7.050000190734863,28.649999618530273,-10.649999618530273,39.2106819152832,0,
 1349980,-0.0087890625,-0.97265625,0.02294921875,0.24390244483947754,0.030487805604934692,0.060975611209869385,6.300000190734863,29.850000381469727,-10.949999809265137,39.35445022583008,0,
 1349990,-0.012451171875,-0.974853515625,0.026123046875,0.24390244483947754,0.12195122241973877,0.5182926654815674,7.050000190734863,29.850000381469727,-11.399999618530273,39.2106819152832,0,
 1350000,-0.017578125,-0.9736328125,0.021484375,0.12195122241973877,0.09146341681480408,0.24390244483947754,6.75,28.799999237060547,-10.800000190734863,38.971065521240234,0,
 1350010,-0.015869140625,-0.971435546875,0.026123046875,0.21341463923454285,0.3048780560493469,0.24390244483947754,6.75,28.799999237060547,-10.800000190734863,39.2106819152832,0,
 1350020,-0.01708984375,-0.973876953125,0.01904296875,-0.27439025044441223,0.4268292784690857,0.15243902802467346,7.199999809265137,29.25,-10.5,39.11483383178711,0,
 1350030,-0.016845703125,-0.971435546875,0.021728515625,-0.18292683362960815,0.396341472864151,-0.27439025044441223,7.050000190734863,29.100000381469727,-10.949999809265137,38.971065521240234,0,
 1350040,-0.01123046875,-0.96826171875,0.0244140625,0.12195122241973877,0.3048780560493469,-0.27439025044441223,7.349999904632568,29.399999618530273,-15.449999809265137,39.11483383178711,0,
 1350050,-0.0146484375,-0.9716796875,0.022216796875,0.3353658616542816,-0.060975611209869385,-0.5182926654815674,7.349999904632568,29.399999618530273,-15.449999809265137,39.30652618408203,0,
 1350060,-0.017578125,-0.974365234375,0.016845703125,0.3353658616542816,0.18292683362960815,-0.3048780560493469,6.599999904632568,30.299999237060547,-10.199999809265137,39.11483383178711,0,
 1350070,-0.013427734375,-0.977783203125,0.020751953125,0.6097561120986938,0.27439025044441223,-0.24390244483947754,6.75,30.450000762939453,-11.550000190734863,39.2106819152832,0,
 1350080,-0.010009765625,-0.980224609375,0.02587890625,0.396341472864151,-0.030487805604934692,-0.21341463923454285,6.300000190734863,29.399999618530273,-11.399999618530273,39.2106819152832,0,
 1350090,-0.010009765625,-0.973876953125,0.022705078125,0.18292683362960815,0.24390244483947754,-0.3048780560493469,7.050000190734863,28.649999618530273,-10.649999618530273,39.2106819152832,0,
 1350100,-0.01708984375,-0.97607421875,0.02490234375,-0.09146341681480408,0.3353658616542816,0.060975611209869385,6.449999809265137,30.450000762939453,-11.550000190734863,39.01898956298828,0,
 1350110,-0.011474609375,-0.980224609375,0.02392578125,-0.09146341681480408,0.27439025044441223,-0.12195122241973877,8.550000190734863,29.399999618530273,-10.949999809265137,39.2106819152832,0,
 1350120,-0.012939453125,-0.9765625,0.02880859375,-0.7621951103210449,0.3048780560493469,0.18292683362960815,7.349999904632568,31.049999237060547,-10.649999618530273,39.01898956298828,0,
 1350130,-0.014892578125,-0.978271484375,0.024169921875,-0.6402438879013062,0.3353658616542816,-0.060975611209869385,6.0,29.25,-11.25,39.162757873535156,0,
 1350140,-0.013427734375,-0.974853515625,0.024169921875,-0.18292683362960815,0.3353658616542816,-0.12195122241973877,6.0,29.25,-11.25,39.35445022583008,0,
 1350150,-0.010498046875,-0.97265625,0.02001953125,-0.060975611209869385,0.3353658616542816,-0.15243902802467346,7.349999904632568,29.100000381469727,-12.149999618530273,39.2106819152832,0,
 1350160,-0.006103515625,-0.972412109375,0.021484375,0.09146341681480408,0.060975611209869385,-0.12195122241973877,5.849999904632568,29.399999618530273,-12.149999618530273,39.11483383178711,0,
 1350170,-0.012451171875,-0.98095703125,0.0244140625,0.030487805604934692,0.21341463923454285,0.18292683362960815,7.050000190734863,29.100000381469727,-12.149999618530273,38.971065521240234,0,
 1350180,-0.01318359375,-0.983642578125,0.025390625,-0.15243902802467346,0.060975611209869385,0.396341472864151,7.050000190734863,29.100000381469727,-12.149999618530273,39.2106819152832,0,
 1350191,-0.01318359375,-0.9775390625,0.02587890625,-0.21341463923454285,-0.030487805604934692,0.3048780560493469,6.0,29.700000762939453,-11.550000190734863,39.11483383178711,0,
 1350201,-0.00927734375,-0.975830078125,0.0234375,-0.24390244483947754,-0.060975611209869385,0.3353658616542816,6.0,29.700000762939453,-11.25,39.162757873535156,0,
 1350211,-0.006591796875,-0.97509765625,0.023681640625,-0.5487805008888245,0.18292683362960815,0.396341472864151,6.599999904632568,29.100000381469727,-11.699999809265137,39.2106819152832,0,
 1350221,-0.015380859375,-0.9814453125,0.0234375,-0.3048780560493469,0.27439025044441223,0.4573170840740204,7.050000190734863,30.299999237060547,-11.399999618530273,38.971065521240234,0,
 1350231,-0.018310546875,-0.978515625,0.026611328125,-0.12195122241973877,-0.030487805604934692,0.24390244483947754,7.050000190734863,30.299999237060547,-11.399999618530273,39.162757873535156,0,
 1350241,-0.001708984375,-0.965087890625,0.01220703125,-0.060975611209869385,0.18292683362960815,0.4878048896789551,5.25,30.0,-12.75,39.30652618408203,0,
 1350251,-0.014892578125,-0.973876953125,0.023681640625,1.4939024448394775,-0.8231707215309143,0.3353658616542816,5.400000095367432,27.450000762939453,-13.949999809265137,39.01898956298828,0,
 1350271,-0.00146484375,-1.023193359375,0.04345703125,-1.2195122241973877,0.5487805008888245,-0.9756097793579102,7.5,30.450000762939453,-11.550000190734863,39.11483383178711,0,
 1350281,-0.010009765625,-0.976806640625,0.01953125,-3.353658676147461,0.4573170840740204,0.396341472864151,7.199999809265137,30.450000762939453,-11.550000190734863,38.971065521240234,0,
 1350291,-0.010986328125,-0.98828125,-0.011474609375,-1.7987805604934692,-0.7012194991111755,0.3658536672592163,6.449999809265137,29.700000762939453,-11.550000190734863,39.2106819152832,0,
 1350301,-0.023681640625,-0.972412109375,0.001220703125,0.7317073345184326,-1.097561001777649,0.396341472864151,5.699999809265137,30.0,-12.0,39.11483383178711,0,
 1350311,-0.012451171875,-0.99072265625,0.00244140625,3.262195110321045,-1.3414634466171265,-0.3048780560493469,5.699999809265137,30.0,-12.0,39.35445022583008,0,
 1350321,-0.006591796875,-0.986572265625,0.0224609375,3.445122003555298,-2.4390244483947754,-0.8231707215309143,6.300000190734863,27.899999618530273,-10.199999809265137,39.01898956298828,0,
 1350331,-0.003662109375,-0.978271484375,0.038818359375,2.3475611209869385,-3.628048896789551,-0.8841463327407837,6.449999809265137,28.799999237060547,-12.300000190734863,39.35445022583008,0,
 1350341,-0.00439453125,-0.9482421875,0.02294921875,0.4878048896789551,-4.817073345184326,-0.5487805008888245,6.599999904632568,28.649999618530273,-12.449999809265137,39.11483383178711,0,
 1350351,0.004150390625,-0.95654296875,0.03125,-0.6707317233085632,-3.9634146690368652,-0.8231707215309143,7.050000190734863,29.399999618530273,-14.399999618530273,39.35445022583008,0,
 1350361,0.003662109375,-0.980712890625,0.042724609375,-1.0670732259750366,-3.567073345184326,0.5792682766914368,7.050000190734863,29.399999618530273,-14.399999618530273,39.11483383178711,0,
 1350371,-0.007568359375,-0.983642578125,0.043701171875,-3.079268455505371,-2.5304877758026123,2.6524391174316406,5.849999904632568,28.200000762939453,-11.399999618530273,38.82729721069336,0,
 1350381,-0.027587890625,-0.96337890625,0.05419921875,-6.341463565826416,-1.25,2.8353660106658936,5.699999809265137,29.25,-12.300000190734863,39.2106819152832,0,
 1350391,-0.0302734375,-0.98291015625,0.058837890625,-7.256097793579102,-0.12195122241973877,2.682926893234253,6.449999809265137,27.299999237060547,-11.25,39.2106819152832,0,
 1350401,-0.029541015625,-1.009521484375,0.046875,-8.292682647705078,0.9451219439506531,2.9268293380737305,6.449999809265137,27.299999237060547,-11.25,39.162757873535156,0,
 1350411,-0.038330078125,-1.00244140625,0.036865234375,-10.518293380737305,1.7073171138763428,2.103658676147461,7.050000190734863,29.850000381469727,-10.649999618530273,39.35445022583008,0,
 1350421,-0.031494140625,-1.010498046875,0.01318359375,-10.396341323852539,2.4390244483947754,2.22560977935791,5.849999904632568,30.299999237060547,-9.899999618530273,39.11483383178711,0,
 1350431,-0.025146484375,-0.9951171875,0.011474609375,-9.268292427062988,3.170731782913208,2.2560975551605225,7.199999809265137,29.700000762939453,-10.800000190734863,39.35445022583008,0,
 1350441,-0.01220703125,-1.021728515625,0.001220703125,-6.219512462615967,3.0487804412841797,2.9268293380737305,7.199999809265137,29.700000762939453,-10.800000190734863,39.2106819152832,0,
 1350451,-0.002685546875,-1.006591796875,-0.01513671875,-4.939024448394775,1.9512195587158203,3.079268455505371,6.599999904632568,29.399999618530273,-14.699999809265137,39.35445022583008,0,
 1350461,-0.00732421875,-1.0,-0.013671875,-0.792682945728302,-0.6402438879013062,5.365853786468506,6.75,28.049999237060547,-9.75,38.92314529418945,0,
 1350471,-0.021728515625,-1.005126953125,-0.0078125,-0.4878048896789551,-1.7073171138763428,5.884146690368652,7.199999809265137,28.5,-10.800000190734863,39.30652618408203,0,
 1350481,0.000244140625,-0.97314453125,-0.005615234375,1.1585365533828735,-2.378048896789551,5.670732021331787,6.75,28.799999237060547,-9.75,38.971065521240234,0,
 1350491,-0.00634765625,-0.966796875,0.004638671875,1.1890244483947754,-3.5975611209869385,5.121951103210449,6.75,28.799999237060547,-9.75,39.01898956298828,0,
 1350501,-0.009765625,-0.96630859375,0.0146484375,0.15243902802467346,-3.841463565826416,4.603658676147461,8.100000381469727,28.649999618530273,-11.399999618530273,39.11483383178711,0,
 1350511,-0.016357421875,-0.955078125,0.022705078125,-0.7621951103210449,-3.75,3.8719513416290283,6.599999904632568,29.100000381469727,-11.399999618530273,39.01898956298828,0,
 1350521,-0.02294921875,-0.9619140625,0.03076171875,-2.2865853309631348,-3.47560977935791,3.262195110321045,7.5,29.25,-10.5,39.30652618408203,0,
 1350531,-0.02197265625,-0.969482421875,0.036865234375,-3.3841464519500732,-2.7134146690368652,2.8353660106658936,7.5,29.25,-10.5,39.01898956298828,0,
 1350541,-0.02734375,-0.982421875,0.041748046875,-6.097560882568359,-2.4695122241973877,2.591463565826416,7.050000190734863,27.899999618530273,-11.699999809265137,39.2106819152832,0,
 1350551,-0.028076171875,-0.987548828125,0.041748046875,-9.45121955871582,-1.6158536672592163,1.0670732259750366,8.550000190734863,31.350000381469727,-11.699999809265137,39.2106819152832,0,
 1350561,-0.028564453125,-0.97998046875,0.02978515625,-11.09756088256836,-0.9451219439506531,0.3048780560493469,7.949999809265137,28.5,-9.300000190734863,38.971065521240234,0,
 1350571,-0.03515625,-0.98193359375,0.034912109375,-13.384146690368652,-0.8231707215309143,0.12195122241973877,7.949999809265137,28.5,-9.300000190734863,39.2106819152832,0,
 1350581,-0.0361328125,-0.96728515625,0.03076171875,-14.603658676147461,0.3048780560493469,-1.3109756708145142,6.300000190734863,29.399999618530273,-10.649999618530273,39.30652618408203,0,
 1350591,-0.048828125,-0.9365234375,0.035400390625,-13.536585807800293,1.402438998222351,-2.317073106765747,7.050000190734863,28.649999618530273,-11.399999618530273,39.2106819152832,0,
 1350601,-0.0439453125,-0.94091796875,0.005859375,-14.054878234863281,3.7804877758026123,-3.353658676147461,8.399999618530273,29.25,-10.050000190734863,39.35445022583008,0,
 1350611,-0.031982421875,-0.940185546875,0.003662109375,-13.170731544494629,5.182927131652832,-4.1768293380737305,6.300000190734863,27.899999618530273,-11.699999809265137,39.2106819152832,0,
 1350621,-0.015869140625,-0.948974609375,0.005859375,-13.018293380737305,5.365853786468506,-3.9939024448394775,6.300000190734863,27.899999618530273,-11.699999809265137,39.2106819152832,0,
 1350631,-0.010986328125,-0.95166015625,-0.005615234375,-13.079268455505371,5.182927131652832,-3.262195110321045,7.800000190734863,29.850000381469727,-10.949999809265137,39.2106819152832,0,
 1350641,-0.01123046875,-0.9404296875,-0.018310546875,-11.585366249084473,5.213414669036865,-3.2317073345184326,8.399999618530273,30.0,-11.25,39.2106819152832,0,
 1350651,-0.010498046875,-0.9462890625,-0.02099609375,-9.359756469726562,5.70121955871582,-2.103658676147461,6.300000190734863,29.100000381469727,-11.399999618530273,39.30652618408203,0,
 1350661,-0.0087890625,-0.94677734375,-0.03173828125,-6.920732021331787,6.006097793579102,-2.408536672592163,6.300000190734863,29.100000381469727,-11.399999618530273,38.971065521240234,0,
 1350671,-0.005126953125,-0.94580078125,-0.02587890625,-5.091463565826416,5.579268455505371,-1.7073171138763428,5.849999904632568,31.799999237060547,-9.899999618530273,39.30652618408203,0,
 1350681,-0.003662109375,-0.947509765625,-0.03271484375,-2.378048896789551,4.603658676147461,-1.3109756708145142,7.5,29.25,-9.75,39.11483383178711,0,
 1350691,-0.00244140625,-0.953125,-0.038818359375,-0.3048780560493469,3.7195122241973877,-1.2195122241973877,7.349999904632568,28.649999618530273,-10.199999809265137,39.35445022583008,0,
 1350701,-0.00146484375,-0.95458984375,-0.048828125,2.4390244483947754,2.4390244483947754,-1.2195122241973877,7.349999904632568,28.649999618530273,-10.199999809265137,39.30652618408203,0,
 1350711,0.000244140625,-0.956298828125,-0.046875,4.908536911010742,1.097561001777649,-1.6768293380737305,8.100000381469727,27.450000762939453,-9.899999618530273,38.82729721069336,0,
 1350721,0.00048828125,-0.965576171875,-0.039794921875,6.79878044128418,-0.4878048896789551,-1.5548781156539917,8.550000190734863,29.399999618530273,-9.899999618530273,39.11483383178711,0,
 1350731,-0.00634765625,-0.953857421875,-0.036865234375,9.054878234863281,-1.8292683362960815,-1.737804889678955,7.5,28.5,-10.050000190734863,39.450294494628906,0,
 1350741,-0.0048828125,-0.947265625,-0.031005859375,11.341464042663574,-2.4695122241973877,-2.1646342277526855,6.75,29.700000762939453,-11.550000190734863,39.35445022583008,0,
 1350751,-0.00634765625,-0.952392578125,-0.02099609375,14.085366249084473,-3.262195110321045,-2.103658676147461,6.75,29.700000762939453,-11.550000190734863,39.35445022583008,0,
 1350761,-0.010498046875,-0.969970703125,-0.015380859375,15.884146690368652,-3.932926893234253,-2.317073106765747,6.599999904632568,30.299999237060547,-10.649999618530273,39.01898956298828,0,
 1350771,-0.016845703125,-0.978759765625,0.016357421875,16.036584854125977,-4.512195110321045,-3.0487804412841797,8.100000381469727,29.399999618530273,-9.149999618530273,39.11483383178711,0,
 1350781,-0.04052734375,-0.9677734375,0.017578125,15.457317352294922,-4.45121955871582,-3.3231709003448486,6.449999809265137,28.799999237060547,-10.050000190734863,39.01898956298828,0,
 1350791,-0.05810546875,-0.975830078125,0.0546875,14.939024925231934,-3.6890244483947754,-3.5060975551605225,6.449999809265137,28.799999237060547,-10.050000190734863,39.2106819152832,0,
 1350801,-0.04296875,-0.965087890625,0.067626953125,13.810976028442383,-1.9512195587158203,-4.329268455505371,6.449999809265137,28.799999237060547,-10.050000190734863,39.01898956298828,0,
 1350811,-0.048828125,-1.011962890625,0.087158203125,11.768293380737305,0.3048780560493469,-5.70121955871582,7.949999809265137,28.049999237060547,-10.800000190734863,39.11483383178711,0,
 1350821,-0.0380859375,-1.018798828125,0.07861328125,6.981707572937012,3.1097562313079834,-7.134146690368652,5.25,29.25,-12.300000190734863,39.35445022583008,0,
 1350831,-0.0439453125,-0.95654296875,0.077880859375,1.3719512224197388,5.365853786468506,-8.384146690368652,7.199999809265137,28.5,-11.25,39.30652618408203,0,
 1350841,-0.033935546875,-0.9501953125,0.057373046875,0.4268292784690857,7.77439022064209,-8.445121765136719,6.75,30.450000762939453,-10.5,39.01898956298828,0,
 1350851,-0.019775390625,-0.93701171875,0.02734375,0.7621951103210449,9.786585807800293,-8.90243911743164,6.75,29.700000762939453,-10.800000190734863,39.35445022583008,0,
 1350871,0.0166015625,-0.91455078125,-0.04248046875,7.256097793579102,12.5,-8.262195587158203,6.300000190734863,29.100000381469727,-11.399999618530273,39.2106819152832,0,
 1350881,0.048828125,-0.970458984375,-0.048583984375,13.75,11.95121955871582,-8.87195110321045,6.300000190734863,29.100000381469727,-11.399999618530273,39.450294494628906,0,
 1350891,0.077880859375,-0.988037109375,-0.067626953125,13.90243911743164,8.445121765136719,-9.512195587158203,5.699999809265137,29.25,-10.5,39.30652618408203,0,
 1350901,0.072021484375,-0.97802734375,-0.07958984375,12.682927131652832,2.378048896789551,-10.0,7.050000190734863,27.0,-11.699999809265137,39.01898956298828,0,
 1350911,0.045654296875,-0.91943359375,-0.065673828125,13.87195110321045,-3.0487804412841797,-11.219511985778809,6.75,28.5,-12.0,39.2106819152832,0,
 1350921,0.01708984375,-0.921875,-0.024658203125,26.128049850463867,-4.878048896789551,-11.737805366516113,6.75,28.5,-12.0,39.450294494628906,0,
 1350931,0.01220703125,-0.9697265625,-0.0166015625,28.231708526611328,-4.237804889678955,-9.390244483947754,6.75,28.5,-13.5,39.35445022583008,0,
 1350941,0.02294921875,-0.981689453125,0.03955078125,29.908536911010742,-4.146341323852539,-6.097560882568359,6.300000190734863,29.100000381469727,-11.699999809265137,39.01898956298828,0,
 1350951,0.010498046875,-1.010009765625,0.0498046875,29.176830291748047,-4.0853657722473145,-2.195122003555298,3.9000000953674316,28.649999618530273,-12.899999618530273,39.01898956298828,0,
 1350961,0.008056640625,-1.0263671875,0.081298828125,28.53658676147461,-5.152439117431641,0.6707317233085632,7.199999809265137,30.75,-15.300000190734863,39.35445022583008,0,
 1350971,-0.0009765625,-1.053955078125,0.08642578125,24.29878044128418,-4.634146213531494,2.103658676147461,7.199999809265137,30.75,-15.300000190734863,39.2106819152832,0,
 1350982,0.00634765625,-1.0263671875,0.087646484375,22.865854263305664,-3.567073345184326,1.8292683362960815,6.300000190734863,28.649999618530273,-13.649999618530273,39.35445022583008,0,
 1350992,0.00732421875,-1.023193359375,0.098876953125,21.463415145874023,-4.45121955871582,2.4695122241973877,6.75,29.25,-12.75,39.2106819152832,0,
 1351002,0.0087890625,-1.02783203125,0.0859375,18.90243911743164,-5.640244007110596,2.317073106765747,6.449999809265137,29.700000762939453,-14.25,39.162757873535156,0,
 1351012,-0.015869140625,-1.02294921875,0.06982421875,17.621952056884766,-4.878048896789551,2.103658676147461,6.449999809265137,29.700000762939453,-14.25,39.450294494628906,0,
 1351022,-0.021728515625,-1.042236328125,0.118408203125,16.707317352294922,-6.25,1.5243902206420898,5.699999809265137,28.5,-13.800000190734863,39.2106819152832,0,
 1351032,-0.02734375,-0.97265625,0.03515625,15.884146690368652,-3.445122003555298,0.9756097793579102,6.300000190734863,29.399999618530273,-13.649999618530273,39.2106819152832,0,
 1351042,0.062744140625,-0.949951171875,0.206298828125,15.15243911743164,-5.792683124542236,1.097561001777649,7.199999809265137,28.799999237060547,-12.0,39.35445022583008,0,
 1351052,-0.026611328125,-0.97216796875,0.12060546875,11.615854263305664,-7.1646342277526855,0.4878048896789551,7.199999809265137,28.799999237060547,-12.0,39.01898956298828,0,
 1351062,-0.017333984375,-0.961181640625,0.0888671875,11.280488014221191,-6.79878044128418,-0.3658536672592163,5.25,30.450000762939453,-14.25,39.35445022583008,0,
 1351072,-0.01025390625,-0.924072265625,0.031005859375,11.006097793579102,-3.079268455505371,-1.8902438879013062,5.849999904632568,29.399999618530273,-15.149999618530273,39.2106819152832,0,
 1351082,-0.017822265625,-0.95166015625,0.122802734375,2.682926893234253,-6.554878234863281,-0.12195122241973877,6.300000190734863,27.450000762939453,-13.949999809265137,39.2106819152832,0,
 1351092,0.010498046875,-1.009765625,0.152587890625,0.0,-3.8719513416290283,-1.3719512224197388,5.400000095367432,30.299999237060547,-14.699999809265137,39.162757873535156,0,
 1351102,0.022705078125,-0.943359375,0.158447265625,-5.3353657722473145,-4.02439022064209,-1.7682926654815674,5.400000095367432,30.299999237060547,-14.699999809265137,39.11483383178711,0,
 1351112,-0.014892578125,-0.96240234375,0.130126953125,-9.237805366516113,-1.7682926654815674,-2.9268293380737305,5.849999904632568,27.450000762939453,-14.399999618530273,39.30652618408203,0,
 1351122,0.02001953125,-0.962646484375,0.130615234375,-9.756097793579102,2.317073106765747,-5.121951103210449,6.300000190734863,28.649999618530273,-14.699999809265137,39.2106819152832,0,
 1351132,0.032958984375,-0.97900390625,0.108154296875,-12.865854263305664,3.3841464519500732,-5.487804889678955,6.599999904632568,28.200000762939453,-13.949999809265137,39.2106819152832,0,
 1351142,0.03466796875,-0.941162109375,0.109130859375,-16.40243911743164,3.262195110321045,-4.6646342277526855,6.599999904632568,28.200000762939453,-13.949999809265137,39.35445022583008,0,
 1351152,0.03173828125,-0.968994140625,0.119873046875,-16.40243911743164,2.4695122241973877,-3.2012195587158203,6.0,28.799999237060547,-15.0,39.11483383178711,0,
 1351162,0.02392578125,-0.954345703125,0.08984375,-19.84756088256836,0.5792682766914368,-1.1585365533828735,5.099999904632568,27.899999618530273,-12.149999618530273,39.11483383178711,0,
 1351172,0.017333984375,-0.96142578125,0.083251953125,-21.310976028442383,0.7621951103210449,-0.3353658616542816,7.800000190734863,27.899999618530273,-13.949999809265137,39.35445022583008,0,
 1351182,0.035888671875,-0.974365234375,0.050537109375,-21.79878044128418,1.6768293380737305,-0.5487805008888245,7.800000190734863,27.899999618530273,-13.949999809265137,39.30652618408203,0,
 1351192,0.0361328125,-0.9931640625,0.020263671875,-21.859756469726562,1.8597561120986938,-0.5792682766914368,5.849999904632568,29.399999618530273,-12.449999809265137,39.2106819152832,0,
 1351202,0.01318359375,-0.97265625,0.046630859375,-21.280488967895508,2.77439022064209,-1.8902438879013062,4.949999809265137,28.5,-13.050000190734863,39.01898956298828,0,
 1351212,0.0244140625,-0.988037109375,0.04833984375,-17.591463088989258,2.1341464519500732,-3.079268455505371,5.849999904632568,29.100000381469727,-12.899999618530273,39.2106819152832,0,
 1351222,0.021484375,-0.99609375,0.04736328125,-16.707317352294922,0.8231707215309143,-3.079268455505371,5.849999904632568,29.399999618530273,-12.899999618530273,39.450294494628906,0,
 1351232,0.008056640625,-0.97021484375,0.0390625,-17.7439022064209,0.4573170840740204,-2.865853786468506,5.849999904632568,29.399999618530273,-12.899999618530273,39.35445022583008,0,
 1351242,0.0146484375,-0.973388671875,0.0244140625,-14.634146690368652,0.5182926654815674,-2.9573171138763428,5.699999809265137,28.799999237060547,-11.550000190734863,39.35445022583008,0,
 1351252,0.031494140625,-1.0048828125,0.03125,-12.62195110321045,0.09146341681480408,-2.9573171138763428,5.849999904632568,29.399999618530273,-12.449999809265137,38.92314529418945,0,
 1351262,0.013671875,-0.980224609375,0.031982421875,-12.286585807800293,-0.7012194991111755,-2.103658676147461,7.199999809265137,29.25,-12.300000190734863,39.11483383178711,0,
 1351272,0.01806640625,-0.995361328125,0.026611328125,-10.54878044128418,-0.7621951103210449,-1.7073171138763428,7.199999809265137,29.25,-12.300000190734863,39.35445022583008,0,
 1351282,0.031005859375,-0.9990234375,0.03857421875,-9.420731544494629,-0.9756097793579102,-1.432926893234253,4.349999904632568,27.450000762939453,-12.449999809265137,39.2106819152832,0,
 1351292,0.029541015625,-0.96728515625,0.024658203125,-9.603658676147461,-1.0670732259750366,-0.3658536672592163,4.5,28.799999237060547,-12.300000190734863,39.35445022583008,0,
 1351302,0.024658203125,-0.972412109375,0.026123046875,-7.560975551605225,-0.8231707215309143,0.18292683362960815,5.699999809265137,28.049999237060547,-11.550000190734863,38.92314529418945,0,
 1351312,0.032470703125,-0.95947265625,0.012939453125,-5.609755992889404,-0.8231707215309143,1.0060975551605225,5.699999809265137,28.049999237060547,-11.550000190734863,39.162757873535156,0,
 1351322,0.036376953125,-0.9609375,0.01513671875,-3.932926893234253,-1.585365891456604,1.4939024448394775,3.299999952316284,27.600000381469727,-11.25,39.35445022583008,0,
 1351332,0.0283203125,-0.953369140625,0.0263671875,-2.317073106765747,-2.3475611209869385,1.9817073345184326,6.300000190734863,28.649999618530273,-12.449999809265137,39.2106819152832,0,
 1351342,0.033203125,-0.960205078125,0.02490234375,-1.1890244483947754,-2.7439024448394775,1.737804889678955,4.5,29.25,-11.25,39.30652618408203,0,
 1351352,0.031982421875,-0.95654296875,0.022705078125,-0.030487805604934692,-3.3841464519500732,2.012195110321045,5.849999904632568,29.850000381469727,-12.449999809265137,39.2106819152832,0,
 1351362,0.028564453125,-0.953369140625,0.03076171875,0.3658536672592163,-3.47560977935791,1.6463414430618286,5.849999904632568,29.850000381469727,-12.449999809265137,39.450294494628906,0,
 1351372,0.01953125,-0.96484375,0.032470703125,1.7987805604934692,-4.146341323852539,1.0670732259750366,6.599999904632568,30.600000381469727,-15.449999809265137,39.01898956298828,0,
 1351382,0.02685546875,-0.966064453125,0.039306640625,1.0365853309631348,-4.115853786468506,0.18292683362960815,5.400000095367432,29.399999618530273,-11.699999809265137,39.2106819152832,0,
 1351392,0.01953125,-0.96875,0.039306640625,1.3719512224197388,-4.45121955871582,-0.12195122241973877,4.650000095367432,28.649999618530273,-10.649999618530273,39.01898956298828,0,
 1351402,0.02197265625,-0.951904296875,0.02978515625,1.6158536672592163,-4.420732021331787,-0.6707317233085632,4.650000095367432,28.649999618530273,-10.649999618530273,39.2106819152832,0,
 1351412,0.02197265625,-0.971435546875,0.03271484375,1.5243902206420898,-4.359755992889404,-0.6707317233085632,5.099999904632568,28.649999618530273,-10.949999809265137,39.11483383178711,0,
 1351422,0.0224609375,-0.967041015625,0.03662109375,2.408536672592163,-4.512195110321045,-0.792682945728302,5.099999904632568,27.0,-11.699999809265137,39.162757873535156,0,
 1351432,0.033447265625,-0.97705078125,0.035888671875,1.0060975551605225,-4.359755992889404,-0.7317073345184326,6.0,28.799999237060547,-12.75,39.35445022583008,0,
 1351442,0.030517578125,-0.9794921875,0.032958984375,1.0670732259750366,-5.0,-0.3658536672592163,6.0,28.799999237060547,-12.75,39.01898956298828,0,
 1351452,0.02294921875,-0.978759765625,0.0322265625,1.1585365533828735,-5.4268293380737305,-0.3658536672592163,5.400000095367432,27.899999618530273,-11.399999618530273,39.2106819152832,0,
 1351462,0.03271484375,-0.982421875,0.033935546875,0.7621951103210449,-5.97560977935791,0.6707317233085632,5.849999904632568,28.200000762939453,-10.199999809265137,39.35445022583008,0,
 1351472,0.03857421875,-0.985595703125,0.029541015625,0.3353658616542816,-7.286585330963135,1.432926893234253,5.400000095367432,31.049999237060547,-14.399999618530273,39.2106819152832,0,
 1351482,0.050048828125,-0.97900390625,0.02099609375,-1.4634146690368652,-8.231707572937012,1.5548781156539917,5.099999904632568,27.0,-10.199999809265137,39.2106819152832,0,
 1351492,0.0244140625,-0.9853515625,0.020751953125,-1.7987805604934692,-9.268292427062988,1.7682926654815674,5.099999904632568,27.0,-10.199999809265137,39.01898956298828,0,
 1351502,0.042724609375,-0.997802734375,0.013671875,-3.628048896789551,-10.304878234863281,1.7073171138763428,5.699999809265137,29.25,-10.5,39.2106819152832,0,
 1351512,0.020263671875,-1.00146484375,0.02587890625,-3.170731782913208,-11.67682933807373,1.3719512224197388,5.699999809265137,28.5,-12.0,39.2106819152832,0,
 1351522,0.0283203125,-0.984619140625,0.036865234375,-3.628048896789551,-11.920731544494629,0.6707317233085632,4.949999809265137,29.25,-12.300000190734863,39.35445022583008,0,
 1351532,0.018798828125,-0.991455078125,0.0439453125,-3.9634146690368652,-12.256097793579102,0.9146341681480408,4.949999809265137,29.25,-12.300000190734863,39.11483383178711,0,
 1351542,0.02978515625,-0.976806640625,0.036865234375,-3.2012195587158203,-12.987805366516113,0.4268292784690857,7.050000190734863,30.299999237060547,-12.149999618530273,38.971065521240234,0,
 1351552,0.05029296875,-0.972900390625,0.0517578125,-3.8109757900238037,-13.932927131652832,0.5792682766914368,5.400000095367432,29.399999618530273,-12.449999809265137,39.30652618408203,0,
 1351562,0.014404296875,-1.008056640625,0.0419921875,-4.939024448394775,-13.292683601379395,0.21341463923454285,6.75,29.25,-11.550000190734863,39.2106819152832,0,
 1351572,0.03759765625,-0.963134765625,0.034423828125,-4.02439022064209,-13.993903160095215,0.4573170840740204,6.75,29.25,-11.550000190734863,39.2106819152832,0,
 1351582,0.019775390625,-0.966796875,0.055419921875,-5.365853786468506,-13.536585807800293,-0.6097561120986938,4.949999809265137,28.5,-11.25,39.35445022583008,0,
 1351592,-0.00537109375,-0.988037109375,0.03466796875,-4.878048896789551,-12.92682933807373,-1.0365853309631348,7.050000190734863,28.649999618530273,-12.449999809265137,39.01898956298828,0,
 1351602,-0.000244140625,-0.946044921875,0.049072265625,-4.2682929039001465,-12.07317066192627,-2.1646342277526855,5.849999904632568,27.450000762939453,-10.649999618530273,39.162757873535156,0,
 1351612,0.010009765625,-0.981201171875,0.04541015625,-3.9939024448394775,-11.646341323852539,-2.6524391174316406,6.449999809265137,28.049999237060547,-11.550000190734863,39.2106819152832,0,
 1351622,0.021484375,-0.935546875,0.048095703125,-3.445122003555298,-10.884146690368652,-2.896341562271118,6.449999809265137,28.049999237060547,-11.550000190734863,39.2106819152832,0,
 1351632,0.000244140625,-0.9853515625,0.033935546875,-2.5304877758026123,-9.420731544494629,-3.5365853309631348,5.849999904632568,29.100000381469727,-11.399999618530273,39.2106819152832,0,
 1351642,0.02197265625,-0.986083984375,0.047607421875,-2.865853786468506,-8.262195587158203,-3.8109757900238037,5.099999904632568,27.899999618530273,-9.899999618530273,39.01898956298828,0,
 1351652,0.0,-0.94677734375,0.067138671875,-3.5975611209869385,-6.6768293380737305,-3.7804877758026123,5.699999809265137,28.5,-11.25,39.30652618408203,0,
 1351662,0.010009765625,-0.963623046875,0.06640625,-3.0487804412841797,-4.847560882568359,-3.628048896789551,5.699999809265137,28.5,-11.25,39.162757873535156,0,
 1351672,0.0029296875,-0.97216796875,0.056396484375,-4.207317352294922,-2.987804889678955,-3.841463565826416,5.699999809265137,28.5,-11.550000190734863,39.450294494628906,0,
 1351683,-0.00048828125,-0.97412109375,0.04248046875,-4.481707572937012,-1.3109756708145142,-3.8109757900238037,3.75,26.850000381469727,-12.300000190734863,39.30652618408203,0,
 1351693,0.015625,-0.984375,0.049560546875,-5.243902683258057,0.18292683362960815,-3.5060975551605225,5.099999904632568,28.200000762939453,-9.899999618530273,38.92314529418945,0,
 1351703,0.021484375,-1.0,0.041015625,-6.036585330963135,0.792682945728302,-3.5365853309631348,5.099999904632568,28.200000762939453,-9.899999618530273,39.30652618408203,0,
 1351713,0.02197265625,-0.996337890625,0.04248046875,-8.47560977935791,1.8292683362960815,-3.2317073345184326,4.949999809265137,27.600000381469727,-10.800000190734863,39.35445022583008,0,
 1351723,0.019775390625,-0.9921875,0.0322265625,-10.12195110321045,1.9512195587158203,-3.5060975551605225,4.949999809265137,27.600000381469727,-10.5,39.162757873535156,0,
 1351733,0.027587890625,-0.9833984375,0.019287109375,-10.670731544494629,2.6219513416290283,-3.932926893234253,6.300000190734863,28.200000762939453,-10.199999809265137,39.450294494628906,0,
 1351743,0.032470703125,-0.9765625,0.016845703125,-10.579268455505371,2.804877996444702,-3.1402440071105957,5.25,28.5,-10.5,39.2106819152832,0,
 1351753,0.03857421875,-0.974609375,0.010498046875,-10.213415145874023,2.804877996444702,-2.1646342277526855,5.25,28.5,-10.5,39.2106819152832,0,
 1351763,0.03759765625,-0.974609375,0.00244140625,-8.47560977935791,2.4390244483947754,-1.0060975551605225,4.199999809265137,27.299999237060547,-10.800000190734863,39.35445022583008,0,
 1351773,0.040283203125,-0.97607421875,0.003173828125,-6.95121955871582,2.3475611209869385,-0.12195122241973877,3.75,28.049999237060547,-10.800000190734863,39.30652618408203,0,
 1351783,0.03466796875,-0.966064453125,-0.0029296875,-5.4268293380737305,2.5304877758026123,0.792682945728302,7.050000190734863,28.649999618530273,-10.649999618530273,39.2106819152832,0,
 1351793,0.041259765625,-0.97998046875,0.0107421875,-3.628048896789551,2.195122003555298,1.5243902206420898,7.050000190734863,28.649999618530273,-10.649999618530273,39.01898956298828,0,
 1351803,0.031005859375,-0.97021484375,0.011962890625,-3.5060975551605225,2.5,2.22560977935791,4.5,26.850000381469727,-10.800000190734863,38.92314529418945,0,
 1351813,0.027099609375,-0.970458984375,0.0185546875,-2.6219513416290283,1.8597561120986938,2.5,5.699999809265137,30.0,-10.800000190734863,39.30652618408203,0,
 1351823,0.028564453125,-0.96728515625,0.01220703125,-1.9817073345184326,2.5609755516052246,2.865853786468506,6.300000190734863,27.899999618530273,-11.399999618530273,39.2106819152832,0,
 1351833,0.031005859375,-0.96630859375,0.013427734375,-2.408536672592163,2.7439024448394775,2.408536672592163,6.300000190734863,27.899999618530273,-11.399999618530273,38.92314529418945,0,
 1351843,0.026611328125,-0.965576171875,0.009521484375,-1.6768293380737305,3.0182926654815674,1.920731782913208,4.949999809265137,29.25,-10.050000190734863,39.35445022583008,0,
 1351853,0.033203125,-0.96435546875,0.00927734375,-1.4939024448394775,3.0487804412841797,1.402438998222351,4.949999809265137,27.600000381469727,-10.5,39.2106819152832,0,
 1351863,0.029541015625,-0.95654296875,0.005615234375,-0.7317073345184326,3.2317073345184326,0.9146341681480408,4.949999809265137,28.5,-11.550000190734863,39.2106819152832,0,
 1351873,0.034423828125,-0.972412109375,-0.001708984375,-0.6097561120986938,2.6219513416290283,0.4573170840740204,5.25,27.299999237060547,-10.5,39.30652618408203,0,
 1351883,0.03271484375,-0.9609375,0.00732421875,0.060975611209869385,2.4390244483947754,0.4878048896789551,5.25,27.299999237060547,-10.5,38.92314529418945,0,
 1351893,0.03662109375,-0.964111328125,-0.004150390625,0.7012194991111755,2.1341464519500732,0.21341463923454285,5.25,28.5,-11.25,39.11483383178711,0,
 1351903,0.03173828125,-0.9609375,0.001953125,1.3109756708145142,1.7073171138763428,-0.15243902802467346,5.699999809265137,28.5,-10.5,39.2106819152832,0,
 1351913,0.04248046875,-0.964111328125,-0.00537109375,1.9512195587158203,1.585365891456604,-0.060975611209869385,5.699999809265137,26.850000381469727,-9.75,39.01898956298828,0,
 1351923,0.04052734375,-0.964599609375,0.002685546875,3.567073345184326,0.9756097793579102,-0.396341472864151,5.699999809265137,26.850000381469727,-9.75,39.35445022583008,0,
 1351933,0.034912109375,-0.968505859375,0.007080078125,3.567073345184326,1.0060975551605225,-0.5487805008888245,4.949999809265137,28.049999237060547,-10.5,39.162757873535156,0,
 1351943,0.034912109375,-0.970458984375,0.0087890625,4.237804889678955,0.8841463327407837,-0.4268292784690857,4.349999904632568,27.899999618530273,-9.899999618530273,39.11483383178711,0,
 1351953,0.028076171875,-0.974365234375,0.01611328125,4.634146213531494,0.8231707215309143,-0.5792682766914368,4.650000095367432,28.200000762939453,-8.699999809265137,39.2106819152832,0,
 1351963,0.032470703125,-0.97607421875,0.019287109375,4.542683124542236,0.7621951103210449,-0.8231707215309143,6.0,28.049999237060547,-10.5,39.30652618408203,0,
 1351973,0.02392578125,-0.9716796875,0.01318359375,4.6646342277526855,0.8841463327407837,-0.9146341681480408,4.5,26.850000381469727,-9.75,39.2106819152832,0,
 1351983,0.03076171875,-0.9716796875,0.017578125,4.359755992889404,0.6402438879013062,-1.097561001777649,5.099999904632568,27.450000762939453,-11.399999618530273,38.92314529418945,0,
 1351993,0.027587890625,-0.970703125,0.0224609375,4.72560977935791,0.7621951103210449,-1.2195122241973877,4.5,27.600000381469727,-10.5,39.35445022583008,0,
 1352003,0.03857421875,-0.97314453125,0.022705078125,4.72560977935791,0.7621951103210449,-1.1890244483947754,3.75,28.049999237060547,-9.300000190734863,39.2106819152832,0,
 1352013,0.031982421875,-0.981201171875,0.0205078125,4.512195110321045,0.4878048896789551,-0.7621951103210449,3.75,28.049999237060547,-9.300000190734863,39.11483383178711,0,
 1352023,0.032958984375,-0.972412109375,0.02197265625,4.2682929039001465,0.8536585569381714,-0.6097561120986938,4.349999904632568,28.200000762939453,-10.949999809265137,39.49821853637695,0,
 1352033,0.030517578125,-0.98095703125,0.024658203125,3.841463565826416,0.8841463327407837,0.24390244483947754,5.699999809265137,28.049999237060547,-10.050000190734863,39.01898956298828,0,
 1352043,0.031005859375,-0.981689453125,0.030517578125,3.1402440071105957,0.9451219439506531,0.6097561120986938,5.400000095367432,27.0,-9.899999618530273,39.162757873535156,0,
 1352053,0.076171875,-0.938232421875,0.06005859375,2.103658676147461,1.0060975551605225,1.0060975551605225,5.400000095367432,27.0,-9.899999618530273,39.2106819152832,0,
 1352063,0.012451171875,-1.0146484375,0.072021484375,1.8292683362960815,1.585365891456604,0.9756097793579102,3.1500000953674316,27.450000762939453,-10.199999809265137,39.2106819152832,0,
 1352073,0.01904296875,-0.974853515625,0.033203125,1.7987805604934692,0.7621951103210449,1.6463414430618286,4.949999809265137,28.049999237060547,-11.550000190734863,38.92314529418945,0,
 1352083,0.026123046875,-0.984619140625,0.015869140625,0.792682945728302,0.7621951103210449,1.2195122241973877,5.849999904632568,27.0,-11.699999809265137,39.162757873535156,0,
 1352093,0.017333984375,-0.974853515625,0.007080078125,-0.5487805008888245,0.7012194991111755,0.8231707215309143,6.0,25.649999618530273,-13.050000190734863,39.2106819152832,0,
 1352103,0.037353515625,-0.984619140625,0.03076171875,0.3048780560493469,0.9756097793579102,0.7012194991111755,4.949999809265137,27.299999237060547,-11.550000190734863,39.450294494628906,0,
 1352113,0.0263671875,-0.97900390625,0.0302734375,-0.5182926654815674,0.9146341681480408,0.18292683362960815,3.75,29.700000762939453,-11.550000190734863,39.01898956298828,0,
 1352123,0.03125,-0.97021484375,0.026611328125,-1.4634146690368652,0.6707317233085632,-0.09146341681480408,5.099999904632568,27.450000762939453,-11.399999618530273,39.30652618408203,0,
 1352133,0.034423828125,-0.97998046875,0.02490234375,-1.7987805604934692,0.792682945728302,0.12195122241973877,5.400000095367432,29.399999618530273,-12.149999618530273,39.2106819152832,0,
 1352143,0.0283203125,-0.976806640625,0.0234375,-2.103658676147461,0.6097561120986938,0.060975611209869385,5.400000095367432,29.399999618530273,-12.149999618530273,39.450294494628906,0,
 1352153,0.033935546875,-0.974853515625,0.0224609375,-1.8902438879013062,0.396341472864151,0.15243902802467346,5.400000095367432,28.200000762939453,-10.949999809265137,39.30652618408203,0,
 1352163,0.030029296875,-0.974609375,0.025390625,-2.1646342277526855,0.396341472864151,0.4268292784690857,4.199999809265137,29.25,-10.050000190734863,39.01898956298828,0,
 1352173,0.03564453125,-0.974365234375,0.02490234375,-2.012195110321045,0.4573170840740204,0.396341472864151,4.5,28.5,-11.25,39.30652618408203,0,
 1352183,0.0322265625,-0.976318359375,0.024658203125,-2.0731706619262695,0.396341472864151,1.0670732259750366,4.5,28.5,-11.25,39.01898956298828,0,
 1352193,0.03466796875,-0.9814453125,0.02001953125,-2.5304877758026123,0.3048780560493469,0.9756097793579102,6.449999809265137,26.399999618530273,-10.5,38.92314529418945,0,
 1352203,0.02880859375,-0.974853515625,0.02294921875,-3.0487804412841797,0.6707317233085632,1.3414634466171265,4.949999809265137,28.049999237060547,-10.800000190734863,39.30652618408203,0,
 1352213,0.031494140625,-0.974609375,0.024169921875,-3.3841464519500732,0.6097561120986938,1.7987805604934692,3.299999952316284,29.25,-10.5,39.30652618408203,0,
 1352223,0.03466796875,-0.967529296875,0.016357421875,-3.5060975551605225,0.6402438879013062,2.1341464519500732,4.5,28.049999237060547,-10.050000190734863,39.01898956298828,0,
 1352233,0.0361328125,-0.970458984375,0.006103515625,-3.170731782913208,0.6097561120986938,1.9817073345184326,4.5,28.049999237060547,-10.050000190734863,39.11483383178711,0,
 1352243,0.030517578125,-0.95947265625,0.01318359375,-2.896341562271118,0.4878048896789551,1.7987805604934692,3.9000000953674316,27.450000762939453,-10.649999618530273,39.2106819152832,0,
 1352253,0.02490234375,-0.966064453125,0.015625,-2.317073106765747,0.3658536672592163,1.3109756708145142,3.9000000953674316,29.100000381469727,-10.649999618530273,39.30652618408203,0,
 1352263,0.03173828125,-0.97314453125,0.015380859375,-1.4939024448394775,0.4573170840740204,1.2804877758026123,5.25,28.799999237060547,-10.5,39.01898956298828,0,
 1352273,0.0302734375,-0.977294921875,0.02099609375,-1.1585365533828735,0.24390244483947754,1.0365853309631348,5.25,28.799999237060547,-10.5,39.2106819152832,0,
 1352283,0.033203125,-0.97265625,0.0166015625,-1.0365853309631348,0.27439025044441223,1.920731782913208,5.099999904632568,28.200000762939453,-9.899999618530273,39.162757873535156,0,
 1352293,0.02783203125,-0.976806640625,0.017822265625,-1.4939024448394775,0.27439025044441223,1.920731782913208,4.349999904632568,31.049999237060547,-12.899999618530273,39.2106819152832,0,
 1352303,0.0302734375,-0.97802734375,0.0234375,-1.6768293380737305,0.27439025044441223,1.7987805604934692,3.9000000953674316,27.0,-10.649999618530273,39.30652618408203,0,
 1352313,0.02685546875,-0.975830078125,0.01904296875,-1.0365853309631348,0.15243902802467346,1.920731782913208,3.9000000953674316,27.0,-10.649999618530273,39.2106819152832,0,
 1352323,0.02294921875,-0.9755859375,0.0185546875,-1.1890244483947754,0.27439025044441223,1.3414634466171265,5.099999904632568,28.200000762939453,-12.149999618530273,38.92314529418945,0,
 1352333,0.024169921875,-0.98193359375,0.016845703125,-1.6158536672592163,0.4268292784690857,1.2195122241973877,3.299999952316284,28.799999237060547,-10.050000190734863,39.11483383178711,0,
 1352343,0.022705078125,-0.973388671875,0.02099609375,-1.920731782913208,0.27439025044441223,0.7012194991111755,4.199999809265137,30.0,-9.75,39.2106819152832,0,
 1352353,0.02734375,-0.98291015625,0.02099609375,-1.7682926654815674,0.21341463923454285,0.5487805008888245,4.5,28.5,-9.300000190734863,39.162757873535156,0,
 1352363,0.021728515625,-0.97509765625,0.012451171875,-1.4634146690368652,0.4878048896789551,-0.060975611209869385,4.5,28.5,-9.300000190734863,39.162757873535156,0,
 1352373,0.0244140625,-0.97998046875,0.014404296875,-1.25,0.3353658616542816,0.12195122241973877,5.25,29.25,-11.25,39.11483383178711,0,
 1352384,0.0263671875,-0.972900390625,0.014404296875,-0.9146341681480408,0.24390244483947754,0.060975611209869385,4.949999809265137,26.850000381469727,-9.75,39.11483383178711,0,
 1352394,0.027099609375,-0.974609375,0.0107421875,0.24390244483947754,0.4878048896789551,-0.060975611209869385,4.349999904632568,28.649999618530273,-10.199999809265137,39.35445022583008,0,
 1352404,0.03173828125,-0.975341796875,0.013671875,0.7317073345184326,0.24390244483947754,-0.396341472864151,4.349999904632568,28.649999618530273,-10.199999809265137,39.35445022583008,0,
 1352414,0.02734375,-0.96875,0.0048828125,1.0365853309631348,0.3658536672592163,-0.12195122241973877,5.400000095367432,29.399999618530273,-9.899999618530273,39.2106819152832,0,
 1352424,0.02978515625,-0.968505859375,0.01416015625,1.0060975551605225,0.27439025044441223,0.15243902802467346,4.349999904632568,30.299999237060547,-9.899999618530273,38.82729721069336,0,
 1352434,0.02880859375,-0.971923828125,0.017822265625,1.7073171138763428,-0.15243902802467346,0.030487805604934692,5.849999904632568,28.649999618530273,-10.199999809265137,39.162757873535156,0,
 1352444,0.033203125,-0.976318359375,0.02001953125,1.7073171138763428,0.21341463923454285,0.030487805604934692,5.849999904632568,28.649999618530273,-10.199999809265137,39.2106819152832,0,
 1352454,0.026123046875,-0.969482421875,0.021728515625,1.6158536672592163,0.030487805604934692,0.3353658616542816,4.949999809265137,28.799999237060547,-11.550000190734863,39.2106819152832,0,
 1352464,0.02587890625,-0.974609375,0.017822265625,1.585365891456604,0.15243902802467346,0.5182926654815674,4.199999809265137,30.0,-10.5,39.2106819152832,0,
 1352474,0.0185546875,-0.973876953125,0.0224609375,1.1585365533828735,0.3353658616542816,0.0,4.949999809265137,27.600000381469727,-10.800000190734863,38.77937698364258,0,
 1352484,0.028076171875,-0.971435546875,0.019287109375,1.0060975551605225,0.3353658616542816,0.15243902802467346,5.400000095367432,25.5,-10.649999618530273,39.30652618408203,0,
 1352494,0.029052734375,-0.9697265625,0.015869140625,0.6707317233085632,0.24390244483947754,-0.060975611209869385,5.400000095367432,25.5,-10.649999618530273,39.2106819152832,0,
 1352504,0.026611328125,-0.974853515625,0.021728515625,0.3658536672592163,0.3048780560493469,-0.060975611209869385,5.25,26.850000381469727,-10.800000190734863,39.2106819152832,0,
 1352514,0.028564453125,-0.97119140625,0.017822265625,0.3048780560493469,0.6402438879013062,0.030487805604934692,6.0,29.25,-12.300000190734863,39.35445022583008,0,
 1352524,0.0302734375,-0.975830078125,0.0205078125,0.030487805604934692,0.3658536672592163,0.12195122241973877,4.349999904632568,28.200000762939453,-10.949999809265137,39.11483383178711,0,
 1352534,0.028564453125,-0.9765625,0.02490234375,0.0,0.6097561120986938,0.5487805008888245,4.349999904632568,28.200000762939453,-10.949999809265137,39.11483383178711,0,
 1352544,0.029296875,-0.9814453125,0.0205078125,0.030487805604934692,0.3048780560493469,0.21341463923454285,3.75,28.049999237060547,-9.75,39.450294494628906,0,
 1352554,0.028076171875,-0.97705078125,0.02197265625,-0.3658536672592163,0.09146341681480408,0.4268292784690857,3.9000000953674316,28.649999618530273,-10.649999618530273,39.2106819152832,0,
 1352564,0.032470703125,-0.97607421875,0.021240234375,-0.8841463327407837,0.7012194991111755,0.396341472864151,4.349999904632568,28.200000762939453,-9.149999618530273,39.2106819152832,0,
 1352574,0.02978515625,-0.980224609375,0.021484375,-0.8536585569381714,0.030487805604934692,0.4573170840740204,4.349999904632568,28.200000762939453,-9.149999618530273,38.971065521240234,0,
 1352584,0.02685546875,-0.9716796875,0.01611328125,-1.1585365533828735,0.21341463923454285,0.396341472864151,5.25,28.799999237060547,-10.800000190734863,39.30652618408203,0,
 1352594,0.02392578125,-0.972900390625,0.02099609375,-0.9146341681480408,0.4878048896789551,0.4268292784690857,4.650000095367432,29.100000381469727,-10.949999809265137,39.49821853637695,0,
 1352604,0.027587890625,-0.974365234375,0.0224609375,-1.0670732259750366,0.4573170840740204,0.27439025044441223,6.599999904632568,27.899999618530273,-15.149999618530273,39.2106819152832,0,
 1352614,0.03076171875,-0.977783203125,0.017578125,-1.2804877758026123,0.3048780560493469,0.15243902802467346,5.400000095367432,29.100000381469727,-10.199999809265137,39.30652618408203,0,
 1352624,0.024169921875,-0.97119140625,0.018310546875,-1.25,0.396341472864151,0.030487805604934692,5.400000095367432,29.100000381469727,-10.199999809265137,39.11483383178711,0,
 1352634,0.02978515625,-0.97412109375,0.016845703125,-1.25,0.3658536672592163,-0.060975611209869385,4.199999809265137,27.600000381469727,-10.800000190734863,39.11483383178711,0,
 1352644,0.0283203125,-0.9736328125,0.018798828125,-1.0365853309631348,0.3048780560493469,-0.12195122241973877,3.75,28.799999237060547,-8.25,39.35445022583008,0,
 1352654,0.029052734375,-0.971923828125,0.01806640625,-1.3719512224197388,0.8231707215309143,-0.15243902802467346,5.099999904632568,28.649999618530273,-10.199999809265137,39.162757873535156,0,
 1352664,0.03076171875,-0.97509765625,0.02294921875,-1.6158536672592163,0.5487805008888245,-0.15243902802467346,5.099999904632568,28.649999618530273,-10.199999809265137,39.2106819152832,0,
 1352674,0.02880859375,-0.973388671875,0.0205078125,-1.7073171138763428,0.3353658616542816,0.060975611209869385,5.699999809265137,28.5,-10.5,39.11483383178711,0,
 1352684,0.03369140625,-0.9775390625,0.013916015625,-1.5243902206420898,0.792682945728302,0.3048780560493469,5.099999904632568,28.200000762939453,-11.399999618530273,39.2106819152832,0,
 1352694,0.033935546875,-0.971435546875,0.015380859375,-1.585365891456604,0.3658536672592163,0.27439025044441223,3.5999999046325684,28.649999618530273,-9.149999618530273,39.30652618408203,0,
 1352704,0.02880859375,-0.970947265625,0.015625,-1.25,0.6402438879013062,0.15243902802467346,3.5999999046325684,28.649999618530273,-9.149999618530273,39.35445022583008,0,
 1352714,0.0322265625,-0.976318359375,0.012939453125,-0.8536585569381714,0.4268292784690857,0.3048780560493469,4.949999809265137,28.049999237060547,-10.800000190734863,39.35445022583008,0,
 1352724,0.028564453125,-0.97705078125,0.014892578125,-0.5792682766914368,0.4878048896789551,0.396341472864151,4.949999809265137,29.700000762939453,-9.0,39.2106819152832,0,
 1352734,0.025634765625,-0.97314453125,0.016845703125,-0.24390244483947754,0.27439025044441223,0.6097561120986938,4.949999809265137,29.25,-11.550000190734863,39.162757873535156,0,
 1352744,0.02734375,-0.970947265625,0.014404296875,0.060975611209869385,0.5487805008888245,0.396341472864151,4.949999809265137,28.5,-10.5,39.2106819152832,0,
 1352754,0.031005859375,-0.969970703125,0.0146484375,0.060975611209869385,0.4878048896789551,0.5487805008888245,4.949999809265137,28.5,-10.5,39.35445022583008,0,
 1352764,0.031494140625,-0.971923828125,0.021484375,-0.3048780560493469,0.5487805008888245,0.3658536672592163,4.650000095367432,27.450000762939453,-10.649999618530273,38.82729721069336,0,
 1352774,0.032470703125,-0.9716796875,0.018798828125,0.24390244483947754,0.27439025044441223,0.4268292784690857,4.949999809265137,29.25,-10.5,39.35445022583008,0,
 1352784,0.032958984375,-0.9736328125,0.017822265625,0.15243902802467346,0.5182926654815674,0.4878048896789551,5.699999809265137,28.049999237060547,-10.5,39.2106819152832,0,
 1352794,0.0283203125,-0.975341796875,0.01904296875,0.0,0.4268292784690857,0.3658536672592163,5.699999809265137,28.049999237060547,-10.5,39.11483383178711,0,
 1352804,0.025390625,-0.98095703125,0.0185546875,0.15243902802467346,0.6707317233085632,0.5182926654815674,4.5,29.700000762939453,-13.5,39.11483383178711,0,
 1352814,0.02978515625,-0.979248046875,0.0205078125,-0.15243902802467346,0.5792682766914368,0.7012194991111755,3.5999999046325684,27.0,-10.199999809265137,39.11483383178711,0,
 1352824,0.030029296875,-0.974609375,0.021484375,-0.09146341681480408,0.5792682766914368,0.5792682766914368,6.0,28.049999237060547,-10.050000190734863,39.2106819152832,0,
 1352834,0.02783203125,-0.97607421875,0.017578125,0.060975611209869385,0.396341472864151,0.6402438879013062,6.0,28.049999237060547,-10.050000190734863,39.11483383178711,0,
 1352844,0.02734375,-0.98193359375,0.018310546875,0.15243902802467346,0.396341472864151,0.4878048896789551,4.349999904632568,28.200000762939453,-9.449999809265137,39.450294494628906,0,
 1352854,0.0302734375,-0.97216796875,0.017822265625,-0.030487805604934692,0.4573170840740204,0.6707317233085632,4.349999904632568,29.100000381469727,-10.649999618530273,39.2106819152832,0,
 1352864,0.031005859375,-0.973876953125,0.0166015625,-0.18292683362960815,0.3353658616542816,0.7012194991111755,5.099999904632568,27.899999618530273,-9.899999618530273,38.92314529418945,0,
 1352874,0.029541015625,-0.978759765625,0.0205078125,0.3048780560493469,0.18292683362960815,0.6707317233085632,5.099999904632568,28.200000762939453,-9.899999618530273,39.30652618408203,0,
 1352884,0.029541015625,-0.97265625,0.0205078125,0.24390244483947754,0.5792682766914368,0.7012194991111755,5.099999904632568,28.200000762939453,-9.899999618530273,39.2106819152832,0,
 1352894,0.02978515625,-0.976806640625,0.020751953125,0.060975611209869385,0.3658536672592163,1.1280487775802612,6.300000190734863,29.100000381469727,-9.899999618530273,39.11483383178711,0,
 1352904,0.0244140625,-0.97412109375,0.017822265625,-0.09146341681480408,0.3658536672592163,0.8536585569381714,6.300000190734863,28.200000762939453,-10.949999809265137,39.450294494628906,0,
 1352914,0.035400390625,-0.979248046875,0.01025390625,0.09146341681480408,0.5182926654815674,0.4573170840740204,4.650000095367432,27.450000762939453,-12.149999618530273,39.2106819152832,0,
 1352924,0.03271484375,-0.96923828125,0.017822265625,0.27439025044441223,0.7621951103210449,0.3353658616542816,4.650000095367432,27.450000762939453,-12.149999618530273,39.01898956298828,0,
 1352934,0.024658203125,-0.97265625,0.02490234375,0.09146341681480408,0.6707317233085632,0.5182926654815674,3.5999999046325684,27.899999618530273,-9.899999618530273,39.35445022583008,0,
 1352944,0.027587890625,-0.977783203125,0.0244140625,0.24390244483947754,0.4878048896789551,0.030487805604934692,4.5,28.799999237060547,-11.25,39.35445022583008,0,
 1352954,0.025390625,-0.97412109375,0.02001953125,-0.060975611209869385,0.396341472864151,0.18292683362960815,4.5,26.850000381469727,-10.050000190734863,39.2106819152832,0,
 1352964,0.034423828125,-0.978515625,0.018310546875,-0.396341472864151,0.5182926654815674,0.4573170840740204,4.949999809265137,27.299999237060547,-9.75,39.01898956298828,0,
 1352974,0.0283203125,-0.9765625,0.0224609375,-0.6707317233085632,0.4878048896789551,0.5487805008888245,5.25,28.049999237060547,-10.050000190734863,39.2106819152832,0,
 1352984,0.027099609375,-0.973876953125,0.022216796875,-0.7317073345184326,0.4268292784690857,0.8536585569381714,4.5,27.600000381469727,-10.5,38.971065521240234,0,
 1352994,0.026611328125,-0.97802734375,0.017578125,-0.5182926654815674,0.24390244483947754,0.6402438879013062,5.25,26.399999618530273,-10.800000190734863,39.2106819152832,0,
 1353004,0.027587890625,-0.974365234375,0.018798828125,-0.3048780560493469,0.4573170840740204,0.8231707215309143,4.199999809265137,28.799999237060547,-10.800000190734863,39.2106819152832,0,
 1353014,0.032470703125,-0.97802734375,0.023681640625,-0.6097561120986938,0.4878048896789551,0.4268292784690857,4.199999809265137,28.799999237060547,-10.800000190734863,39.162757873535156,0,
 1353024,0.0224609375,-0.97412109375,0.020751953125,-0.3048780560493469,0.5487805008888245,0.4878048896789551,5.25,27.299999237060547,-12.0,39.01898956298828,0,
 1353034,0.02734375,-0.97900390625,0.019775390625,-0.4268292784690857,0.396341472864151,0.6402438879013062,4.349999904632568,29.100000381469727,-10.649999618530273,39.30652618408203,0,
 1353044,0.031005859375,-0.9794921875,0.0146484375,-0.5487805008888245,0.15243902802467346,0.27439025044441223,5.400000095367432,29.100000381469727,-9.899999618530273,39.11483383178711,0,
 1353054,0.0302734375,-0.972900390625,0.0185546875,-0.15243902802467346,0.4878048896789551,0.3353658616542816,5.400000095367432,29.100000381469727,-9.899999618530273,39.450294494628906,0,
 1353064,0.022216796875,-0.980224609375,0.02197265625,-0.21341463923454285,0.4573170840740204,0.5487805008888245,5.699999809265137,28.049999237060547,-9.75,39.01898956298828,0,
 1353074,0.031494140625,-0.97265625,0.017333984375,-0.4573170840740204,0.3658536672592163,0.5487805008888245,4.5,28.799999237060547,-9.75,39.11483383178711,0,
 1353084,0.027099609375,-0.9765625,0.022705078125,-0.18292683362960815,0.3658536672592163,0.27439025044441223,4.5,29.25,-9.300000190734863,39.450294494628906,0,
 1353094,0.029052734375,-0.971923828125,0.01806640625,0.030487805604934692,0.4268292784690857,0.5487805008888245,4.199999809265137,28.049999237060547,-11.25,39.35445022583008,0,
 1353104,0.02294921875,-0.97412109375,0.023681640625,0.18292683362960815,0.5182926654815674,0.4268292784690857,3.75,28.049999237060547,-11.25,39.2106819152832,0,
 1353114,0.022705078125,-0.9697265625,0.01708984375,0.15243902802467346,0.3048780560493469,0.396341472864151,5.699999809265137,32.400001525878906,-13.5,38.971065521240234,0,
 1353124,0.031494140625,-0.977294921875,0.017822265625,-0.396341472864151,0.24390244483947754,0.6097561120986938,5.099999904632568,29.100000381469727,-10.649999618530273,39.2106819152832,0,
 1353134,0.031982421875,-0.97998046875,0.0185546875,0.09146341681480408,0.5792682766914368,0.5487805008888245,4.949999809265137,28.799999237060547,-10.800000190734863,39.35445022583008,0,
 1353145,0.03271484375,-0.980224609375,0.021484375,0.15243902802467346,0.5487805008888245,0.7012194991111755,4.949999809265137,28.799999237060547,-10.800000190734863,39.30652618408203,0,
 1353155,0.029052734375,-0.9755859375,0.016845703125,-0.15243902802467346,0.5182926654815674,0.8841463327407837,4.5,28.5,-11.25,39.2106819152832,0,
 1353165,0.02490234375,-0.9814453125,0.018798828125,0.0,0.3048780560493469,1.0670732259750366,6.300000190734863,26.25,-12.149999618530273,39.450294494628906,0,
 1353175,0.01953125,-0.9697265625,0.01513671875,0.12195122241973877,0.4268292784690857,0.7012194991111755,5.099999904632568,28.649999618530273,-11.699999809265137,39.450294494628906,0,
 1353185,0.027587890625,-0.974853515625,0.019775390625,0.27439025044441223,0.15243902802467346,0.396341472864151,5.099999904632568,28.649999618530273,-11.699999809265137,39.162757873535156,0,
 1353195,0.028564453125,-0.967529296875,0.020751953125,0.030487805604934692,0.030487805604934692,0.21341463923454285,5.25,29.25,-9.300000190734863,39.450294494628906,0,
 1353205,0.024658203125,-0.97119140625,0.021240234375,0.21341463923454285,0.4268292784690857,-0.060975611209869385,4.5,29.25,-10.800000190734863,38.92314529418945,0,
 1353215,0.034423828125,-0.974609375,0.01953125,0.21341463923454285,0.5792682766914368,0.5487805008888245,3.75,30.0,-11.550000190734863,39.2106819152832,0,
 1353225,0.022705078125,-0.97021484375,0.0205078125,0.24390244483947754,0.4573170840740204,0.21341463923454285,4.650000095367432,27.899999618530273,-10.199999809265137,39.450294494628906,0,
 1353235,0.028564453125,-0.97509765625,0.022705078125,-0.060975611209869385,0.396341472864151,0.5792682766914368,4.650000095367432,27.899999618530273,-10.199999809265137,39.2106819152832,0,
 1353245,0.02490234375,-0.979736328125,0.02490234375,-0.4268292784690857,0.24390244483947754,0.5182926654815674,4.949999809265137,28.799999237060547,-11.25,39.35445022583008,0,
 1353255,0.024169921875,-0.97216796875,0.0224609375,-0.27439025044441223,0.3048780560493469,0.4268292784690857,4.199999809265137,27.600000381469727,-10.5,39.01898956298828,0,
 1353265,0.03125,-0.98046875,0.025390625,-0.4268292784690857,0.4268292784690857,0.5182926654815674,5.699999809265137,28.5,-10.5,39.35445022583008,0,
 1353275,0.02685546875,-0.973388671875,0.02587890625,-0.4268292784690857,0.4573170840740204,0.7012194991111755,5.699999809265137,28.5,-10.5,39.2106819152832,0,
 1353285,0.021484375,-0.97607421875,0.019287109375,-0.5182926654815674,0.3658536672592163,0.6097561120986938,5.699999809265137,28.5,-10.5,39.162757873535156,0,
 1353295,0.0205078125,-0.9716796875,0.0244140625,-0.4878048896789551,0.3353658616542816,0.7621951103210449,5.400000095367432,28.200000762939453,-10.199999809265137,39.01898956298828,0,
 1353305,0.02392578125,-0.971435546875,0.0244140625,-0.4878048896789551,0.21341463923454285,0.4878048896789551,4.5,27.600000381469727,-11.25,39.01898956298828,0,
 1353315,0.029052734375,-0.979736328125,0.02294921875,-0.6097561120986938,0.4268292784690857,0.09146341681480408,4.5,27.600000381469727,-11.25,39.450294494628906,0,
 1353325,0.02783203125,-0.97216796875,0.0205078125,-0.6097561120986938,0.396341472864151,0.396341472864151,3.75,28.5,-10.800000190734863,39.2106819152832,0,
 1353335,0.02734375,-0.974609375,0.01806640625,-0.7621951103210449,0.4573170840740204,0.4573170840740204,3.75,28.799999237060547,-10.050000190734863,39.11483383178711,0,
 1353345,0.0283203125,-0.970458984375,0.021240234375,-0.5792682766914368,0.3048780560493469,0.12195122241973877,5.25,27.299999237060547,-10.800000190734863,39.35445022583008,0,
 1353355,0.024169921875,-0.973388671875,0.018310546875,-0.4878048896789551,0.4573170840740204,0.8231707215309143,4.949999809265137,27.600000381469727,-10.800000190734863,39.01898956298828,0,
 1353365,0.024658203125,-0.9716796875,0.0205078125,-0.6097561120986938,0.4268292784690857,0.3048780560493469,4.949999809265137,27.600000381469727,-10.800000190734863,39.01898956298828,0,
 1353375,0.03173828125,-0.975341796875,0.021240234375,-0.8231707215309143,0.27439025044441223,0.3048780560493469,5.849999904632568,28.649999618530273,-9.899999618530273,39.2106819152832,0,
 1353385,0.0234375,-0.973876953125,0.020751953125,-0.4268292784690857,0.5792682766914368,0.3353658616542816,5.25,27.600000381469727,-10.5,39.01898956298828,0,
 1353395,0.02783203125,-0.978271484375,0.022705078125,-0.4573170840740204,0.3658536672592163,0.4878048896789551,4.949999809265137,28.5,-10.050000190734863,39.450294494628906,0,
 1353405,0.026611328125,-0.972900390625,0.0224609375,-0.6097561120986938,0.3658536672592163,0.3353658616542816,4.949999809265137,28.5,-10.050000190734863,39.2106819152832,0,
 1353415,0.02587890625,-0.97509765625,0.014404296875,-0.21341463923454285,0.24390244483947754,0.7012194991111755,3.9000000953674316,28.649999618530273,-10.649999618530273,39.2106819152832,0,
 1353425,0.026123046875,-0.97021484375,0.019775390625,-0.3353658616542816,0.3048780560493469,0.5487805008888245,5.699999809265137,28.5,-14.25,39.35445022583008,0,
 1353435,0.028564453125,-0.978759765625,0.024169921875,-0.3353658616542816,0.18292683362960815,0.3658536672592163,4.949999809265137,27.600000381469727,-10.5,39.35445022583008,0,
 1353445,0.025634765625,-0.975830078125,0.018310546875,-0.5792682766914368,0.5182926654815674,0.396341472864151,4.949999809265137,27.600000381469727,-10.5,39.2106819152832,0,
 1353455,0.020751953125,-0.9677734375,0.02197265625,-0.09146341681480408,0.27439025044441223,0.6707317233085632,5.849999904632568,28.649999618530273,-10.949999809265137,38.92314529418945,0,
 1353465,0.030517578125,-0.969970703125,0.0283203125,-0.27439025044441223,0.7012194991111755,0.21341463923454285,5.099999904632568,27.899999618530273,-9.899999618530273,39.2106819152832,0,
 1353475,0.024169921875,-0.9775390625,0.0224609375,0.09146341681480408,0.4573170840740204,0.15243902802467346,5.849999904632568,27.0,-9.899999618530273,39.2106819152832,0,
 1353485,0.02294921875,-0.976806640625,0.01806640625,-0.4268292784690857,0.27439025044441223,0.396341472864151,4.199999809265137,28.049999237060547,-10.5,39.2106819152832,0,
 1353495,0.031005859375,-0.975830078125,0.023681640625,-0.18292683362960815,0.3353658616542816,0.3048780560493469,4.199999809265137,28.049999237060547,-10.5,39.2106819152832,0,
 1353505,0.025146484375,-0.974365234375,0.02001953125,-0.18292683362960815,0.3658536672592163,0.6402438879013062,5.849999904632568,27.450000762939453,-11.399999618530273,39.01898956298828,0,
 1353515,0.029052734375,-0.9716796875,0.017822265625,-0.030487805604934692,0.15243902802467346,0.5487805008888245,5.400000095367432,27.899999618530273,-8.399999618530273,39.35445022583008,0,
 1353525,0.024169921875,-0.971435546875,0.022705078125,-0.5792682766914368,0.3353658616542816,0.4878048896789551,7.050000190734863,31.350000381469727,-13.649999618530273,39.450294494628906,0,
 1353535,0.02392578125,-0.97021484375,0.018798828125,-0.3048780560493469,0.3658536672592163,0.24390244483947754,7.050000190734863,31.350000381469727,-13.649999618530273,39.35445022583008,0,
 1353545,0.023681640625,-0.97412109375,0.02099609375,-0.5182926654815674,0.3658536672592163,0.4878048896789551,4.650000095367432,28.200000762939453,-9.899999618530273,39.01898956298828,0,
 1353555,0.0244140625,-0.97412109375,0.025390625,-0.27439025044441223,0.3048780560493469,0.24390244483947754,3.9000000953674316,27.450000762939453,-10.649999618530273,39.01898956298828,0,
 1353565,0.02392578125,-0.974365234375,0.020263671875,-0.18292683362960815,0.4878048896789551,0.12195122241973877,4.5,28.799999237060547,-10.5,39.35445022583008,0,
 1353575,0.024658203125,-0.97802734375,0.01904296875,-0.09146341681480408,0.3048780560493469,0.27439025044441223,4.5,28.799999237060547,-10.5,39.2106819152832,0,
 1353585,0.025634765625,-0.97314453125,0.023193359375,-0.27439025044441223,0.4878048896789551,0.4573170840740204,6.599999904632568,28.649999618530273,-10.649999618530273,39.11483383178711,0,
 1353595,0.025390625,-0.97216796875,0.025146484375,-0.4878048896789551,0.27439025044441223,0.18292683362960815,6.449999809265137,29.700000762939453,-9.75,39.162757873535156,0,
 1353605,0.030517578125,-0.976806640625,0.023681640625,-0.4878048896789551,0.24390244483947754,0.27439025044441223,5.099999904632568,28.200000762939453,-10.949999809265137,38.92314529418945,0,
 1353615,0.024169921875,-0.9755859375,0.0185546875,-0.4268292784690857,0.4268292784690857,0.060975611209869385,4.949999809265137,28.799999237060547,-10.050000190734863,39.30652618408203,0,
 1353625,0.028564453125,-0.967041015625,0.022705078125,-0.4573170840740204,0.6097561120986938,0.4878048896789551,4.949999809265137,28.799999237060547,-10.050000190734863,39.2106819152832,0,
 1353635,0.0244140625,-0.97607421875,0.02490234375,-0.5487805008888245,0.15243902802467346,0.6402438879013062,5.099999904632568,28.649999618530273,-9.899999618530273,39.01898956298828,0,
 1353645,0.028076171875,-0.973876953125,0.020751953125,-0.6097561120986938,0.12195122241973877,0.3658536672592163,7.199999809265137,28.799999237060547,-10.5,39.2106819152832,0,
 1353655,0.022216796875,-0.97607421875,0.0263671875,-0.3658536672592163,0.5487805008888245,0.4573170840740204,5.849999904632568,26.700000762939453,-10.949999809265137,39.2106819152832,0,
 1353665,0.023681640625,-0.972900390625,0.01611328125,-0.3658536672592163,0.5487805008888245,0.792682945728302,5.849999904632568,26.700000762939453,-10.949999809265137,39.30652618408203,0,
 1353675,0.029052734375,-0.978271484375,0.020263671875,-0.8231707215309143,0.3048780560493469,0.7317073345184326,5.099999904632568,27.450000762939453,-11.699999809265137,39.35445022583008,0,
 1353685,0.026123046875,-0.976806640625,0.0234375,-0.3658536672592163,0.5182926654815674,0.8231707215309143,5.699999809265137,28.799999237060547,-8.550000190734863,39.35445022583008,0,
 1353695,0.02783203125,-0.9697265625,0.014892578125,-0.3658536672592163,0.21341463923454285,0.6097561120986938,5.699999809265137,27.600000381469727,-10.5,39.11483383178711,0,
 1353705,0.02587890625,-0.975341796875,0.025146484375,-0.7012194991111755,0.4573170840740204,0.4573170840740204,5.699999809265137,27.600000381469727,-10.5,39.35445022583008,0,
 1353715,0.02978515625,-0.975830078125,0.023193359375,-0.8841463327407837,0.3658536672592163,0.5487805008888245,5.25,24.899999618530273,-9.300000190734863,39.2106819152832,0,
 1353725,0.022705078125,-0.974365234375,0.021728515625,-0.3658536672592163,0.12195122241973877,0.18292683362960815,7.199999809265137,28.799999237060547,-10.5,39.2106819152832,0,
 1353735,0.0234375,-0.974609375,0.023193359375,-0.5182926654815674,0.5487805008888245,0.396341472864151,5.400000095367432,28.649999618530273,-11.399999618530273,39.35445022583008,0,
 1353745,0.0322265625,-0.974609375,0.020751953125,-0.8231707215309143,0.4878048896789551,0.24390244483947754,4.650000095367432,28.649999618530273,-9.899999618530273,39.01898956298828,0,
 1353755,0.028076171875,-0.974609375,0.023193359375,-0.3658536672592163,0.4573170840740204,0.396341472864151,4.650000095367432,28.649999618530273,-9.899999618530273,39.450294494628906,0,
 1353765,0.02880859375,-0.974853515625,0.021728515625,-0.18292683362960815,0.5792682766914368,0.396341472864151,4.5,28.5,-9.75,39.162757873535156,0,
 1353775,0.02294921875,-0.9736328125,0.022705078125,-0.21341463923454285,0.5182926654815674,0.8231707215309143,5.699999809265137,28.799999237060547,-10.050000190734863,39.2106819152832,0,
 1353785,0.02734375,-0.975341796875,0.0234375,-0.396341472864151,0.3658536672592163,0.396341472864151,5.849999904632568,29.100000381469727,-10.199999809265137,39.11483383178711,0,
 1353795,0.02734375,-0.975341796875,0.02001953125,-0.15243902802467346,0.396341472864151,0.7317073345184326,5.849999904632568,29.100000381469727,-10.199999809265137,39.30652618408203,0,
 1353805,0.022705078125,-0.972412109375,0.022705078125,0.0,0.3658536672592163,0.6402438879013062,5.25,30.0,-11.25,39.2106819152832,0,
 1353815,0.0224609375,-0.97412109375,0.0205078125,-0.4573170840740204,0.5182926654815674,0.7317073345184326,5.849999904632568,29.399999618530273,-9.149999618530273,39.2106819152832,0,
 1353825,0.0205078125,-0.974853515625,0.023681640625,-0.18292683362960815,0.4573170840740204,0.6402438879013062,3.9000000953674316,28.649999618530273,-10.649999618530273,39.11483383178711,0,
 1353835,0.0283203125,-0.969482421875,0.021484375,-0.27439025044441223,0.4573170840740204,0.6097561120986938,3.9000000953674316,28.649999618530273,-10.649999618530273,39.35445022583008,0,
 1353845,0.030029296875,-0.970947265625,0.020263671875,-0.27439025044441223,0.3048780560493469,0.3048780560493469,5.25,28.049999237060547,-10.050000190734863,39.01898956298828,0,
 1353855,0.02490234375,-0.969970703125,0.030029296875,-0.060975611209869385,0.4573170840740204,0.6097561120986938,6.599999904632568,26.700000762939453,-11.699999809265137,39.2106819152832,0,
 1353865,0.019775390625,-0.971435546875,0.023193359375,-0.18292683362960815,0.3353658616542816,0.6402438879013062,6.75,27.600000381469727,-9.300000190734863,39.01898956298828,0,
 1353875,0.0234375,-0.972412109375,0.023193359375,-0.18292683362960815,0.4878048896789551,0.5792682766914368,4.650000095367432,28.649999618530273,-10.949999809265137,39.30652618408203,0,
 1353885,0.032470703125,-0.969970703125,0.024169921875,-0.27439025044441223,0.27439025044441223,0.12195122241973877,4.650000095367432,28.649999618530273,-10.949999809265137,39.2106819152832,0,
 1353895,0.025146484375,-0.9736328125,0.021240234375,-0.24390244483947754,0.3658536672592163,0.4878048896789551,5.099999904632568,28.200000762939453,-11.399999618530273,38.82729721069336,0,
 1353905,0.02587890625,-0.971923828125,0.027099609375,-0.5182926654815674,0.396341472864151,0.27439025044441223,5.099999904632568,27.450000762939453,-11.399999618530273,39.162757873535156,0,
 1353915,0.027587890625,-0.978515625,0.0244140625,-0.12195122241973877,0.3048780560493469,0.3048780560493469,4.650000095367432,28.200000762939453,-10.649999618530273,39.35445022583008,0,
 1353926,0.025390625,-0.969482421875,0.018310546875,-0.3353658616542816,0.5182926654815674,0.4268292784690857,4.650000095367432,28.200000762939453,-10.649999618530273,38.92314529418945,0,
 1353936,0.033935546875,-0.974609375,0.024169921875,-0.7317073345184326,0.21341463923454285,0.5487805008888245,7.050000190734863,28.649999618530273,-13.199999809265137,39.450294494628906,0,
 1353946,0.02685546875,-0.971923828125,0.025146484375,-0.4878048896789551,0.7621951103210449,0.6707317233085632,3.9000000953674316,28.649999618530273,-12.149999618530273,38.971065521240234,0,
 1353956,0.027587890625,-0.97216796875,0.021728515625,-0.3048780560493469,0.5792682766914368,0.4573170840740204,4.949999809265137,28.049999237060547,-10.050000190734863,39.450294494628906,0,
 1353966,0.02685546875,-0.972900390625,0.025390625,-0.3353658616542816,0.27439025044441223,0.7621951103210449,6.75,28.5,-9.75,39.2106819152832,0,
 1353976,0.028076171875,-0.97265625,0.02099609375,-0.6402438879013062,0.6402438879013062,1.0365853309631348,5.849999904632568,27.899999618530273,-10.199999809265137,39.162757873535156,0,
 1353986,0.02490234375,-0.969970703125,0.022705078125,-0.5792682766914368,0.3048780560493469,0.5792682766914368,4.949999809265137,28.5,-11.550000190734863,39.30652618408203,0,
 1353996,0.0205078125,-0.97216796875,0.023193359375,-0.3658536672592163,0.4573170840740204,0.7621951103210449,5.400000095367432,28.649999618530273,-9.899999618530273,39.01898956298828,0,
 1354006,0.029541015625,-0.973876953125,0.02197265625,-1.097561001777649,0.4878048896789551,0.7317073345184326,5.25,28.799999237060547,-9.75,39.2106819152832,0,
 1354016,0.03125,-0.973388671875,0.01904296875,-0.9146341681480408,0.21341463923454285,0.9451219439506531,5.25,28.799999237060547,-9.75,39.11483383178711,0,
 1354026,0.02197265625,-0.976806640625,0.021484375,-0.6707317233085632,0.5182926654815674,0.3353658616542816,4.5,28.5,-11.25,39.35445022583008,0,
 1354036,0.02197265625,-0.96826171875,0.02392578125,-0.792682945728302,0.3658536672592163,0.792682945728302,4.650000095367432,29.850000381469727,-10.949999809265137,39.35445022583008,0,
 1354046,0.025390625,-0.974853515625,0.016357421875,-0.8231707215309143,0.4878048896789551,0.8231707215309143,4.349999904632568,27.450000762939453,-9.899999618530273,38.92314529418945,0,
 1354056,0.0263671875,-0.972412109375,0.017333984375,-0.7012194991111755,0.396341472864151,0.8231707215309143,4.349999904632568,27.450000762939453,-9.899999618530273,39.2106819152832,0,
 1354066,0.027099609375,-0.9736328125,0.0205078125,-0.8231707215309143,0.396341472864151,0.4878048896789551,4.5,28.5,-10.800000190734863,39.01898956298828,0,
 1354076,0.027099609375,-0.973388671875,0.021484375,-0.4878048896789551,0.3048780560493469,0.8841463327407837,6.75,28.049999237060547,-9.300000190734863,39.11483383178711,0,
 1354086,0.02392578125,-0.9736328125,0.016845703125,-0.4573170840740204,0.4573170840740204,0.8536585569381714,6.449999809265137,29.25,-10.800000190734863,39.01898956298828,0,
 1354096,0.021728515625,-0.97705078125,0.023681640625,-0.27439025044441223,0.4573170840740204,1.0670732259750366,3.9000000953674316,28.649999618530273,-10.199999809265137,39.01898956298828,0,
 1354106,0.02490234375,-0.97607421875,0.02001953125,-0.6402438879013062,0.396341472864151,0.3658536672592163,3.9000000953674316,28.649999618530273,-10.199999809265137,39.30652618408203,0,
 1354116,0.018798828125,-0.96923828125,0.022705078125,-1.0365853309631348,0.3048780560493469,0.5487805008888245,5.099999904632568,27.450000762939453,-10.199999809265137,39.35445022583008,0,
 1354126,0.0224609375,-0.9765625,0.01953125,-0.6707317233085632,0.396341472864151,0.8536585569381714,6.0,29.25,-10.800000190734863,39.162757873535156,0,
 1354136,0.02392578125,-0.9697265625,0.02001953125,-0.4573170840740204,0.5487805008888245,0.3048780560493469,5.400000095367432,27.899999618530273,-10.649999618530273,39.11483383178711,0,
 1354146,0.021240234375,-0.98046875,0.01953125,-0.6402438879013062,0.18292683362960815,0.396341472864151,5.400000095367432,27.899999618530273,-10.649999618530273,39.35445022583008,0,
 1354156,0.020751953125,-0.971435546875,0.01904296875,-0.3658536672592163,0.4268292784690857,0.060975611209869385,3.75,27.299999237060547,-9.75,39.35445022583008,0,
 1354166,0.02197265625,-0.9755859375,0.020263671875,-0.09146341681480408,0.24390244483947754,0.5182926654815674,6.449999809265137,28.799999237060547,-10.050000190734863,39.49821853637695,0,
 1354176,0.0244140625,-0.979736328125,0.021728515625,0.030487805604934692,0.5182926654815674,0.6097561120986938,4.5,27.600000381469727,-11.25,39.30652618408203,0,
 1354186,0.02490234375,-0.969482421875,0.02294921875,0.15243902802467346,0.4268292784690857,0.4878048896789551,4.5,27.600000381469727,-11.25,38.82729721069336,0,
 1354196,0.0185546875,-0.974609375,0.01953125,-0.060975611209869385,0.3353658616542816,0.4878048896789551,4.349999904632568,30.299999237060547,-9.149999618530273,39.450294494628906,0,
 1354206,0.020751953125,-0.9736328125,0.0205078125,-0.09146341681480408,0.3353658616542816,0.18292683362960815,4.650000095367432,28.200000762939453,-9.149999618530273,39.450294494628906,0,
 1354216,0.0263671875,-0.97412109375,0.025390625,-0.030487805604934692,0.5487805008888245,0.21341463923454285,5.400000095367432,28.649999618530273,-10.649999618530273,39.162757873535156,0,
 1354226,0.02099609375,-0.975341796875,0.01708984375,-0.030487805604934692,0.4268292784690857,0.3658536672592163,5.699999809265137,28.5,-10.050000190734863,39.450294494628906,0,
 1354236,0.026123046875,-0.970703125,0.028564453125,0.15243902802467346,0.3353658616542816,0.5182926654815674,5.699999809265137,28.5,-10.050000190734863,38.971065521240234,0,
 1354246,0.024658203125,-0.971435546875,0.021728515625,0.12195122241973877,0.3353658616542816,0.3048780560493469,5.400000095367432,26.25,-11.699999809265137,39.162757873535156,0,
 1354256,0.020263671875,-0.97119140625,0.02490234375,0.0,0.4268292784690857,0.030487805604934692,6.599999904632568,27.450000762939453,-10.649999618530273,39.450294494628906,0,
 1354266,0.01708984375,-0.974609375,0.02099609375,0.27439025044441223,0.4878048896789551,-0.030487805604934692,5.25,27.299999237060547,-11.25,39.546142578125,0,
 1354276,0.021240234375,-0.974609375,0.029296875,-0.09146341681480408,0.18292683362960815,0.27439025044441223,5.25,27.299999237060547,-11.25,39.35445022583008,0,
 1354286,0.02294921875,-0.976806640625,0.020751953125,-0.5792682766914368,0.6402438879013062,0.09146341681480408,5.699999809265137,29.25,-10.5,39.01898956298828,0,
 1354306,0.020751953125,-0.97998046875,0.021240234375,-0.4268292784690857,0.3048780560493469,0.5487805008888245,6.599999904632568,28.200000762939453,-11.399999618530273,39.162757873535156,0,
 1354316,0.02197265625,-0.975341796875,0.025146484375,-0.4268292784690857,0.21341463923454285,0.4268292784690857,6.599999904632568,28.200000762939453,-11.399999618530273,39.2106819152832,0,
 1354326,0.026123046875,-0.975341796875,0.02685546875,-0.6097561120986938,0.4268292784690857,0.4878048896789551,6.300000190734863,27.450000762939453,-10.949999809265137,39.2106819152832,0,
 1354336,0.0185546875,-0.97705078125,0.01806640625,-1.0060975551605225,0.5487805008888245,0.4268292784690857,7.199999809265137,29.25,-9.75,38.92314529418945,0,
 1354346,0.021240234375,-0.975830078125,0.017333984375,-1.0670732259750366,0.7621951103210449,0.3048780560493469,7.5,28.049999237060547,-12.0,39.2106819152832,0,
 1354356,0.023681640625,-0.979736328125,0.02197265625,-0.9146341681480408,0.4268292784690857,0.396341472864151,5.849999904632568,29.399999618530273,-10.649999618530273,39.450294494628906,0,
 1354366,0.020751953125,-0.973388671875,0.0185546875,-0.8841463327407837,0.3658536672592163,0.6097561120986938,5.849999904632568,29.399999618530273,-10.649999618530273,39.30652618408203,0,
 1354376,0.020751953125,-0.973876953125,0.0205078125,-0.5792682766914368,0.27439025044441223,0.4878048896789551,4.949999809265137,27.600000381469727,-12.0,39.2106819152832,0,
 1354386,0.026611328125,-0.976806640625,0.021728515625,-0.8231707215309143,0.27439025044441223,0.6097561120986938,7.050000190734863,27.899999618530273,-10.199999809265137,39.162757873535156,0,
 1354396,0.021240234375,-0.97509765625,0.028076171875,-0.8841463327407837,0.3353658616542816,0.3048780560493469,5.849999904632568,29.399999618530273,-10.949999809265137,39.2106819152832,0,
 1354406,0.02197265625,-0.972412109375,0.023681640625,-1.0060975551605225,0.5182926654815674,0.3048780560493469,5.849999904632568,29.399999618530273,-10.949999809265137,39.2106819152832,0,
 1354416,0.02392578125,-0.972900390625,0.024658203125,-1.0060975551605225,0.3658536672592163,0.5182926654815674,3.9000000953674316,29.100000381469727,-12.149999618530273,39.162757873535156,0,
 1354426,0.019287109375,-0.973876953125,0.018798828125,-1.1280487775802612,0.4573170840740204,0.5182926654815674,5.099999904632568,28.200000762939453,-10.649999618530273,39.2106819152832,0,
 1354436,0.032470703125,-0.976318359375,0.021240234375,-1.2804877758026123,0.4268292784690857,0.4878048896789551,6.300000190734863,27.899999618530273,-12.149999618530273,39.2106819152832,0,
 1354446,0.0234375,-0.976806640625,0.020751953125,-0.8536585569381714,0.27439025044441223,0.8536585569381714,6.300000190734863,27.899999618530273,-12.149999618530273,39.30652618408203,0,
 1354456,0.020751953125,-0.97509765625,0.023681640625,-0.7317073345184326,0.3048780560493469,0.7012194991111755,4.650000095367432,28.649999618530273,-12.449999809265137,39.2106819152832,0,
 1354466,0.024169921875,-0.97314453125,0.02099609375,-0.15243902802467346,0.3048780560493469,0.27439025044441223,6.300000190734863,27.0,-10.949999809265137,39.30652618408203,0,
 1354476,0.0234375,-0.975341796875,0.018798828125,-0.396341472864151,0.396341472864151,0.24390244483947754,4.349999904632568,29.100000381469727,-9.899999618530273,39.30652618408203,0,
 1354486,0.025634765625,-0.978271484375,0.025634765625,-0.7012194991111755,0.060975611209869385,0.6097561120986938,5.099999904632568,29.100000381469727,-10.649999618530273,39.11483383178711,0,
 1354496,0.023681640625,-0.97412109375,0.01904296875,-0.27439025044441223,0.4268292784690857,0.27439025044441223,5.099999904632568,29.100000381469727,-10.649999618530273,39.2106819152832,0,
 1354506,0.0224609375,-0.974853515625,0.0263671875,-0.3048780560493469,0.5792682766914368,0.3658536672592163,5.099999904632568,27.0,-11.399999618530273,39.2106819152832,0,
 1354516,0.021484375,-0.969970703125,0.02294921875,-0.3353658616542816,0.6097561120986938,0.7012194991111755,5.25,28.799999237060547,-11.550000190734863,39.162757873535156,0,
 1354526,0.01904296875,-0.9765625,0.026611328125,-0.3353658616542816,0.12195122241973877,0.15243902802467346,5.400000095367432,29.100000381469727,-9.899999618530273,39.64198684692383,0,
 1354536,0.026123046875,-0.971923828125,0.022216796875,-0.3353658616542816,0.3658536672592163,0.060975611209869385,5.400000095367432,29.100000381469727,-9.899999618530273,39.30652618408203,0,
 1354546,0.024169921875,-0.977783203125,0.02294921875,-0.060975611209869385,0.3048780560493469,0.060975611209869385,4.949999809265137,30.0,-11.25,39.35445022583008,0,
 1354556,0.0234375,-0.971435546875,0.02001953125,-0.3353658616542816,0.5792682766914368,0.6402438879013062,6.300000190734863,31.049999237060547,-14.399999618530273,39.2106819152832,0,
 1354566,0.027099609375,-0.97509765625,0.018798828125,-0.792682945728302,0.3353658616542816,0.9146341681480408,5.25,28.5,-13.5,39.30652618408203,0,
 1354576,0.02783203125,-0.9794921875,0.025146484375,-0.3658536672592163,0.4878048896789551,1.1280487775802612,5.25,28.5,-13.5,39.11483383178711,0,
 1354586,0.021240234375,-0.971435546875,0.025146484375,-0.4878048896789551,0.396341472864151,1.0060975551605225,6.0,28.049999237060547,-11.25,39.11483383178711,0,
 1354596,0.01708984375,-0.981201171875,0.026611328125,-1.0060975551605225,0.6097561120986938,1.1890244483947754,5.099999904632568,27.450000762939453,-9.899999618530273,39.30652618408203,0,
 1354606,0.022216796875,-0.978271484375,0.020263671875,-0.8231707215309143,0.24390244483947754,1.0365853309631348,4.199999809265137,29.25,-9.75,39.2106819152832,0,
 1354616,0.021728515625,-0.9716796875,0.025390625,-0.3048780560493469,0.27439025044441223,0.8536585569381714,4.650000095367432,27.450000762939453,-9.449999809265137,39.2106819152832,0,
 1354626,0.01806640625,-0.97509765625,0.0234375,-0.6402438879013062,0.3353658616542816,0.3353658616542816,4.650000095367432,27.450000762939453,-9.449999809265137,39.01898956298828,0,
 1354636,0.020751953125,-0.97509765625,0.017333984375,-0.6402438879013062,0.6097561120986938,0.27439025044441223,3.9000000953674316,28.200000762939453,-11.399999618530273,39.30652618408203,0,
 1354646,0.020263671875,-0.972412109375,0.0234375,-0.8841463327407837,0.4268292784690857,0.3658536672592163,5.099999904632568,29.100000381469727,-10.949999809265137,39.35445022583008,0,
 1354656,0.019287109375,-0.98193359375,0.0234375,-1.1280487775802612,0.6097561120986938,0.15243902802467346,6.599999904632568,26.700000762939453,-13.199999809265137,39.2106819152832,0,
 1354666,0.016357421875,-0.97412109375,0.01806640625,-1.0365853309631348,0.4878048896789551,0.21341463923454285,6.599999904632568,26.700000762939453,-13.199999809265137,39.450294494628906,0,
 1354676,0.025146484375,-0.969482421875,0.0166015625,-1.0060975551605225,0.4268292784690857,0.6097561120986938,5.849999904632568,28.649999618530273,-11.399999618530273,39.01898956298828,0,
 1354686,0.024658203125,-0.975830078125,0.0234375,-0.8231707215309143,0.3353658616542816,0.7621951103210449,4.5,28.5,-10.800000190734863,39.546142578125,0,
 1354696,0.02197265625,-0.972412109375,0.021240234375,-0.8841463327407837,0.15243902802467346,0.4268292784690857,5.699999809265137,28.049999237060547,-10.050000190734863,39.2106819152832,0,
 1354706,0.025390625,-0.979248046875,0.02001953125,-0.9756097793579102,0.4268292784690857,0.7012194991111755,5.699999809265137,28.049999237060547,-10.050000190734863,39.2106819152832,0,
 1354717,0.022705078125,-0.974365234375,0.0234375,-0.9451219439506531,0.15243902802467346,0.792682945728302,6.449999809265137,27.299999237060547,-14.25,39.30652618408203,0,
 1354727,0.019775390625,-0.97021484375,0.017578125,-1.4634146690368652,0.3353658616542816,0.5792682766914368,4.949999809265137,30.75,-14.25,39.162757873535156,0,
 1354737,0.01953125,-0.978515625,0.02294921875,-1.0670732259750366,0.3658536672592163,0.396341472864151,3.75,27.600000381469727,-10.5,39.35445022583008,0,
 1354747,0.020263671875,-0.9775390625,0.01806640625,-0.8841463327407837,0.3048780560493469,0.27439025044441223,4.949999809265137,27.600000381469727,-11.25,39.30652618408203,0,
 1354757,0.024658203125,-0.969970703125,0.0224609375,-1.25,0.4878048896789551,0.09146341681480408,4.949999809265137,27.600000381469727,-11.25,39.2106819152832,0,
 1354767,0.021728515625,-0.970703125,0.022705078125,-1.1890244483947754,0.5487805008888245,-0.060975611209869385,5.25,26.850000381469727,-11.25,39.162757873535156,0,
 1354777,0.02490234375,-0.9794921875,0.021728515625,-1.0060975551605225,0.5182926654815674,-0.6097561120986938,6.599999904632568,28.649999618530273,-9.899999618530273,39.2106819152832,0,
 1354787,0.024169921875,-0.974609375,0.01904296875,-0.8841463327407837,0.4573170840740204,-0.15243902802467346,6.449999809265137,29.700000762939453,-11.25,39.2106819152832,0,
 1354797,0.01708984375,-0.9755859375,0.019287109375,-0.6707317233085632,0.030487805604934692,-0.060975611209869385,6.449999809265137,29.700000762939453,-11.25,39.2106819152832,0,
 1354807,0.02490234375,-0.9736328125,0.0244140625,-1.0670732259750366,0.24390244483947754,-0.396341472864151,3.9000000953674316,29.100000381469727,-10.199999809265137,39.35445022583008,0,
 1354817,0.035888671875,-0.91455078125,-0.005615234375,-0.4878048896789551,0.3658536672592163,-0.3048780560493469,6.0,29.25,-10.5,39.2106819152832,0,
 1354827,-0.075439453125,-0.89990234375,0.041259765625,2.9268293380737305,0.9146341681480408,-4.359755992889404,5.25,28.5,-9.75,38.971065521240234,0,
 1354837,0.036376953125,-0.84912109375,-0.019775390625,2.865853786468506,2.012195110321045,-10.487805366516113,5.25,28.5,-9.75,39.2106819152832,0,
 1354847,-0.11865234375,-0.942626953125,0.1337890625,-2.6219513416290283,1.3719512224197388,-17.378049850463867,7.050000190734863,28.649999618530273,-7.949999809265137,39.450294494628906,0,
 1354857,0.066162109375,-1.256591796875,0.15087890625,0.8841463327407837,3.2317073345184326,-16.859756469726562,6.300000190734863,26.700000762939453,-11.699999809265137,39.35445022583008,0,
 1354867,0.081298828125,-1.133544921875,0.09765625,-14.603658676147461,1.2804877758026123,-0.9451219439506531,4.949999809265137,28.049999237060547,-11.25,38.92314529418945,0,
 1354877,-0.01806640625,-1.04052734375,0.026123046875,-22.2560977935791,4.847560882568359,8.536585807800293,2.25,27.600000381469727,-10.050000190734863,39.01898956298828,0,
 1354887,0.01171875,-0.968994140625,-0.0966796875,-14.817073822021484,3.658536672592163,11.006097793579102,2.25,27.600000381469727,-10.050000190734863,39.2106819152832,0,
 1354897,0.03076171875,-0.933837890625,-0.09033203125,-5.70121955871582,3.5060975551605225,7.652439117431641,4.949999809265137,29.700000762939453,-9.0,39.2106819152832,0,
 1354907,-0.01025390625,-0.934814453125,-0.068603515625,5.304878234863281,-0.4573170840740204,3.1402440071105957,5.699999809265137,28.799999237060547,-10.050000190734863,39.450294494628906,0,
 1354917,-0.005126953125,-0.91845703125,-0.0263671875,10.609756469726562,-3.2926828861236572,0.5792682766914368,3.299999952316284,28.799999237060547,-10.5,39.2106819152832,0,
 1354927,0.046142578125,-1.001220703125,0.005126953125,20.30487823486328,-2.896341562271118,-1.3719512224197388,3.299999952316284,28.799999237060547,-10.5,38.82729721069336,0,
 1354937,0.002685546875,-0.9892578125,0.065185546875,15.365854263305664,-4.481707572937012,0.12195122241973877,6.0,28.5,-11.550000190734863,39.35445022583008,0,
 1354947,0.04248046875,-1.010498046875,0.0615234375,10.914634704589844,-2.804877996444702,-1.7682926654815674,5.849999904632568,29.850000381469727,-9.899999618530273,39.11483383178711,0,
 1354957,0.0419921875,-0.97900390625,0.0751953125,4.420732021331787,-1.8292683362960815,-1.6463414430618286,3.1500000953674316,29.850000381469727,-11.399999618530273,39.2106819152832,0,
 1354967,0.0400390625,-0.951904296875,0.06689453125,-1.3109756708145142,-0.21341463923454285,-0.09146341681480408,3.5999999046325684,27.899999618530273,-10.649999618530273,39.11483383178711,0,
 1354977,0.04052734375,-0.931640625,0.04443359375,-5.487804889678955,0.7317073345184326,1.3414634466171265,5.25,29.25,-9.300000190734863,39.01898956298828,0,
 1354987,0.04345703125,-0.926025390625,0.0068359375,-7.591463565826416,1.3414634466171265,3.7804877758026123,4.949999809265137,28.049999237060547,-10.5,39.35445022583008,0,
 1354997,0.04833984375,-0.926025390625,-0.00732421875,-6.646341800689697,2.012195110321045,3.7195122241973877,4.949999809265137,29.25,-10.5,39.35445022583008,0,
 1355007,0.02685546875,-0.93115234375,-0.008056640625,-3.3841464519500732,1.3414634466171265,2.317073106765747,5.25,28.5,-9.75,38.971065521240234,0,
 1355017,0.021728515625,-0.947509765625,-0.002197265625,1.7073171138763428,0.8231707215309143,0.9146341681480408,5.25,28.5,-9.75,38.82729721069336,0,
 1355027,0.011474609375,-0.97705078125,0.012939453125,2.9573171138763428,0.5487805008888245,-0.3353658616542816,5.25,29.25,-10.800000190734863,39.30652618408203,0,
 1355037,0.00390625,-1.01611328125,0.02734375,2.2560975551605225,0.24390244483947754,-2.1646342277526855,6.449999809265137,27.600000381469727,-10.050000190734863,39.11483383178711,0,
 1355047,0.006591796875,-1.02099609375,0.0390625,1.0060975551605225,0.4573170840740204,-2.7439024448394775,6.0,28.799999237060547,-9.300000190734863,39.35445022583008,0,
 1355057,0.00390625,-1.025146484375,0.04345703125,-0.792682945728302,0.3658536672592163,-2.6219513416290283,6.0,28.799999237060547,-9.300000190734863,39.162757873535156,0,
 1355067,0.0166015625,-1.001953125,0.02734375,-1.2804877758026123,0.4268292784690857,-1.920731782913208,7.349999904632568,27.450000762939453,-13.649999618530273,38.92314529418945,0,
 1355077,0.028564453125,-0.99462890625,0.024169921875,-0.8536585569381714,0.09146341681480408,-0.792682945728302,5.849999904632568,30.299999237060547,-11.699999809265137,39.01898956298828,0,
 1355087,0.028076171875,-0.97607421875,0.015625,0.21341463923454285,-0.396341472864151,0.3048780560493469,4.349999904632568,27.0,-10.649999618530273,39.2106819152832,0,
 1355097,0.040283203125,-0.977294921875,0.008056640625,0.4878048896789551,-0.3353658616542816,1.0670732259750366,4.949999809265137,27.600000381469727,-10.800000190734863,38.971065521240234,0,
 1355107,0.038330078125,-0.968994140625,0.01611328125,0.3353658616542816,-0.3048780560493469,1.920731782913208,4.949999809265137,27.600000381469727,-10.800000190734863,39.450294494628906,0,
 1355117,0.03173828125,-0.9560546875,0.0322265625,0.5487805008888245,-0.4573170840740204,2.865853786468506,5.849999904632568,27.899999618530273,-9.899999618530273,38.92314529418945,0,
 1355127,0.0302734375,-0.961669921875,0.028076171875,0.24390244483947754,-0.3353658616542816,3.628048896789551,5.25,28.5,-10.5,39.162757873535156,0,
 1355137,0.024658203125,-0.974365234375,0.021728515625,-0.09146341681480408,-0.3353658616542816,3.2012195587158203,5.400000095367432,29.100000381469727,-10.949999809265137,39.30652618408203,0,
 1355147,0.01904296875,-0.9736328125,0.01806640625,0.24390244483947754,0.0,2.0426828861236572,5.400000095367432,29.100000381469727,-10.949999809265137,39.2106819152832,0,
 1355157,0.01708984375,-0.9677734375,0.019287109375,-0.030487805604934692,0.09146341681480408,1.25,7.050000190734863,27.450000762939453,-14.399999618530273,39.2106819152832,0,
 1355167,0.018798828125,-0.96728515625,0.021728515625,-0.4573170840740204,-0.12195122241973877,0.396341472864151,5.849999904632568,28.200000762939453,-12.899999618530273,39.11483383178711,0,
 1355177,0.02392578125,-0.98095703125,0.018310546875,-0.8841463327407837,-0.15243902802467346,-0.27439025044441223,5.699999809265137,28.799999237060547,-10.800000190734863,39.11483383178711,0,
 1355187,0.02880859375,-0.9697265625,0.02294921875,-1.2195122241973877,0.3353658616542816,-1.3414634466171265,5.699999809265137,28.799999237060547,-10.800000190734863,39.01898956298828,0,
 1355197,0.028564453125,-0.972412109375,0.023681640625,-1.585365891456604,0.27439025044441223,-1.5243902206420898,5.699999809265137,30.75,-12.0,39.35445022583008,0,
 1355207,0.032470703125,-0.97412109375,0.02685546875,-1.585365891456604,0.4268292784690857,-0.7621951103210449,4.949999809265137,27.299999237060547,-9.300000190734863,39.35445022583008,0,
 1355217,0.029052734375,-0.982177734375,0.013427734375,-1.920731782913208,0.3658536672592163,0.24390244483947754,4.5,28.049999237060547,-11.399999618530273,39.11483383178711,0,
 1355227,0.0302734375,-0.98388671875,0.015625,-2.0426828861236572,-0.15243902802467346,1.097561001777649,4.5,28.049999237060547,-10.050000190734863,39.11483383178711,0,
 1355237,0.027587890625,-0.97314453125,0.020751953125,-1.2195122241973877,0.0,1.9512195587158203,4.5,28.049999237060547,-10.050000190734863,39.35445022583008,0,
 1355247,0.026611328125,-0.978515625,0.0146484375,-1.1890244483947754,-0.21341463923454285,2.0426828861236572,6.0,26.399999618530273,-9.75,39.2106819152832,0,
 1355257,0.0146484375,-0.984375,0.0146484375,0.3048780560493469,-0.3658536672592163,2.317073106765747,7.5,27.299999237060547,-10.050000190734863,39.35445022583008,0,
 1355267,0.017578125,-0.979248046875,0.02197265625,0.3048780560493469,-1.0670732259750366,1.9512195587158203,7.5,29.700000762939453,-12.300000190734863,39.2106819152832,0,
 1355277,0.017822265625,-0.974609375,0.01953125,1.0365853309631348,-1.3414634466171265,1.9512195587158203,7.5,29.700000762939453,-12.300000190734863,39.450294494628906,0,
 1355287,0.02392578125,-0.974853515625,0.017333984375,1.3719512224197388,-1.5243902206420898,1.737804889678955,4.5,28.799999237060547,-11.25,39.35445022583008,0,
 1355297,0.020751953125,-0.9814453125,0.02197265625,1.737804889678955,-1.585365891456604,1.3109756708145142,5.400000095367432,28.649999618530273,-10.199999809265137,39.2106819152832,0,
 1355307,0.024169921875,-0.974853515625,0.0224609375,1.737804889678955,-1.5243902206420898,1.2804877758026123,5.699999809265137,28.5,-9.75,39.30652618408203,0,
 1355317,0.02587890625,-0.97314453125,0.02783203125,2.103658676147461,-1.7073171138763428,1.4634146690368652,5.699999809265137,28.5,-9.75,39.30652618408203,0,
 1355327,0.030029296875,-0.966064453125,0.0205078125,2.195122003555298,-1.920731782913208,2.2865853309631348,6.300000190734863,28.200000762939453,-9.899999618530273,39.11483383178711,0,
 1355337,0.031982421875,-0.974853515625,0.025390625,2.2865853309631348,-1.8902438879013062,2.7134146690368652,4.5,28.5,-11.550000190734863,39.162757873535156,0,
 1355347,0.01953125,-0.973876953125,0.02294921875,2.0731706619262695,-2.0731706619262695,3.2317073345184326,6.449999809265137,28.799999237060547,-11.25,39.30652618408203,0,
 1355357,0.01953125,-0.97119140625,0.025390625,1.7682926654815674,-1.9817073345184326,3.445122003555298,6.449999809265137,28.799999237060547,-11.25,39.2106819152832,0,
 1355367,0.022216796875,-0.97412109375,0.0302734375,1.3719512224197388,-1.737804889678955,3.262195110321045,6.449999809265137,28.799999237060547,-11.25,39.11483383178711,0,
 1355377,0.023681640625,-0.9736328125,0.0244140625,0.9451219439506531,-2.2560975551605225,3.4146342277526855,4.949999809265137,26.850000381469727,-10.800000190734863,39.01898956298828,0,
 1355387,0.021728515625,-0.970458984375,0.01416015625,1.0060975551605225,-2.4695122241973877,3.47560977935791,5.099999904632568,28.200000762939453,-10.949999809265137,39.2106819152832,0,
 1355397,0.029052734375,-0.969482421875,0.009033203125,1.0670732259750366,-2.896341562271118,3.170731782913208,5.099999904632568,28.200000762939453,-10.949999809265137,39.2106819152832,0,
 1355407,0.02587890625,-0.97314453125,0.020263671875,1.1890244483947754,-3.6890244483947754,2.5,5.099999904632568,28.200000762939453,-10.949999809265137,39.2106819152832,0,
 1355417,0.02587890625,-0.96630859375,0.0205078125,1.4634146690368652,-3.932926893234253,1.737804889678955,3.75,27.299999237060547,-12.0,39.11483383178711,0,
 1355427,0.027587890625,-0.969970703125,0.017578125,0.9451219439506531,-4.603658676147461,1.8292683362960815,6.0,28.5,-9.75,39.2106819152832,0,
 1355437,0.01708984375,-0.9755859375,0.020751953125,0.396341472864151,-4.5731706619262695,1.0670732259750366,6.0,28.5,-9.75,39.35445022583008,0,
 1355448,0.0244140625,-0.982666015625,0.023193359375,1.0365853309631348,-4.542683124542236,0.792682945728302,6.0,28.5,-9.75,39.35445022583008,0,
 1355458,0.033935546875,-0.97021484375,0.02099609375,-0.24390244483947754,-5.030488014221191,0.8231707215309143,5.400000095367432,30.299999237060547,-10.949999809265137,39.450294494628906,0,
 1355468,0.029541015625,-0.970458984375,0.017333984375,-1.402438998222351,-7.530488014221191,1.0060975551605225,6.449999809265137,28.049999237060547,-10.199999809265137,39.30652618408203,0,
 1355478,0.04931640625,-0.9892578125,0.009765625,-3.8719513416290283,-9.268292427062988,1.3109756708145142,5.25,28.5,-10.800000190734863,39.450294494628906,0,
 1355488,0.03564453125,-0.978759765625,0.011962890625,-2.5,-9.664634704589844,1.585365891456604,5.25,28.5,-10.800000190734863,39.30652618408203,0,
 1355498,0.021240234375,-0.978759765625,0.005615234375,-2.195122003555298,-10.182927131652832,1.432926893234253,5.25,28.5,-10.800000190734863,39.35445022583008,0,
 1355508,0.026611328125,-0.985107421875,0.0126953125,-1.2195122241973877,-11.25,1.0670732259750366,5.699999809265137,27.600000381469727,-10.5,38.971065521240234,0,
 1355518,0.016845703125,-0.996826171875,0.005126953125,-1.920731782913208,-12.37804889678955,1.3109756708145142,6.0,28.049999237060547,-10.050000190734863,39.35445022583008,0,
 1355528,0.032470703125,-0.978759765625,0.017333984375,-2.4390244483947754,-13.780488014221191,1.25,6.0,28.049999237060547,-10.050000190734863,39.162757873535156,0,
 1355538,0.034912109375,-0.965087890625,0.01416015625,-3.353658676147461,-13.658536911010742,0.6402438879013062,6.0,28.049999237060547,-10.050000190734863,39.162757873535156,0,
 1355548,0.00244140625,-0.987548828125,0.02685546875,-1.585365891456604,-13.932927131652832,1.9512195587158203,5.849999904632568,28.049999237060547,-10.050000190734863,39.2106819152832,0,
 1355558,0.04052734375,-0.980224609375,0.01611328125,-3.2926828861236572,-13.841464042663574,2.4695122241973877,4.349999904632568,27.899999618530273,-9.449999809265137,39.01898956298828,0,
 1355568,-0.0048828125,-0.99658203125,0.04150390625,-4.02439022064209,-12.896341323852539,2.9573171138763428,4.349999904632568,27.899999618530273,-9.449999809265137,39.2106819152832,0,
 1355578,0.014404296875,-0.975830078125,0.057373046875,-3.9939024448394775,-12.103658676147461,3.3841464519500732,4.349999904632568,27.899999618530273,-9.449999809265137,39.35445022583008,0,
 1355588,0.000244140625,-0.9970703125,0.029541015625,-4.1768293380737305,-10.82317066192627,5.030488014221191,5.849999904632568,27.450000762939453,-9.899999618530273,39.35445022583008,0,
 1355598,0.003662109375,-1.00048828125,0.046142578125,-2.7439024448394775,-10.15243911743164,5.152439117431641,5.400000095367432,29.100000381469727,-10.199999809265137,39.2106819152832,0,
 1355608,0.00244140625,-0.961669921875,0.027099609375,-2.22560977935791,-9.115854263305664,5.27439022064209,5.400000095367432,26.700000762939453,-11.699999809265137,39.01898956298828,0,
 1355618,0.023193359375,-0.96044921875,0.015380859375,-1.5243902206420898,-8.536585807800293,5.396341800689697,5.400000095367432,26.700000762939453,-11.699999809265137,39.2106819152832,0,
 1355628,-0.00341796875,-0.984375,0.02294921875,-0.3048780560493469,-8.079268455505371,5.365853786468506,5.400000095367432,26.700000762939453,-11.699999809265137,39.01898956298828,0,
 1355638,-0.00732421875,-1.00537109375,0.0146484375,0.09146341681480408,-7.682927131652832,5.3353657722473145,6.0,28.049999237060547,-10.800000190734863,39.30652618408203,0,
 1355648,-0.001220703125,-0.98681640625,0.015869140625,0.4878048896789551,-7.713414669036865,5.243902683258057,7.050000190734863,28.200000762939453,-10.949999809265137,39.11483383178711,0,
 1355658,0.005615234375,-0.976806640625,0.00927734375,1.3414634466171265,-7.256097793579102,4.390244007110596,7.050000190734863,28.200000762939453,-10.949999809265137,38.82729721069336,0,
 1355668,0.015380859375,-0.9677734375,0.00537109375,2.22560977935791,-7.5,3.9939024448394775,7.050000190734863,28.200000762939453,-10.949999809265137,39.2106819152832,0,
 1355678,0.016357421875,-0.9599609375,0.012451171875,1.8597561120986938,-7.896341800689697,3.9024391174316406,6.300000190734863,28.649999618530273,-11.699999809265137,39.30652618408203,0,
 1355688,0.020751953125,-0.974853515625,0.000732421875,2.2865853309631348,-8.04878044128418,3.353658676147461,5.25,27.600000381469727,-9.0,39.450294494628906,0,
 1355698,0.018310546875,-0.95654296875,0.020751953125,1.0060975551605225,-7.987804889678955,2.9573171138763428,5.849999904632568,28.649999618530273,-10.649999618530273,39.30652618408203,0,
 1355708,0.009033203125,-0.9443359375,0.03369140625,1.9817073345184326,-8.079268455505371,2.1646342277526855,5.849999904632568,28.649999618530273,-10.649999618530273,39.01898956298828,0,
 1355718,0.011474609375,-0.937744140625,0.0224609375,1.8597561120986938,-8.536585807800293,1.1890244483947754,4.650000095367432,26.25,-9.899999618530273,39.01898956298828,0,
 1355728,0.008056640625,-0.95556640625,0.020751953125,2.22560977935791,-8.62804889678955,-0.12195122241973877,5.25,27.600000381469727,-10.800000190734863,39.30652618408203,0,
 1355738,0.00341796875,-0.95166015625,0.0244140625,1.9817073345184326,-8.841464042663574,-1.3719512224197388,7.050000190734863,26.25,-8.699999809265137,39.30652618408203,0,
 1355748,0.00830078125,-0.947509765625,0.033447265625,1.8902438879013062,-9.085366249084473,-2.3475611209869385,7.050000190734863,26.25,-8.699999809265137,38.971065521240234,0,
 1355758,-0.00244140625,-0.959716796875,0.036376953125,1.9817073345184326,-8.445121765136719,-2.804877996444702,5.849999904632568,27.899999618530273,-7.949999809265137,39.162757873535156,0,
 1355768,-0.02099609375,-0.981201171875,0.042236328125,2.4390244483947754,-7.743902683258057,-2.7134146690368652,5.699999809265137,28.5,-10.5,39.30652618408203,0,
 1355778,0.017578125,-0.968994140625,0.055419921875,2.1341464519500732,-7.530488014221191,-2.591463565826416,7.5,27.600000381469727,-10.5,39.2106819152832,0,
 1355788,0.0146484375,-0.980712890625,0.045654296875,1.1890244483947754,-6.890244007110596,-3.2012195587158203,7.5,27.600000381469727,-10.5,39.11483383178711,0,
 1355798,-0.007568359375,-0.9833984375,0.06201171875,-0.24390244483947754,-5.884146690368652,-4.0853657722473145,6.75,26.850000381469727,-10.5,39.2106819152832,0,
 1355808,-0.0146484375,-0.989990234375,0.05859375,-0.9146341681480408,-4.29878044128418,-4.1768293380737305,6.599999904632568,27.450000762939453,-8.699999809265137,38.971065521240234,0,
 1355818,-0.01708984375,-0.96533203125,0.0595703125,-1.8902438879013062,-3.2926828861236572,-5.243902683258057,8.100000381469727,27.450000762939453,-8.699999809265137,39.2106819152832,0,
 1355828,-0.018310546875,-0.971923828125,0.071044921875,-2.5304877758026123,-1.8902438879013062,-5.762195110321045,5.849999904632568,26.25,-9.449999809265137,39.2106819152832,0,
 1355838,-0.005859375,-0.98583984375,0.054931640625,-3.2317073345184326,-0.12195122241973877,-6.646341800689697,5.699999809265137,27.600000381469727,-9.449999809265137,39.450294494628906,0,
 1355848,-0.004638671875,-0.9921875,0.06298828125,-5.54878044128418,1.3109756708145142,-7.5,6.300000190734863,26.25,-8.699999809265137,39.35445022583008,0,
 1355858,0.0,-0.986083984375,0.060546875,-7.743902683258057,1.9512195587158203,-7.713414669036865,5.699999809265137,26.399999618530273,-9.75,39.01898956298828,0,
 1355868,0.010986328125,-0.99609375,0.044677734375,-9.84756088256836,2.682926893234253,-8.018292427062988,6.599999904632568,27.450000762939453,-9.149999618530273,39.2106819152832,0,
 1355878,0.011474609375,-0.986328125,0.0400390625,-11.707317352294922,2.77439022064209,-8.140244483947754,6.599999904632568,27.450000762939453,-9.149999618530273,39.35445022583008,0,
 1355888,0.006103515625,-0.979736328125,0.03271484375,-14.57317066192627,3.5365853309631348,-7.743902683258057,5.699999809265137,27.299999237060547,-8.550000190734863,39.11483383178711,0,
 1355898,0.011962890625,-0.9794921875,0.03369140625,-13.262195587158203,5.030488014221191,-6.95121955871582,5.849999904632568,28.649999618530273,-8.399999618530273,39.35445022583008,0,
 1355908,0.025146484375,-0.982177734375,-0.00048828125,-13.62804889678955,5.579268455505371,-6.158536911010742,5.099999904632568,27.450000762939453,-9.899999618530273,39.35445022583008,0,
 1355918,0.031005859375,-0.963623046875,0.007568359375,-8.810976028442383,6.615853786468506,-2.591463565826416,5.099999904632568,27.450000762939453,-9.899999618530273,39.11483383178711,0,
 1355928,0.037109375,-0.994873046875,-0.025634765625,-8.62804889678955,6.341463565826416,-1.0365853309631348,5.099999904632568,25.5,-9.449999809265137,39.450294494628906,0,
 1355938,0.034912109375,-0.967041015625,-0.007568359375,-5.213414669036865,5.97560977935791,0.9146341681480408,5.099999904632568,27.450000762939453,-9.899999618530273,39.2106819152832,0,
 1355948,0.032958984375,-0.97412109375,-0.01318359375,-2.6524391174316406,5.213414669036865,2.195122003555298,4.949999809265137,26.399999618530273,-9.300000190734863,39.11483383178711,0,
 1355958,0.05908203125,-1.013671875,-0.0234375,-2.865853786468506,2.4695122241973877,3.2926828861236572,6.449999809265137,27.600000381469727,-7.800000190734863,39.35445022583008,0,
 1355968,0.056884765625,-1.019775390625,-0.021484375,-4.512195110321045,0.24390244483947754,3.9024391174316406,4.650000095367432,26.25,-9.149999618530273,39.30652618408203,0,
 1355978,0.047607421875,-1.0029296875,-0.023193359375,-4.390244007110596,-1.6158536672592163,4.481707572937012,4.349999904632568,26.25,-9.449999809265137,39.162757873535156,0,
 1355988,0.017822265625,-0.98974609375,-0.0166015625,-2.682926893234253,-2.378048896789551,4.390244007110596,5.25,27.600000381469727,-9.0,39.30652618408203,0,
 1355998,0.018798828125,-0.97216796875,-0.0078125,-1.8597561120986938,-1.8292683362960815,4.512195110321045,5.400000095367432,28.200000762939453,-8.699999809265137,38.971065521240234,0,
 1356008,0.015625,-0.9892578125,0.005859375,-1.5548781156539917,-1.9512195587158203,4.29878044128418,5.400000095367432,28.200000762939453,-8.699999809265137,39.01898956298828,0,
 1356018,0.0078125,-0.980224609375,0.01611328125,-1.3719512224197388,-1.5243902206420898,4.1768293380737305,7.5,25.649999618530273,-7.800000190734863,39.11483383178711,0,
 1356028,0.016357421875,-0.993408203125,0.008056640625,-2.3475611209869385,-0.8231707215309143,3.932926893234253,6.300000190734863,27.450000762939453,-8.699999809265137,39.11483383178711,0,
 1356038,0.008056640625,-0.993408203125,0.018310546875,-2.8353660106658936,0.0,4.390244007110596,6.300000190734863,25.799999237060547,-9.449999809265137,39.162757873535156,0,
 1356048,0.0078125,-0.969482421875,0.024169921875,-3.932926893234253,1.3109756708145142,4.512195110321045,6.300000190734863,25.799999237060547,-9.449999809265137,39.01898956298828,0,
 1356058,0.009033203125,-0.987548828125,0.033203125,-5.091463565826416,2.378048896789551,4.939024448394775,6.0,26.850000381469727,-8.550000190734863,39.162757873535156,0,
 1356068,0.002197265625,-0.996337890625,0.02197265625,-6.006097793579102,3.3231709003448486,5.4268293380737305,6.449999809265137,26.399999618530273,-8.550000190734863,39.2106819152832,0,
 1356078,0.014892578125,-0.991455078125,0.019775390625,-7.042683124542236,3.9634146690368652,6.280488014221191,6.449999809265137,26.399999618530273,-11.25,39.162757873535156,0,
 1356088,0.0126953125,-0.9765625,0.003662109375,-7.012195110321045,4.542683124542236,7.621951580047607,6.449999809265137,26.399999618530273,-9.0,39.11483383178711,0,
 1356098,0.01123046875,-0.96826171875,-0.015380859375,-7.317073345184326,4.847560882568359,8.506097793579102,6.449999809265137,26.399999618530273,-9.0,38.971065521240234,0,
 1356108,0.02099609375,-0.9521484375,-0.030517578125,-6.829268455505371,4.512195110321045,8.963415145874023,7.050000190734863,27.450000762939453,-9.149999618530273,39.2106819152832,0,
 1356118,0.02197265625,-0.959228515625,-0.0234375,-4.45121955871582,3.9634146690368652,8.689024925231934,6.599999904632568,26.25,-8.699999809265137,39.30652618408203,0,
 1356128,0.0126953125,-0.976806640625,-0.015869140625,-3.47560977935791,3.47560977935791,8.810976028442383,6.75,27.299999237060547,-9.300000190734863,39.2106819152832,0,
 1356138,0.010009765625,-0.969482421875,-0.007568359375,-3.4146342277526855,2.896341562271118,9.085366249084473,6.75,27.299999237060547,-9.300000190734863,39.2106819152832,0,
