timestamp,accl_x,accl_y,accl_z,gyro_x,gyro_y,gyro_z,mag_x,mag_y,mag_z,temp,emg,
 1173396,0.0615234375,-0.97265625,0.12060546875,5.365853786468506,-3.5060975551605225,-4.603658676147461,7.5,26.100000381469727,-14.25,39.11483383178711,0,
 1173406,0.076416015625,-0.950927734375,0.13330078125,4.939024448394775,-3.841463565826416,-5.182927131652832,7.5,22.950000762939453,-14.550000190734863,39.11483383178711,0,
 1173416,0.06591796875,-0.960205078125,0.108154296875,3.6890244483947754,-3.2317073345184326,-4.756097793579102,6.75,22.950000762939453,-11.550000190734863,38.82729721069336,0,
 1173427,0.074462890625,-0.962890625,0.114990234375,2.987804889678955,-3.2012195587158203,-4.1768293380737305,6.300000190734863,25.5,-13.199999809265137,39.162757873535156,0,
 1173437,0.082763671875,-0.95849609375,0.1103515625,3.0487804412841797,-2.8353660106658936,-3.1402440071105957,6.300000190734863,25.5,-13.199999809265137,39.01898956298828,0,
 1173447,0.06982421875,-0.966552734375,0.117919921875,1.6158536672592163,-2.7134146690368652,-2.0731706619262695,6.449999809265137,24.450000762939453,-14.25,39.30652618408203,0,
 1173457,0.080810546875,-0.967041015625,0.109375,0.8231707215309143,-2.9268293380737305,-0.8536585569381714,8.100000381469727,24.75,-15.449999809265137,39.30652618408203,0,
 1173467,0.079833984375,-0.972412109375,0.114013671875,0.9146341681480408,-2.5609755516052246,0.4573170840740204,6.75,23.700000762939453,-14.25,39.11483383178711,0,
 1173477,0.07421875,-0.975341796875,0.1123046875,-0.21341463923454285,-2.195122003555298,1.1280487775802612,7.800000190734863,24.75,-13.949999809265137,39.11483383178711,0,
 1173487,0.0791015625,-0.972412109375,0.113037109375,-0.7317073345184326,-2.378048896789551,1.432926893234253,7.800000190734863,24.75,-13.949999809265137,39.30652618408203,0,
 1173497,0.0712890625,-0.98974609375,0.117431640625,-2.012195110321045,-2.1646342277526855,2.22560977935791,7.5,24.899999618530273,-14.550000190734863,38.82729721069336,0,
 1173507,0.062255859375,-0.989501953125,0.12744140625,-3.353658676147461,-2.317073106765747,1.8597561120986938,7.5,23.25,-17.549999237060547,38.971065521240234,0,
 1173517,0.0595703125,-0.995849609375,0.116943359375,-4.329268455505371,-1.737804889678955,1.4939024448394775,5.849999904632568,24.75,-13.649999618530273,39.11483383178711,0,
 1173527,0.057373046875,-0.998291015625,0.120849609375,-5.640244007110596,-1.097561001777649,1.1585365533828735,5.849999904632568,24.75,-13.649999618530273,39.11483383178711,0,
 1173537,0.05712890625,-0.9931640625,0.114501953125,-5.853658676147461,-1.0365853309631348,-0.15243902802467346,6.449999809265137,24.149999618530273,-13.5,39.162757873535156,0,
 1173547,0.0654296875,-0.979248046875,0.117919921875,-6.036585330963135,-1.0365853309631348,0.060975611209869385,6.599999904632568,23.850000381469727,-13.199999809265137,39.01898956298828,0,
 1173557,0.069091796875,-0.990478515625,0.115478515625,-7.347561359405518,-1.0060975551605225,-0.3353658616542816,5.699999809265137,25.649999618530273,-14.550000190734863,39.11483383178711,0,
 1173567,0.06298828125,-0.97705078125,0.107421875,-9.115854263305664,-0.5487805008888245,-0.4268292784690857,5.699999809265137,25.649999618530273,-13.5,38.92314529418945,0,
 1173577,0.060302734375,-0.96826171875,0.095947265625,-10.792683601379395,0.060975611209869385,-0.7621951103210449,5.699999809265137,25.649999618530273,-13.5,39.35445022583008,0,
 1173587,0.079345703125,-0.952880859375,0.100830078125,-10.304878234863281,1.3414634466171265,-0.3353658616542816,5.849999904632568,25.5,-12.449999809265137,39.2106819152832,0,
 1173597,0.07861328125,-0.955078125,0.102294921875,-9.512195587158203,1.0365853309631348,0.060975611209869385,6.599999904632568,25.5,-14.399999618530273,39.162757873535156,0,
 1173607,0.074951171875,-0.954833984375,0.09716796875,-9.756097793579102,0.8841463327407837,1.0060975551605225,7.349999904632568,26.25,-16.649999618530273,39.162757873535156,0,
 1173617,0.075439453125,-0.95849609375,0.0888671875,-9.969511985778809,0.9756097793579102,1.097561001777649,7.349999904632568,26.25,-16.649999618530273,39.01898956298828,0,
 1173627,0.078857421875,-0.94873046875,0.088623046875,-10.213415145874023,0.7317073345184326,0.7012194991111755,5.699999809265137,23.700000762939453,-14.550000190734863,39.11483383178711,0,
 1173637,0.078857421875,-0.9462890625,0.08447265625,-9.542683601379395,0.7012194991111755,1.5243902206420898,6.599999904632568,24.75,-12.899999618530273,39.2106819152832,0,
 1173647,0.072021484375,-0.951904296875,0.082275390625,-9.359756469726562,0.7621951103210449,1.6158536672592163,6.75,25.649999618530273,-14.25,39.2106819152832,0,
 1173657,0.073974609375,-0.988037109375,0.07861328125,-9.17682933807373,0.4573170840740204,2.2560975551605225,6.75,25.649999618530273,-14.25,38.971065521240234,0,
 1173667,0.078369140625,-0.966796875,0.07421875,-9.542683601379395,0.8841463327407837,2.6524391174316406,6.599999904632568,25.5,-12.899999618530273,39.01898956298828,0,
 1173677,0.073974609375,-0.96142578125,0.072265625,-8.32317066192627,1.6463414430618286,2.6219513416290283,6.0,24.899999618530273,-11.550000190734863,38.971065521240234,0,
 1173687,0.072265625,-0.958251953125,0.077392578125,-7.713414669036865,1.5243902206420898,2.5,6.449999809265137,25.350000381469727,-13.050000190734863,39.162757873535156,0,
 1173697,0.07275390625,-0.954833984375,0.07958984375,-7.682927131652832,1.1890244483947754,3.353658676147461,6.0,24.899999618530273,-12.75,39.2106819152832,0,
 1173707,0.068115234375,-0.9765625,0.0791015625,-6.646341800689697,0.7012194991111755,3.8109757900238037,6.0,24.899999618530273,-12.75,39.2106819152832,0,
 1173717,0.061767578125,-0.9716796875,0.064453125,-6.402439117431641,0.8841463327407837,3.658536672592163,8.100000381469727,24.75,-13.649999618530273,39.01898956298828,0,
 1173727,0.060791015625,-0.974853515625,0.06787109375,-5.182927131652832,1.1890244483947754,3.5365853309631348,5.400000095367432,25.5,-13.649999618530273,39.11483383178711,0,
 1173737,0.0576171875,-0.97314453125,0.072021484375,-4.207317352294922,0.9756097793579102,2.77439022064209,7.199999809265137,24.899999618530273,-14.25,39.30652618408203,0,
 1173747,0.0625,-0.97607421875,0.068603515625,-2.804877996444702,1.0060975551605225,1.9817073345184326,7.199999809265137,24.899999618530273,-14.25,39.01898956298828,0,
 1173757,0.052490234375,-0.968994140625,0.0673828125,-1.8597561120986938,0.7621951103210449,1.2195122241973877,6.449999809265137,25.350000381469727,-13.050000190734863,39.35445022583008,0,
 1173767,0.0634765625,-0.97021484375,0.07080078125,-0.3658536672592163,0.5487805008888245,0.8536585569381714,6.599999904632568,25.5,-13.199999809265137,38.92314529418945,0,
 1173777,0.05126953125,-0.973876953125,0.06640625,0.7621951103210449,0.4573170840740204,0.12195122241973877,7.5,24.899999618530273,-14.25,38.92314529418945,0,
 1173787,0.059814453125,-0.971435546875,0.071044921875,1.432926893234253,0.12195122241973877,-0.3048780560493469,7.050000190734863,24.75,-12.449999809265137,39.30652618408203,0,
 1173797,0.0625,-0.9658203125,0.07080078125,2.7134146690368652,0.24390244483947754,-0.4573170840740204,5.849999904632568,27.450000762939453,-13.649999618530273,39.11483383178711,0,
 1173807,0.0673828125,-0.9609375,0.07666015625,3.079268455505371,-0.18292683362960815,-0.9451219439506531,6.75,24.899999618530273,-12.75,39.11483383178711,0,
 1173817,0.066162109375,-0.94921875,0.079833984375,3.567073345184326,0.21341463923454285,-0.7621951103210449,6.599999904632568,22.350000381469727,-13.649999618530273,38.82729721069336,0,
 1173827,0.06884765625,-0.956787109375,0.074951171875,3.841463565826416,0.27439025044441223,-0.5487805008888245,6.0,25.350000381469727,-11.25,38.971065521240234,0,
 1173837,0.065673828125,-0.958740234375,0.07763671875,4.0853657722473145,-0.21341463923454285,-0.24390244483947754,6.0,25.350000381469727,-11.25,38.971065521240234,0,
 1173847,0.072021484375,-0.951416015625,0.080078125,4.1768293380737305,0.24390244483947754,-0.5792682766914368,5.25,26.100000381469727,-13.5,39.11483383178711,0,
 1173857,0.064697265625,-0.953857421875,0.086669921875,4.481707572937012,0.24390244483947754,-0.27439025044441223,7.949999809265137,25.649999618530273,-13.800000190734863,38.82729721069336,0,
 1173867,0.06640625,-0.959228515625,0.076416015625,4.45121955871582,0.396341472864151,-0.792682945728302,7.199999809265137,24.899999618530273,-13.800000190734863,39.2106819152832,0,
 1173877,0.0615234375,-0.953369140625,0.078369140625,5.0,0.4878048896789551,-1.1585365533828735,7.199999809265137,24.899999618530273,-13.800000190734863,39.01898956298828,0,
 1173887,0.06689453125,-0.96484375,0.0830078125,5.487804889678955,0.4878048896789551,-1.2804877758026123,6.300000190734863,25.799999237060547,-14.399999618530273,39.2106819152832,0,
 1173897,0.066650390625,-0.963623046875,0.082763671875,5.731707572937012,0.6402438879013062,-0.7621951103210449,7.5,24.450000762939453,-13.5,39.01898956298828,0,
 1173907,0.063232421875,-0.966064453125,0.080322265625,5.8231706619262695,0.5487805008888245,-0.6097561120986938,6.0,24.899999618530273,-14.550000190734863,38.92314529418945,0,
 1173917,0.072265625,-0.978759765625,0.080078125,5.670732021331787,0.4878048896789551,-0.6402438879013062,5.849999904632568,26.25,-13.649999618530273,39.2106819152832,0,
 1173927,0.0634765625,-0.962158203125,0.08740234375,6.402439117431641,0.9756097793579102,-0.8536585569381714,5.849999904632568,26.25,-13.649999618530273,39.2106819152832,0,
 1173937,0.06982421875,-0.9658203125,0.090576171875,7.0731706619262695,0.7621951103210449,-0.7317073345184326,7.949999809265137,24.899999618530273,-13.800000190734863,39.2106819152832,0,
 1173947,0.08154296875,-0.9619140625,0.107421875,7.560975551605225,0.27439025044441223,-0.12195122241973877,6.449999809265137,24.899999618530273,-14.550000190734863,39.01898956298828,0,
 1173957,0.0732421875,-0.974609375,0.111083984375,7.103658676147461,0.0,0.09146341681480408,6.75,24.450000762939453,-14.25,38.971065521240234,0,
 1173967,0.064453125,-0.97607421875,0.10009765625,6.189024448394775,0.18292683362960815,0.060975611209869385,6.75,24.450000762939453,-14.25,39.30652618408203,0,
 1173977,0.060791015625,-0.969482421875,0.087646484375,6.219512462615967,0.396341472864151,0.030487805604934692,7.199999809265137,25.350000381469727,-13.5,39.11483383178711,0,
 1173987,0.066650390625,-0.9560546875,0.09130859375,6.402439117431641,0.4878048896789551,-0.060975611209869385,6.449999809265137,25.649999618530273,-13.800000190734863,39.2106819152832,0,
 1173997,0.072021484375,-0.95654296875,0.092041015625,6.707317352294922,0.4573170840740204,-0.15243902802467346,7.949999809265137,24.899999618530273,-14.25,39.35445022583008,0,
 1174007,0.070556640625,-0.956298828125,0.09619140625,7.22560977935791,0.4878048896789551,-0.09146341681480408,7.949999809265137,24.899999618530273,-14.25,39.01898956298828,0,
 1174017,0.07080078125,-0.952880859375,0.103271484375,7.012195110321045,0.792682945728302,-0.3353658616542816,7.349999904632568,23.100000381469727,-16.649999618530273,39.162757873535156,0,
 1174027,0.071533203125,-0.95703125,0.108642578125,7.530488014221191,0.3048780560493469,-0.18292683362960815,5.699999809265137,24.899999618530273,-13.5,39.01898956298828,0,
 1174037,0.072998046875,-0.9677734375,0.11962890625,7.896341800689697,0.09146341681480408,0.24390244483947754,5.849999904632568,25.049999237060547,-13.949999809265137,38.92314529418945,0,
 1174047,0.066650390625,-0.96728515625,0.110595703125,6.890244007110596,-0.060975611209869385,0.15243902802467346,6.75,24.899999618530273,-12.300000190734863,39.2106819152832,0,
 1174057,0.067626953125,-0.96826171875,0.122802734375,5.884146690368652,0.27439025044441223,0.24390244483947754,6.75,24.899999618530273,-12.300000190734863,38.82729721069336,0,
 1174067,0.0634765625,-0.962158203125,0.10791015625,5.152439117431641,0.4573170840740204,0.6402438879013062,6.599999904632568,25.049999237060547,-13.649999618530273,39.01898956298828,0,
 1174077,0.066650390625,-0.96826171875,0.11376953125,3.841463565826416,0.5487805008888245,0.09146341681480408,6.300000190734863,24.75,-13.649999618530273,39.2106819152832,0,
 1174087,0.064453125,-0.968505859375,0.119140625,3.1402440071105957,0.8841463327407837,0.0,7.349999904632568,24.299999237060547,-13.949999809265137,39.2106819152832,0,
 1174097,0.060791015625,-0.96630859375,0.109375,2.77439022064209,0.6402438879013062,0.030487805604934692,7.349999904632568,24.299999237060547,-13.949999809265137,38.92314529418945,0,
 1174107,0.062255859375,-0.968994140625,0.111083984375,2.22560977935791,0.4878048896789551,-0.12195122241973877,7.199999809265137,25.649999618530273,-13.050000190734863,39.162757873535156,0,
 1174117,0.0673828125,-0.96044921875,0.10791015625,1.9817073345184326,0.5487805008888245,-0.18292683362960815,5.400000095367432,26.25,-15.899999618530273,39.2106819152832,0,
 1174127,0.068115234375,-0.964599609375,0.111083984375,2.317073106765747,0.5182926654815674,-0.5487805008888245,7.800000190734863,24.299999237060547,-13.949999809265137,38.92314529418945,0,
 1174137,0.06640625,-0.96435546875,0.10791015625,2.3475611209869385,0.792682945728302,-0.3658536672592163,7.349999904632568,26.25,-14.399999618530273,39.2106819152832,0,
 1174147,0.064453125,-0.9560546875,0.107666015625,1.7073171138763428,0.792682945728302,-0.9756097793579102,5.25,24.450000762939453,-14.550000190734863,39.2106819152832,0,
 1174157,0.07080078125,-0.947509765625,0.111083984375,2.0731706619262695,1.0060975551605225,-1.0365853309631348,7.050000190734863,25.049999237060547,-13.949999809265137,38.82729721069336,0,
 1174167,0.06787109375,-0.96728515625,0.10009765625,2.77439022064209,0.8536585569381714,-1.25,6.599999904632568,25.799999237060547,-15.449999809265137,39.11483383178711,0,
 1174177,0.082763671875,-0.94482421875,0.168701171875,2.896341562271118,0.5792682766914368,-1.0365853309631348,7.050000190734863,24.75,-14.699999809265137,38.971065521240234,0,
 1174187,0.07861328125,-1.009521484375,0.125244140625,4.512195110321045,-1.0365853309631348,-0.792682945728302,7.050000190734863,24.75,-14.699999809265137,38.82729721069336,0,
 1174198,0.068603515625,-0.970947265625,0.13818359375,2.1646342277526855,-0.4878048896789551,-0.030487805604934692,7.050000190734863,25.5,-14.699999809265137,39.2106819152832,0,
 1174208,0.069580078125,-0.98876953125,0.116455078125,1.920731782913208,0.09146341681480408,-0.18292683362960815,5.699999809265137,25.649999618530273,-15.300000190734863,38.92314529418945,0,
 1174218,0.0693359375,-0.951171875,0.1171875,-0.4268292784690857,0.27439025044441223,-0.21341463923454285,6.599999904632568,24.299999237060547,-15.899999618530273,38.92314529418945,0,
 1174228,0.071533203125,-0.967529296875,0.122314453125,0.060975611209869385,0.6402438879013062,0.12195122241973877,6.599999904632568,24.299999237060547,-15.899999618530273,39.162757873535156,0,
 1174238,0.069091796875,-0.953857421875,0.111328125,-0.9146341681480408,0.6097561120986938,0.4878048896789551,6.300000190734863,24.299999237060547,-15.149999618530273,39.35445022583008,0,
 1174248,0.0673828125,-0.959716796875,0.11474609375,-0.7317073345184326,1.1280487775802612,0.3658536672592163,6.0,25.350000381469727,-16.049999237060547,39.2106819152832,0,
 1174258,0.07275390625,-0.958251953125,0.11767578125,-0.8536585569381714,0.9756097793579102,0.21341463923454285,7.199999809265137,26.100000381469727,-13.050000190734863,38.92314529418945,0,
 1174268,0.073486328125,-0.9638671875,0.10986328125,-0.3048780560493469,0.6707317233085632,0.3353658616542816,6.0,24.450000762939453,-13.050000190734863,39.01898956298828,0,
 1174278,0.07275390625,-0.960205078125,0.113525390625,-0.24390244483947754,0.396341472864151,0.4268292784690857,6.0,24.450000762939453,-13.050000190734863,39.01898956298828,0,
 1174288,0.061279296875,-0.96533203125,0.117431640625,0.24390244483947754,0.12195122241973877,0.0,7.5,26.399999618530273,-15.0,39.11483383178711,0,
 1174298,0.060546875,-0.971435546875,0.12158203125,0.21341463923454285,0.3658536672592163,0.09146341681480408,4.5,27.299999237060547,-14.550000190734863,39.01898956298828,0,
 1174308,0.065185546875,-0.976318359375,0.113525390625,-0.030487805604934692,0.3048780560493469,0.060975611209869385,6.75,26.100000381469727,-15.300000190734863,39.01898956298828,0,
 1174318,0.066162109375,-0.97900390625,0.120849609375,-0.7317073345184326,0.3658536672592163,0.09146341681480408,6.75,26.100000381469727,-15.300000190734863,39.01898956298828,0,
 1174328,0.0615234375,-0.97705078125,0.116943359375,-0.8231707215309143,0.21341463923454285,0.21341463923454285,5.099999904632568,22.649999618530273,-15.899999618530273,39.2106819152832,0,
 1174338,0.065185546875,-0.970458984375,0.11767578125,-0.9756097793579102,0.3353658616542816,0.6097561120986938,5.849999904632568,25.799999237060547,-13.949999809265137,39.2106819152832,0,
 1174348,0.073486328125,-0.9716796875,0.115478515625,-1.2195122241973877,0.12195122241973877,0.7317073345184326,8.399999618530273,24.899999618530273,-16.049999237060547,38.77937698364258,0,
 1174358,0.069580078125,-0.960693359375,0.115234375,-0.6097561120986938,0.21341463923454285,0.6097561120986938,8.399999618530273,24.899999618530273,-16.049999237060547,38.971065521240234,0,
 1174368,0.07373046875,-0.964599609375,0.11181640625,-0.3658536672592163,0.7621951103210449,0.5182926654815674,7.5,26.399999618530273,-15.300000190734863,39.2106819152832,0,
 1174378,0.0703125,-0.955078125,0.116943359375,0.12195122241973877,0.4573170840740204,0.8231707215309143,5.699999809265137,25.350000381469727,-13.050000190734863,38.92314529418945,0,
 1174388,0.0703125,-0.955810546875,0.119384765625,0.396341472864151,0.4878048896789551,1.2195122241973877,6.599999904632568,27.450000762939453,-14.699999809265137,39.01898956298828,0,
 1174398,0.07373046875,-0.9619140625,0.115478515625,0.3658536672592163,0.6402438879013062,1.1890244483947754,7.050000190734863,26.25,-15.899999618530273,39.11483383178711,0,
 1174408,0.0712890625,-0.961181640625,0.11376953125,0.4878048896789551,0.060975611209869385,0.8536585569381714,7.050000190734863,26.25,-15.899999618530273,39.162757873535156,0,
 1174418,0.079345703125,-0.965087890625,0.115966796875,0.5487805008888245,0.12195122241973877,0.6707317233085632,6.0,26.399999618530273,-15.75,39.11483383178711,0,
 1174428,0.06396484375,-0.96044921875,0.114501953125,0.5182926654815674,0.5487805008888245,0.8536585569381714,6.599999904632568,24.75,-16.950000762939453,38.971065521240234,0,
 1174438,0.068115234375,-0.965087890625,0.112060546875,0.5487805008888245,0.3353658616542816,0.5792682766914368,6.300000190734863,26.25,-14.699999809265137,39.30652618408203,0,
 1174448,0.07080078125,-0.96044921875,0.118408203125,0.5182926654815674,0.396341472864151,1.2804877758026123,6.300000190734863,26.25,-14.699999809265137,39.01898956298828,0,
 1174458,0.0673828125,-0.96484375,0.1181640625,0.4268292784690857,0.6707317233085632,1.0670732259750366,7.800000190734863,25.5,-16.200000762939453,39.11483383178711,0,
 1174468,0.064208984375,-0.957763671875,0.12158203125,0.3658536672592163,0.7317073345184326,1.4634146690368652,6.449999809265137,26.850000381469727,-15.75,39.01898956298828,0,
 1174478,0.072021484375,-0.955322265625,0.119873046875,0.15243902802467346,1.0060975551605225,2.103658676147461,6.599999904632568,25.799999237060547,-14.699999809265137,39.01898956298828,0,
 1174488,0.0673828125,-0.967041015625,0.118408203125,0.396341472864151,0.6097561120986938,2.8353660106658936,6.599999904632568,25.799999237060547,-14.699999809265137,39.35445022583008,0,
 1174498,0.06982421875,-0.95751953125,0.11474609375,0.792682945728302,0.792682945728302,2.682926893234253,7.199999809265137,25.649999618530273,-15.0,38.92314529418945,0,
 1174508,0.070556640625,-0.958251953125,0.119384765625,0.792682945728302,0.9451219439506531,3.262195110321045,8.699999809265137,25.649999618530273,-15.0,39.162757873535156,0,
 1174518,0.0693359375,-0.959716796875,0.123291015625,0.9451219439506531,0.9451219439506531,3.567073345184326,7.199999809265137,24.899999618530273,-15.300000190734863,39.162757873535156,0,
 1174528,0.06689453125,-0.953369140625,0.10791015625,1.1280487775802612,0.7317073345184326,3.7195122241973877,7.800000190734863,25.5,-16.200000762939453,39.2106819152832,0,
 1174538,0.0634765625,-0.95654296875,0.12158203125,1.1585365533828735,0.8536585569381714,3.5975611209869385,7.800000190734863,25.5,-16.200000762939453,39.01898956298828,0,
 1174548,0.063232421875,-0.96142578125,0.1181640625,1.1280487775802612,0.4573170840740204,3.567073345184326,7.050000190734863,25.799999237060547,-13.949999809265137,38.587684631347656,0,
 1174558,0.062744140625,-0.96484375,0.12158203125,1.2804877758026123,0.5792682766914368,3.5365853309631348,6.599999904632568,25.5,-15.899999618530273,39.11483383178711,0,
 1174568,0.062744140625,-0.9697265625,0.12109375,0.9451219439506531,0.6402438879013062,3.5060975551605225,5.400000095367432,25.049999237060547,-14.399999618530273,38.971065521240234,0,
 1174578,0.0634765625,-0.96826171875,0.12255859375,1.0365853309631348,0.7317073345184326,3.6890244483947754,5.400000095367432,25.049999237060547,-14.399999618530273,38.971065521240234,0,
 1174588,0.05322265625,-0.96728515625,0.11376953125,1.3414634466171265,0.792682945728302,3.3841464519500732,6.75,26.100000381469727,-13.800000190734863,39.2106819152832,0,
 1174598,0.055419921875,-0.96826171875,0.12451171875,1.1280487775802612,0.7621951103210449,3.5060975551605225,5.849999904632568,26.700000762939453,-14.699999809265137,38.971065521240234,0,
 1174608,0.05908203125,-0.964111328125,0.1201171875,0.6707317233085632,0.9451219439506531,3.5060975551605225,7.949999809265137,25.350000381469727,-14.25,39.2106819152832,0,
 1174618,0.056396484375,-0.9677734375,0.122802734375,0.5182926654815674,0.5182926654815674,3.2317073345184326,6.75,26.399999618530273,-15.75,39.01898956298828,0,
 1174628,0.052978515625,-0.96728515625,0.1220703125,0.4268292784690857,0.8536585569381714,3.0182926654815674,6.75,26.399999618530273,-15.75,39.01898956298828,0,
 1174638,0.060791015625,-0.964111328125,0.12158203125,0.18292683362960815,0.4878048896789551,2.8353660106658936,6.449999809265137,24.899999618530273,-14.25,39.30652618408203,0,
 1174648,0.059814453125,-0.968017578125,0.120849609375,0.3048780560493469,0.4268292784690857,2.378048896789551,6.75,25.350000381469727,-13.800000190734863,38.971065521240234,0,
 1174658,0.05419921875,-0.961181640625,0.124267578125,0.27439025044441223,0.396341472864151,2.1646342277526855,7.050000190734863,25.049999237060547,-14.399999618530273,39.01898956298828,0,
 1174668,0.0576171875,-0.9658203125,0.121826171875,0.3048780560493469,0.4878048896789551,1.6463414430618286,7.050000190734863,25.049999237060547,-14.399999618530273,38.971065521240234,0,
 1174678,0.052734375,-0.964599609375,0.124267578125,0.060975611209869385,0.3658536672592163,1.432926893234253,5.699999809265137,26.100000381469727,-14.550000190734863,39.01898956298828,0,
 1174688,0.056640625,-0.958740234375,0.124267578125,-0.18292683362960815,0.24390244483947754,0.9756097793579102,7.349999904632568,25.5,-13.949999809265137,39.162757873535156,0,
 1174698,0.0556640625,-0.9638671875,0.122802734375,-0.5182926654815674,0.4878048896789551,0.8536585569381714,5.849999904632568,26.700000762939453,-14.399999618530273,38.82729721069336,0,
 1174708,0.059814453125,-0.9599609375,0.12939453125,-0.6707317233085632,0.4268292784690857,0.4878048896789551,5.849999904632568,26.700000762939453,-14.399999618530273,39.01898956298828,0,
 1174718,0.0556640625,-0.96484375,0.123291015625,-0.9146341681480408,0.396341472864151,0.6707317233085632,6.449999809265137,26.100000381469727,-14.550000190734863,38.971065521240234,0,
 1174728,0.05517578125,-0.96240234375,0.12109375,-1.3109756708145142,0.4878048896789551,0.792682945728302,6.0,26.100000381469727,-15.0,38.92314529418945,0,
 1174738,0.06005859375,-0.9619140625,0.12548828125,-1.3109756708145142,0.6707317233085632,0.7317073345184326,8.550000190734863,24.75,-17.399999618530273,39.01898956298828,0,
 1174748,0.057861328125,-0.9609375,0.1220703125,-1.585365891456604,0.6097561120986938,0.9756097793579102,7.199999809265137,26.100000381469727,-14.550000190734863,39.11483383178711,0,
 1174758,0.058349609375,-0.96484375,0.119140625,-1.9512195587158203,0.7621951103210449,1.0060975551605225,7.199999809265137,26.100000381469727,-14.550000190734863,39.11483383178711,0,
 1174768,0.061279296875,-0.964599609375,0.121826171875,-2.012195110321045,0.7317073345184326,0.792682945728302,6.75,24.450000762939453,-15.300000190734863,39.01898956298828,0,
 1174778,0.057373046875,-0.961669921875,0.11572265625,-2.0731706619262695,0.7317073345184326,0.5487805008888245,6.300000190734863,25.049999237060547,-15.449999809265137,39.35445022583008,0,
 1174788,0.056640625,-0.963134765625,0.12646484375,-2.1341464519500732,0.8536585569381714,0.6402438879013062,6.0,24.450000762939453,-15.75,38.971065521240234,0,
 1174798,0.060791015625,-0.963623046875,0.11962890625,-2.378048896789551,0.9451219439506531,0.3353658616542816,6.0,24.450000762939453,-15.75,39.01898956298828,0,
 1174808,0.053955078125,-0.965087890625,0.12255859375,-2.5,0.9756097793579102,0.6097561120986938,8.399999618530273,24.899999618530273,-16.049999237060547,39.2106819152832,0,
 1174818,0.06201171875,-0.962158203125,0.126708984375,-2.6219513416290283,0.5792682766914368,0.5182926654815674,6.75,25.649999618530273,-18.0,39.11483383178711,0,
 1174828,0.05078125,-0.96044921875,0.11767578125,-2.4390244483947754,0.8536585569381714,0.6097561120986938,6.599999904632568,26.25,-13.949999809265137,39.2106819152832,0,
 1174838,0.0576171875,-0.968505859375,0.1123046875,-2.2560975551605225,0.792682945728302,0.4573170840740204,6.599999904632568,26.25,-13.949999809265137,39.11483383178711,0,
 1174848,0.052490234375,-0.9697265625,0.119140625,-2.4695122241973877,0.8536585569381714,0.5487805008888245,5.849999904632568,24.75,-14.699999809265137,39.01898956298828,0,
 1174858,0.0654296875,-0.9541015625,0.11767578125,-2.22560977935791,0.9146341681480408,0.3658536672592163,7.199999809265137,27.299999237060547,-16.049999237060547,39.11483383178711,0,
 1174868,0.0400390625,-0.95947265625,0.1259765625,-2.5609755516052246,0.6097561120986938,0.24390244483947754,5.25,28.049999237060547,-15.300000190734863,39.11483383178711,0,
 1174878,0.059326171875,-0.961181640625,0.119140625,-2.6524391174316406,0.792682945728302,0.0,6.449999809265137,26.399999618530273,-15.300000190734863,39.01898956298828,0,
 1174888,0.051025390625,-0.96728515625,0.121826171875,-2.6219513416290283,0.8841463327407837,0.030487805604934692,6.449999809265137,26.399999618530273,-15.300000190734863,38.82729721069336,0,
 1174899,0.052734375,-0.970458984375,0.1220703125,-3.0487804412841797,0.7012194991111755,-0.6402438879013062,4.5,26.399999618530273,-14.25,39.2106819152832,0,
 1174909,0.0576171875,-0.970703125,0.121337890625,-2.591463565826416,0.5487805008888245,-0.5182926654815674,5.849999904632568,25.5,-15.449999809265137,38.971065521240234,0,
 1174919,0.05224609375,-0.964111328125,0.115478515625,-2.591463565826416,0.27439025044441223,-0.8536585569381714,6.300000190734863,24.75,-14.699999809265137,39.01898956298828,0,
 1174929,0.056884765625,-0.95947265625,0.116455078125,-2.378048896789551,0.5487805008888245,-0.5792682766914368,6.300000190734863,24.75,-14.699999809265137,39.11483383178711,0,
 1174939,0.056396484375,-0.958251953125,0.119384765625,-2.4390244483947754,0.6402438879013062,-0.6707317233085632,8.850000381469727,27.450000762939453,-15.449999809265137,39.01898956298828,0,
 1174949,0.0634765625,-0.96728515625,0.112548828125,-2.2865853309631348,0.5792682766914368,-0.4268292784690857,7.050000190734863,25.5,-14.699999809265137,39.01898956298828,0,
 1174959,0.05419921875,-0.95703125,0.1123046875,-1.8292683362960815,0.3658536672592163,-0.4878048896789551,7.349999904632568,26.25,-15.149999618530273,39.35445022583008,0,
 1174969,0.06103515625,-0.9609375,0.1103515625,-1.8292683362960815,0.4878048896789551,-0.5487805008888245,6.75,26.850000381469727,-13.050000190734863,39.01898956298828,0,
 1174979,0.0615234375,-0.959228515625,0.10546875,-1.4634146690368652,0.5792682766914368,-0.3048780560493469,6.75,26.100000381469727,-14.550000190734863,39.11483383178711,0,
 1174989,0.059326171875,-0.960693359375,0.11474609375,-1.25,0.5182926654815674,0.060975611209869385,6.449999809265137,25.350000381469727,-14.25,38.77937698364258,0,
 1174999,0.058837890625,-0.957763671875,0.110595703125,-0.6707317233085632,0.15243902802467346,-0.24390244483947754,6.449999809265137,26.850000381469727,-13.800000190734863,39.11483383178711,0,
 1175009,0.0576171875,-0.96044921875,0.10791015625,-0.7317073345184326,0.27439025044441223,-0.27439025044441223,6.449999809265137,25.649999618530273,-13.5,39.01898956298828,0,
 1175019,0.056640625,-0.96240234375,0.111083984375,-0.12195122241973877,-0.030487805604934692,-0.24390244483947754,6.449999809265137,25.649999618530273,-13.5,39.35445022583008,0,
 1175029,0.063232421875,-0.960693359375,0.111083984375,0.12195122241973877,0.27439025044441223,-0.3353658616542816,7.349999904632568,25.799999237060547,-13.949999809265137,39.162757873535156,0,
 1175039,0.0556640625,-0.9619140625,0.109375,0.0,0.27439025044441223,-0.030487805604934692,5.699999809265137,27.600000381469727,-15.300000190734863,39.01898956298828,0,
 1175049,0.05908203125,-0.9609375,0.107666015625,0.15243902802467346,0.27439025044441223,-0.18292683362960815,7.5,26.100000381469727,-14.550000190734863,39.162757873535156,0,
 1175059,0.052001953125,-0.959716796875,0.115966796875,0.8841463327407837,0.0,-0.5792682766914368,7.5,26.100000381469727,-14.550000190734863,39.2106819152832,0,
 1175069,0.05517578125,-0.95751953125,0.110107421875,0.9451219439506531,0.21341463923454285,-0.6097561120986938,7.949999809265137,25.350000381469727,-15.0,39.01898956298828,0,
 1175079,0.0546875,-0.967529296875,0.117431640625,1.1890244483947754,0.18292683362960815,-1.25,6.300000190734863,25.5,-14.399999618530273,39.35445022583008,0,
 1175089,0.0576171875,-0.962646484375,0.11328125,1.1280487775802612,0.09146341681480408,-0.4878048896789551,6.0,26.399999618530273,-15.300000190734863,39.01898956298828,0,
 1175099,0.06005859375,-0.969970703125,0.114501953125,1.6463414430618286,0.030487805604934692,-0.6097561120986938,7.050000190734863,27.0,-13.649999618530273,38.92314529418945,0,
 1175109,0.057861328125,-0.9609375,0.118896484375,1.3109756708145142,0.09146341681480408,-0.4268292784690857,7.050000190734863,27.0,-13.649999618530273,39.2106819152832,0,
 1175119,0.05712890625,-0.9609375,0.119873046875,1.3109756708145142,-0.18292683362960815,-0.792682945728302,7.800000190734863,27.0,-14.399999618530273,39.2106819152832,0,
 1175129,0.06103515625,-0.960205078125,0.12060546875,1.402438998222351,0.060975611209869385,-0.3048780560493469,7.800000190734863,27.0,-15.899999618530273,39.01898956298828,0,
 1175139,0.0595703125,-0.970947265625,0.118408203125,1.2195122241973877,0.27439025044441223,-0.4268292784690857,6.75,26.100000381469727,-15.75,38.92314529418945,0,
 1175149,0.059326171875,-0.962890625,0.117431640625,1.0365853309631348,0.15243902802467346,-0.5182926654815674,6.75,26.100000381469727,-15.75,39.2106819152832,0,
 1175159,0.066162109375,-0.96142578125,0.1162109375,1.0670732259750366,0.4878048896789551,-0.27439025044441223,8.100000381469727,25.5,-15.449999809265137,39.11483383178711,0,
 1175169,0.066162109375,-0.9619140625,0.115234375,1.1890244483947754,0.4268292784690857,0.030487805604934692,5.699999809265137,25.649999618530273,-15.0,39.2106819152832,0,
 1175179,0.055419921875,-0.9677734375,0.1181640625,0.9451219439506531,0.09146341681480408,-0.24390244483947754,6.75,26.850000381469727,-14.550000190734863,39.162757873535156,0,
 1175189,0.056884765625,-0.964599609375,0.113525390625,0.9756097793579102,0.4878048896789551,0.0,6.75,26.850000381469727,-14.550000190734863,39.30652618408203,0,
 1175199,0.067138671875,-0.964111328125,0.119873046875,1.3109756708145142,0.396341472864151,0.060975611209869385,5.849999904632568,26.25,-15.449999809265137,39.35445022583008,0,
 1175209,0.056884765625,-0.96484375,0.118896484375,1.1585365533828735,0.3658536672592163,0.21341463923454285,5.099999904632568,25.799999237060547,-13.949999809265137,39.01898956298828,0,
 1175219,0.06298828125,-0.96484375,0.119384765625,1.0060975551605225,0.5792682766914368,0.6402438879013062,5.849999904632568,27.0,-14.699999809265137,39.162757873535156,0,
 1175229,0.062255859375,-0.966552734375,0.115478515625,0.6097561120986938,0.3048780560493469,0.6402438879013062,5.400000095367432,26.25,-14.699999809265137,38.971065521240234,0,
 1175239,0.057861328125,-0.959228515625,0.118408203125,0.3658536672592163,0.3658536672592163,0.6707317233085632,5.400000095367432,26.25,-14.699999809265137,39.162757873535156,0,
 1175249,0.06396484375,-0.96826171875,0.118896484375,0.396341472864151,0.396341472864151,0.4878048896789551,6.300000190734863,25.5,-15.449999809265137,38.971065521240234,0,
 1175259,0.0615234375,-0.963623046875,0.1162109375,0.09146341681480408,0.21341463923454285,0.5792682766914368,7.199999809265137,26.399999618530273,-15.300000190734863,38.971065521240234,0,
 1175269,0.05712890625,-0.965087890625,0.118408203125,0.12195122241973877,0.3048780560493469,0.9756097793579102,6.75,26.100000381469727,-14.550000190734863,39.2106819152832,0,
 1175279,0.0625,-0.960205078125,0.12060546875,-0.09146341681480408,0.3658536672592163,0.8231707215309143,6.75,26.100000381469727,-14.550000190734863,39.2106819152832,0,
 1175289,0.065185546875,-0.9658203125,0.117919921875,-0.24390244483947754,0.4878048896789551,0.8231707215309143,6.300000190734863,25.799999237060547,-13.949999809265137,39.2106819152832,0,
 1175299,0.057373046875,-0.9638671875,0.120849609375,-0.4268292784690857,0.4878048896789551,0.8841463327407837,6.75,25.649999618530273,-13.800000190734863,39.2106819152832,0,
 1175309,0.059326171875,-0.96826171875,0.118896484375,-0.9451219439506531,0.4573170840740204,1.0365853309631348,6.449999809265137,24.899999618530273,-12.75,39.01898956298828,0,
 1175319,0.066162109375,-0.965087890625,0.1220703125,-1.5243902206420898,0.5487805008888245,0.6707317233085632,6.449999809265137,24.450000762939453,-16.799999237060547,39.2106819152832,0,
 1175329,0.05810546875,-0.969482421875,0.127197265625,-2.22560977935791,0.8231707215309143,1.2804877758026123,7.050000190734863,28.200000762939453,-14.699999809265137,38.92314529418945,0,
 1175339,0.05810546875,-0.972900390625,0.12841796875,-2.7134146690368652,0.7317073345184326,1.1585365533828735,7.349999904632568,27.0,-14.399999618530273,39.01898956298828,0,
 1175349,0.05712890625,-0.966796875,0.12060546875,-3.170731782913208,0.6707317233085632,1.4634146690368652,8.100000381469727,27.0,-16.649999618530273,39.2106819152832,0,
 1175359,0.054443359375,-0.97216796875,0.123291015625,-3.353658676147461,0.8841463327407837,1.5548781156539917,8.550000190734863,25.799999237060547,-15.899999618530273,39.2106819152832,0,
 1175369,0.056884765625,-0.9677734375,0.122314453125,-3.5060975551605225,1.3109756708145142,2.1341464519500732,8.550000190734863,25.799999237060547,-15.899999618530273,39.162757873535156,0,
 1175379,0.0556640625,-0.970458984375,0.119873046875,-3.75,1.1890244483947754,1.6768293380737305,5.699999809265137,25.649999618530273,-13.800000190734863,38.92314529418945,0,
 1175389,0.05712890625,-0.96728515625,0.119384765625,-4.207317352294922,1.3414634466171265,2.3475611209869385,5.099999904632568,24.75,-13.949999809265137,38.92314529418945,0,
 1175399,0.04248046875,-0.9853515625,0.112548828125,-4.115853786468506,1.737804889678955,2.591463565826416,8.100000381469727,25.5,-15.149999618530273,39.35445022583008,0,
 1175409,0.058837890625,-0.966064453125,0.12353515625,-5.762195110321045,2.195122003555298,2.7134146690368652,8.100000381469727,25.5,-15.149999618530273,39.01898956298828,0,
 1175419,0.058837890625,-0.96728515625,0.119873046875,-5.182927131652832,1.6158536672592163,2.4390244483947754,7.199999809265137,25.649999618530273,-14.25,39.01898956298828,0,
 1175429,0.05322265625,-0.97119140625,0.10986328125,-5.152439117431641,1.5243902206420898,2.1341464519500732,6.75,24.899999618530273,-14.550000190734863,39.30652618408203,0,
 1175439,0.05712890625,-0.968994140625,0.110595703125,-4.939024448394775,1.3109756708145142,2.5304877758026123,6.75,24.899999618530273,-13.050000190734863,39.01898956298828,0,
 1175449,0.055908203125,-0.96630859375,0.10986328125,-4.695122241973877,1.2195122241973877,2.195122003555298,5.25,27.299999237060547,-16.049999237060547,39.162757873535156,0,
 1175459,0.050048828125,-0.9638671875,0.10888671875,-3.3841464519500732,0.8841463327407837,1.7682926654815674,5.25,27.299999237060547,-16.049999237060547,39.2106819152832,0,
 1175469,0.045166015625,-0.974609375,0.09814453125,-2.682926893234253,0.6097561120986938,1.3414634466171265,6.449999809265137,24.899999618530273,-15.300000190734863,39.2106819152832,0,
 1175479,0.04736328125,-0.965087890625,0.1064453125,-2.4390244483947754,0.3048780560493469,0.8536585569381714,7.349999904632568,25.799999237060547,-13.949999809265137,38.82729721069336,0,
 1175489,0.0478515625,-0.96630859375,0.10595703125,-1.097561001777649,0.18292683362960815,-0.060975611209869385,7.800000190734863,25.5,-14.399999618530273,39.2106819152832,0,
 1175499,0.05322265625,-0.961181640625,0.111083984375,-0.9451219439506531,-0.060975611209869385,-0.8536585569381714,7.800000190734863,25.5,-14.399999618530273,39.11483383178711,0,
 1175509,0.050537109375,-0.974853515625,0.114990234375,-0.6097561120986938,0.030487805604934692,-2.012195110321045,5.25,25.350000381469727,-13.800000190734863,39.2106819152832,0,
 1175519,0.052490234375,-0.96484375,0.111572265625,-1.402438998222351,-0.030487805604934692,-3.2012195587158203,7.800000190734863,25.799999237060547,-13.199999809265137,39.450294494628906,0,
 1175529,0.06005859375,-0.950927734375,0.1083984375,-1.1280487775802612,-0.4573170840740204,-3.6890244483947754,6.0,24.899999618530273,-13.800000190734863,39.01898956298828,0,
 1175539,0.049560546875,-0.94873046875,0.1044921875,-0.6402438879013062,-0.6402438879013062,-4.054878234863281,6.0,24.899999618530273,-13.800000190734863,39.11483383178711,0,
 1175549,0.06591796875,-0.955810546875,0.103759765625,0.060975611209869385,-0.8841463327407837,-4.817073345184326,6.75,26.100000381469727,-15.0,39.2106819152832,0,
 1175569,0.069091796875,-0.958740234375,0.109130859375,0.4268292784690857,-0.5487805008888245,-4.756097793579102,6.599999904632568,25.5,-14.699999809265137,39.01898956298828,0,
 1175579,0.068115234375,-0.9501953125,0.11083984375,0.09146341681480408,-0.6097561120986938,-3.5975611209869385,7.800000190734863,26.700000762939453,-14.399999618530273,38.971065521240234,0,
 1175589,0.06982421875,-0.95751953125,0.113525390625,0.060975611209869385,-0.3048780560493469,-2.7134146690368652,7.800000190734863,26.700000762939453,-14.399999618530273,39.01898956298828,0,
 1175599,0.06982421875,-0.95849609375,0.110595703125,-0.5792682766914368,-0.3658536672592163,-1.920731782913208,6.0,25.649999618530273,-15.0,39.01898956298828,0,
 1175609,0.072021484375,-0.962646484375,0.114501953125,-0.7317073345184326,-0.18292683362960815,-1.0365853309631348,6.300000190734863,25.5,-13.949999809265137,39.01898956298828,0,
 1175619,0.065673828125,-0.966552734375,0.11181640625,-0.9756097793579102,0.12195122241973877,-0.24390244483947754,7.949999809265137,26.399999618530273,-13.5,39.01898956298828,0,
 1175629,0.06787109375,-0.962158203125,0.10400390625,-0.9146341681480408,0.030487805604934692,0.3048780560493469,7.949999809265137,26.399999618530273,-13.5,38.92314529418945,0,
 1175639,0.06103515625,-0.9658203125,0.11376953125,-1.3109756708145142,0.27439025044441223,0.060975611209869385,6.75,24.899999618530273,-14.550000190734863,39.11483383178711,0,
 1175649,0.061279296875,-0.967041015625,0.1103515625,-1.3414634466171265,0.3048780560493469,0.792682945728302,7.199999809265137,26.100000381469727,-14.25,38.971065521240234,0,
 1175659,0.064208984375,-0.96923828125,0.108642578125,-0.7317073345184326,0.18292683362960815,0.09146341681480408,8.399999618530273,25.350000381469727,-16.799999237060547,39.35445022583008,0,
 1175669,0.058349609375,-0.97314453125,0.105224609375,0.0,-0.030487805604934692,-0.15243902802467346,5.849999904632568,25.799999237060547,-13.199999809265137,38.971065521240234,0,
 1175679,0.05810546875,-0.96875,0.107421875,0.5487805008888245,-0.21341463923454285,0.21341463923454285,7.349999904632568,25.049999237060547,-12.449999809265137,39.01898956298828,0,
 1175690,0.064208984375,-0.976318359375,0.1123046875,0.8536585569381714,-0.4878048896789551,0.09146341681480408,7.199999809265137,25.649999618530273,-14.25,39.30652618408203,0,
 1175700,0.06103515625,-0.974365234375,0.1103515625,0.4268292784690857,-0.27439025044441223,-0.12195122241973877,6.0,23.700000762939453,-14.25,39.30652618408203,0,
 1175710,0.060791015625,-0.96826171875,0.11181640625,1.0365853309631348,-0.09146341681480408,0.21341463923454285,8.399999618530273,25.649999618530273,-13.5,39.01898956298828,0,
 1175720,0.06005859375,-0.96435546875,0.11083984375,1.0365853309631348,-0.396341472864151,-0.27439025044441223,8.399999618530273,25.649999618530273,-13.5,39.01898956298828,0,
 1175730,0.06298828125,-0.967041015625,0.1083984375,1.7682926654815674,-0.5182926654815674,-0.4268292784690857,6.75,24.149999618530273,-13.800000190734863,39.2106819152832,0,
 1175740,0.063232421875,-0.957763671875,0.103271484375,2.1341464519500732,-0.6097561120986938,-0.9756097793579102,7.050000190734863,25.5,-13.949999809265137,39.11483383178711,0,
 1175750,0.06298828125,-0.95751953125,0.107666015625,2.4695122241973877,-0.7317073345184326,-1.4634146690368652,6.0,24.899999618530273,-15.0,39.01898956298828,0,
 1175760,0.0673828125,-0.95849609375,0.109375,2.896341562271118,-0.7621951103210449,-1.3109756708145142,6.0,24.899999618530273,-15.0,39.30652618408203,0,
 1175770,0.064453125,-0.9609375,0.115966796875,2.408536672592163,-0.6402438879013062,-1.5243902206420898,6.0,24.450000762939453,-15.75,38.92314529418945,0,
 1175780,0.06396484375,-0.9638671875,0.11865234375,1.7987805604934692,-0.4268292784690857,-1.7682926654815674,6.449999809265137,25.649999618530273,-15.0,39.162757873535156,0,
 1175790,0.061767578125,-0.953857421875,0.1103515625,1.1280487775802612,0.0,-2.195122003555298,5.699999809265137,24.149999618530273,-15.75,39.01898956298828,0,
 1175800,0.0673828125,-0.953857421875,0.121337890625,0.09146341681480408,0.12195122241973877,-2.2560975551605225,6.300000190734863,25.5,-14.699999809265137,39.162757873535156,0,
 1175810,0.071533203125,-0.953857421875,0.117431640625,-0.12195122241973877,0.12195122241973877,-2.408536672592163,6.300000190734863,25.5,-14.699999809265137,39.11483383178711,0,
 1175820,0.06396484375,-0.949462890625,0.1162109375,-0.6402438879013062,0.3353658616542816,-1.9817073345184326,7.349999904632568,24.299999237060547,-13.199999809265137,39.01898956298828,0,
 1175830,0.06982421875,-0.959716796875,0.116455078125,-1.5243902206420898,0.6707317233085632,-1.6463414430618286,5.699999809265137,25.350000381469727,-13.050000190734863,39.01898956298828,0,
 1175840,0.0712890625,-0.948486328125,0.112548828125,-1.8292683362960815,0.5792682766914368,-0.792682945728302,7.349999904632568,25.049999237060547,-13.949999809265137,39.01898956298828,0,
 1175850,0.07373046875,-0.95166015625,0.1181640625,-2.1341464519500732,0.9756097793579102,-0.3048780560493469,7.349999904632568,25.049999237060547,-13.949999809265137,39.162757873535156,0,
 1175860,0.070556640625,-0.95654296875,0.116455078125,-2.5,1.097561001777649,-0.09146341681480408,6.300000190734863,28.200000762939453,-16.649999618530273,38.971065521240234,0,
 1175870,0.072998046875,-0.95654296875,0.1171875,-2.408536672592163,0.9146341681480408,0.7621951103210449,5.849999904632568,25.799999237060547,-14.699999809265137,38.92314529418945,0,
 1175880,0.06640625,-0.96142578125,0.114013671875,-2.5304877758026123,1.1280487775802612,0.9146341681480408,6.449999809265137,24.149999618530273,-14.550000190734863,38.971065521240234,0,
 1175890,0.06640625,-0.967529296875,0.11376953125,-2.1341464519500732,1.097561001777649,1.097561001777649,6.449999809265137,24.149999618530273,-14.550000190734863,39.2106819152832,0,
 1175900,0.0673828125,-0.96435546875,0.112548828125,-1.6768293380737305,1.097561001777649,0.9146341681480408,6.300000190734863,24.75,-13.949999809265137,39.30652618408203,0,
 1175910,0.068359375,-0.97265625,0.114990234375,-1.402438998222351,0.9451219439506531,0.7621951103210449,5.699999809265137,25.649999618530273,-14.25,39.01898956298828,0,
 1175920,0.058349609375,-0.970458984375,0.113525390625,-1.1280487775802612,0.9146341681480408,0.792682945728302,6.75,25.350000381469727,-15.300000190734863,39.01898956298828,0,
 1175930,0.06591796875,-0.968994140625,0.11328125,-0.5792682766914368,0.5182926654815674,0.24390244483947754,6.449999809265137,24.149999618530273,-14.25,39.2106819152832,0,
 1175940,0.064208984375,-0.97607421875,0.115234375,-0.3658536672592163,0.5487805008888245,0.3658536672592163,6.449999809265137,24.149999618530273,-14.25,39.2106819152832,0,
 1175950,0.063720703125,-0.97314453125,0.11328125,0.09146341681480408,0.4573170840740204,0.030487805604934692,6.300000190734863,25.799999237060547,-13.199999809265137,39.01898956298828,0,
 1175960,0.06396484375,-0.97216796875,0.111083984375,-0.060975611209869385,0.6402438879013062,0.5792682766914368,5.400000095367432,25.049999237060547,-13.949999809265137,39.2106819152832,0,
 1175970,0.067626953125,-0.97021484375,0.11474609375,-0.5182926654815674,0.4573170840740204,0.4268292784690857,5.25,24.450000762939453,-15.300000190734863,39.01898956298828,0,
 1175980,0.06884765625,-0.963134765625,0.113525390625,-0.3658536672592163,0.4268292784690857,0.6707317233085632,5.25,24.450000762939453,-15.300000190734863,39.01898956298828,0,
 1175990,0.064453125,-0.963134765625,0.10791015625,-0.3658536672592163,0.3353658616542816,0.4573170840740204,8.850000381469727,26.700000762939453,-13.199999809265137,39.01898956298828,0,
 1176000,0.0595703125,-0.95849609375,0.109619140625,-0.5792682766914368,0.3048780560493469,1.1280487775802612,7.5,25.649999618530273,-14.550000190734863,39.11483383178711,0,
 1176010,0.067138671875,-0.9541015625,0.114501953125,0.09146341681480408,0.396341472864151,1.432926893234253,6.449999809265137,26.850000381469727,-12.75,38.971065521240234,0,
 1176020,0.062744140625,-0.9619140625,0.111572265625,0.15243902802467346,0.3658536672592163,1.8597561120986938,6.449999809265137,26.850000381469727,-12.75,39.11483383178711,0,
 1176030,0.062255859375,-0.9560546875,0.112060546875,-0.09146341681480408,0.27439025044441223,1.4634146690368652,7.050000190734863,24.75,-15.149999618530273,39.2106819152832,0,
 1176040,0.0693359375,-0.962158203125,0.116455078125,-0.18292683362960815,0.3048780560493469,0.9756097793579102,6.75,26.100000381469727,-14.25,39.01898956298828,0,
 1176050,0.05908203125,-0.964599609375,0.112548828125,-0.060975611209869385,0.4268292784690857,1.2195122241973877,5.849999904632568,25.049999237060547,-13.949999809265137,39.11483383178711,0,
 1176060,0.059814453125,-0.962158203125,0.107177734375,-0.12195122241973877,-0.060975611209869385,1.25,5.699999809265137,24.899999618530273,-14.25,39.30652618408203,0,
 1176070,0.065185546875,-0.973876953125,0.11083984375,-0.3658536672592163,0.24390244483947754,0.792682945728302,5.699999809265137,24.899999618530273,-14.25,38.971065521240234,0,
 1176080,0.060546875,-0.970458984375,0.1171875,-0.5792682766914368,0.4878048896789551,1.1280487775802612,6.75,24.450000762939453,-15.0,39.01898956298828,0,
 1176090,0.06591796875,-0.96826171875,0.121337890625,-0.8231707215309143,0.3048780560493469,1.0060975551605225,6.449999809265137,25.350000381469727,-13.800000190734863,39.11483383178711,0,
 1176100,0.060791015625,-0.96875,0.109619140625,-0.792682945728302,0.18292683362960815,0.8536585569381714,5.699999809265137,25.350000381469727,-13.800000190734863,39.2106819152832,0,
 1176110,0.0732421875,-0.96337890625,0.110595703125,-0.4878048896789551,-0.030487805604934692,1.432926893234253,5.699999809265137,25.350000381469727,-13.800000190734863,39.35445022583008,0,
 1176120,0.0751953125,-0.973876953125,0.109130859375,0.4268292784690857,-0.27439025044441223,4.45121955871582,6.599999904632568,25.5,-13.649999618530273,39.01898956298828,0,
 1176130,0.0732421875,-0.970703125,0.10791015625,0.4573170840740204,-0.21341463923454285,6.280488014221191,6.300000190734863,26.25,-13.199999809265137,39.30652618408203,0,
 1176140,0.07568359375,-0.977783203125,0.10693359375,0.3353658616542816,-0.27439025044441223,8.231707572937012,7.800000190734863,25.799999237060547,-14.399999618530273,39.01898956298828,0,
 1176150,0.07080078125,-0.979248046875,0.11083984375,0.6097561120986938,-0.9146341681480408,10.97560977935791,7.050000190734863,25.799999237060547,-14.399999618530273,39.11483383178711,0,
 1176160,0.07861328125,-0.980712890625,0.10595703125,1.0365853309631348,-0.9756097793579102,14.664634704589844,6.75,27.600000381469727,-13.800000190734863,39.162757873535156,0,
 1176170,0.07763671875,-0.986328125,0.11083984375,1.0365853309631348,-1.3414634466171265,17.987804412841797,8.850000381469727,25.799999237060547,-18.149999618530273,39.450294494628906,0,
 1176180,0.059814453125,-1.00927734375,0.1298828125,-1.432926893234253,-2.1646342277526855,19.939023971557617,6.300000190734863,25.5,-14.399999618530273,39.35445022583008,0,
 1176190,0.056884765625,-1.020263671875,0.135498046875,-4.72560977935791,-1.7682926654815674,21.981708526611328,9.149999618530273,23.700000762939453,-15.300000190734863,39.2106819152832,0,
 1176200,0.038330078125,-1.006103515625,0.136962890625,-7.103658676147461,-0.9146341681480408,23.140243530273438,9.149999618530273,23.700000762939453,-15.300000190734863,39.01898956298828,0,
 1176210,0.01953125,-1.012939453125,0.128662109375,-8.719511985778809,0.5487805008888245,24.14634132385254,8.100000381469727,26.25,-15.149999618530273,38.971065521240234,0,
 1176220,0.0205078125,-1.01025390625,0.126708984375,-9.146341323852539,1.0365853309631348,25.030488967895508,7.800000190734863,26.700000762939453,-13.949999809265137,39.2106819152832,0,
 1176230,0.019775390625,-1.026123046875,0.126708984375,-8.90243911743164,0.8536585569381714,25.39634132385254,9.300000190734863,25.799999237060547,-12.899999618530273,39.2106819152832,0,
 1176240,0.030029296875,-1.01904296875,0.12109375,-8.963415145874023,0.6707317233085632,25.64024543762207,9.300000190734863,25.799999237060547,-12.899999618530273,39.2106819152832,0,
 1176250,0.01611328125,-1.031494140625,0.111328125,-9.786585807800293,0.6402438879013062,26.0060977935791,8.699999809265137,25.649999618530273,-13.5,38.92314529418945,0,
 1176260,0.01025390625,-1.00146484375,0.109375,-8.841464042663574,0.8841463327407837,26.03658676147461,8.699999809265137,24.450000762939453,-12.300000190734863,38.82729721069336,0,
 1176270,0.004150390625,-1.002685546875,0.097412109375,-7.77439022064209,1.25,25.85365867614746,8.699999809265137,25.649999618530273,-16.799999237060547,38.971065521240234,0,
 1176280,0.001220703125,-0.990234375,0.0869140625,-6.737804889678955,1.0670732259750366,25.2439022064209,9.449999809265137,25.350000381469727,-15.0,39.2106819152832,0,
 1176290,0.0126953125,-0.978759765625,0.09814453125,-5.853658676147461,0.3353658616542816,24.481708526611328,9.449999809265137,25.350000381469727,-15.0,39.11483383178711,0,
 1176300,0.00732421875,-0.986083984375,0.096923828125,-5.243902683258057,-0.21341463923454285,24.329269409179688,8.550000190734863,25.799999237060547,-13.199999809265137,39.01898956298828,0,
 1176310,-0.00244140625,-0.99072265625,0.093505859375,-7.103658676147461,-0.3658536672592163,23.44512176513672,9.899999618530273,25.649999618530273,-13.050000190734863,39.01898956298828,0,
 1176320,-0.014892578125,-0.9697265625,0.108154296875,-7.743902683258057,-0.7317073345184326,22.98780632019043,10.199999809265137,26.100000381469727,-14.25,39.162757873535156,0,
 1176330,-0.013427734375,-0.953125,0.10986328125,-7.286585330963135,-0.21341463923454285,23.170732498168945,10.199999809265137,26.100000381469727,-14.25,39.162757873535156,0,
 1176340,-0.011962890625,-0.9482421875,0.111083984375,-7.439024448394775,0.7317073345184326,22.80487823486328,12.0,25.049999237060547,-13.649999618530273,39.11483383178711,0,
 1176350,-0.017578125,-0.940673828125,0.109130859375,-7.408536911010742,1.737804889678955,23.262195587158203,10.649999618530273,27.299999237060547,-14.25,39.01898956298828,0,
 1176360,-0.016845703125,-0.93603515625,0.103515625,-7.012195110321045,2.865853786468506,23.5060977935791,10.949999809265137,25.350000381469727,-13.800000190734863,38.82729721069336,0,
 1176370,-0.017578125,-0.936279296875,0.100830078125,-6.463414669036865,3.628048896789551,23.414634704589844,10.949999809265137,25.350000381469727,-13.800000190734863,39.2106819152832,0,
 1176380,-0.012451171875,-0.93798828125,0.095947265625,-6.493902683258057,3.3841464519500732,22.68292808532715,10.649999618530273,25.350000381469727,-15.0,39.162757873535156,0,
 1176390,-0.019775390625,-0.963623046875,0.079345703125,-6.097560882568359,2.6524391174316406,22.2560977935791,10.800000190734863,25.5,-13.949999809265137,39.30652618408203,0,
 1176400,-0.016845703125,-0.943603515625,0.08984375,-4.542683124542236,0.7317073345184326,21.829269409179688,12.149999618530273,24.149999618530273,-12.0,39.30652618408203,0,
 1176410,-0.060302734375,-0.981201171875,0.059814453125,-4.146341323852539,0.09146341681480408,21.341463088989258,11.550000190734863,25.799999237060547,-13.949999809265137,39.11483383178711,0,
 1176420,-0.054931640625,-0.935302734375,0.072509765625,-5.792683124542236,1.0060975551605225,21.03658676147461,11.550000190734863,25.799999237060547,-13.949999809265137,38.971065521240234,0,
 1176430,-0.06494140625,-0.931396484375,0.0693359375,-3.9939024448394775,2.2560975551605225,20.091463088989258,11.550000190734863,24.75,-12.449999809265137,39.450294494628906,0,
 1176440,-0.062744140625,-0.9375,0.067138671875,-1.1280487775802612,2.8353660106658936,18.9939022064209,13.5,25.049999237060547,-11.699999809265137,39.2106819152832,0,
 1176450,-0.052001953125,-0.96142578125,0.077880859375,0.6402438879013062,2.1646342277526855,17.713415145874023,13.350000381469727,25.350000381469727,-14.25,39.11483383178711,0,
 1176461,-0.059814453125,-0.978759765625,0.06298828125,0.5487805008888245,0.7317073345184326,16.219512939453125,13.350000381469727,25.350000381469727,-14.25,39.11483383178711,0,
 1176471,-0.060791015625,-0.968994140625,0.0673828125,0.3353658616542816,-0.3658536672592163,15.213415145874023,12.0,24.75,-12.149999618530273,38.971065521240234,0,
 1176481,-0.068603515625,-0.970947265625,0.07177734375,1.1890244483947754,-0.9451219439506531,14.57317066192627,13.800000190734863,24.299999237060547,-15.899999618530273,39.30652618408203,0,
 1176491,-0.07373046875,-0.971435546875,0.06884765625,2.408536672592163,-1.6768293380737305,13.689024925231934,12.75,25.799999237060547,-11.699999809265137,39.2106819152832,0,
 1176501,-0.07275390625,-0.964599609375,0.08349609375,2.896341562271118,-2.195122003555298,12.560976028442383,14.100000381469727,26.100000381469727,-14.550000190734863,39.2106819152832,0,
 1176511,-0.080322265625,-0.95166015625,0.081787109375,3.170731782913208,-2.77439022064209,11.310976028442383,14.100000381469727,26.100000381469727,-14.550000190734863,38.82729721069336,0,
 1176521,-0.07958984375,-0.94873046875,0.0751953125,3.628048896789551,-2.1646342277526855,10.54878044128418,12.149999618530273,25.649999618530273,-13.050000190734863,39.01898956298828,0,
 1176531,-0.083740234375,-0.95068359375,0.076171875,4.939024448394775,-2.4695122241973877,9.237805366516113,14.399999618530273,25.350000381469727,-13.5,38.82729721069336,0,
 1176541,-0.07177734375,-0.949951171875,0.08935546875,5.70121955871582,-2.77439022064209,7.743902683258057,13.5,26.25,-12.149999618530273,39.2106819152832,0,
 1176551,-0.08447265625,-0.9658203125,0.09423828125,6.920732021331787,-3.567073345184326,6.432927131652832,13.5,26.25,-12.149999618530273,39.2106819152832,0,
 1176561,-0.087646484375,-0.969482421875,0.099609375,7.286585330963135,-3.9024391174316406,4.756097793579102,13.350000381469727,26.100000381469727,-13.5,39.162757873535156,0,
 1176571,-0.19091796875,-1.018310546875,0.013427734375,7.22560977935791,-2.7439024448394775,-0.396341472864151,12.600000381469727,24.450000762939453,-13.5,38.971065521240234,0,
 1176581,-0.1083984375,-0.934326171875,0.087890625,7.621951580047607,-4.29878044128418,-2.5609755516052246,13.800000190734863,24.75,-16.649999618530273,39.2106819152832,0,
 1176591,-0.112060546875,-0.945556640625,0.095947265625,7.134146690368652,-5.0,-4.847560882568359,13.800000190734863,24.75,-16.649999618530273,39.11483383178711,0,
 1176601,-0.072509765625,-0.94482421875,0.103515625,6.79878044128418,-5.945122241973877,-5.792683124542236,13.5,25.5,-13.649999618530273,38.77937698364258,0,
 1176611,-0.075439453125,-0.950439453125,0.09521484375,6.829268455505371,-6.219512462615967,-7.317073345184326,13.050000190734863,25.5,-12.899999618530273,39.11483383178711,0,
 1176621,-0.07421875,-0.942626953125,0.095703125,5.853658676147461,-5.243902683258057,-7.591463565826416,13.649999618530273,25.649999618530273,-13.050000190734863,39.30652618408203,0,
 1176631,-0.068603515625,-0.94189453125,0.1044921875,6.52439022064209,-4.054878234863281,-8.140244483947754,15.149999618530273,25.649999618530273,-15.0,39.30652618408203,0,
 1176641,-0.066650390625,-0.946533203125,0.119140625,7.012195110321045,-3.7804877758026123,-7.530488014221191,15.149999618530273,25.649999618530273,-15.0,39.30652618408203,0,
 1176651,-0.06298828125,-0.969970703125,0.136962890625,5.884146690368652,-3.353658676147461,-7.9268293380737305,13.800000190734863,25.5,-13.649999618530273,38.92314529418945,0,
 1176661,-0.0498046875,-0.954345703125,0.137451171875,4.969512462615967,-2.896341562271118,-7.77439022064209,13.5,24.75,-14.699999809265137,39.11483383178711,0,
 1176671,-0.044677734375,-0.930419921875,0.1337890625,3.4146342277526855,-1.6158536672592163,-7.042683124542236,14.25,24.299999237060547,-12.449999809265137,39.11483383178711,0,
 1176681,-0.054931640625,-0.92431640625,0.133544921875,1.3414634466171265,0.0,-5.487804889678955,14.25,24.299999237060547,-12.449999809265137,38.971065521240234,0,
 1176691,-0.046142578125,-0.937255859375,0.12646484375,-0.7012194991111755,1.5548781156539917,-4.603658676147461,12.300000190734863,25.049999237060547,-14.399999618530273,39.2106819152832,0,
 1176701,-0.034912109375,-0.915771484375,0.12060546875,0.060975611209869385,2.5609755516052246,-2.7134146690368652,11.550000190734863,25.5,-14.399999618530273,38.92314529418945,0,
 1176711,-0.039306640625,-0.912109375,0.116943359375,1.585365891456604,3.3841464519500732,-1.8292683362960815,13.5,25.799999237060547,-14.699999809265137,39.01898956298828,0,
 1176721,-0.029296875,-0.932373046875,0.1064453125,3.353658676147461,3.841463565826416,0.0,13.5,25.799999237060547,-14.699999809265137,39.11483383178711,0,
 1176731,-0.029541015625,-0.953857421875,0.106201171875,3.0182926654815674,3.9939024448394775,1.585365891456604,13.350000381469727,23.700000762939453,-12.300000190734863,39.2106819152832,0,
 1176741,-0.048095703125,-1.007080078125,0.114013671875,2.682926893234253,3.5060975551605225,3.75,12.149999618530273,24.899999618530273,-15.0,39.01898956298828,0,
 1176751,-0.046142578125,-1.002197265625,0.11767578125,-0.15243902802467346,2.896341562271118,4.0853657722473145,13.350000381469727,26.100000381469727,-13.800000190734863,38.971065521240234,0,
 1176761,-0.04541015625,-0.98193359375,0.11865234375,-0.4268292784690857,2.7134146690368652,4.390244007110596,13.350000381469727,24.450000762939453,-13.5,38.92314529418945,0,
 1176771,-0.024169921875,-0.9853515625,0.13427734375,1.1890244483947754,1.9817073345184326,2.804877996444702,13.350000381469727,24.450000762939453,-13.5,39.2106819152832,0,
 1176781,-0.014404296875,-1.017333984375,0.14013671875,3.0182926654815674,1.3719512224197388,1.5548781156539917,10.800000190734863,26.25,-15.899999618530273,39.11483383178711,0,
 1176791,0.011474609375,-1.050048828125,0.15576171875,2.4695122241973877,-0.5792682766914368,-0.3048780560493469,13.649999618530273,24.899999618530273,-14.25,39.35445022583008,0,
 1176801,0.035400390625,-1.040771484375,0.167724609375,-0.060975611209869385,-3.47560977935791,-2.1646342277526855,12.300000190734863,25.049999237060547,-13.199999809265137,38.971065521240234,0,
 1176811,0.052001953125,-1.002685546875,0.188232421875,-2.9268293380737305,-6.829268455505371,-3.5975611209869385,12.300000190734863,25.049999237060547,-13.199999809265137,39.2106819152832,0,
 1176821,0.025634765625,-0.955322265625,0.208740234375,-4.146341323852539,-9.45121955871582,-4.29878044128418,14.25,25.049999237060547,-13.649999618530273,39.01898956298828,0,
 1176831,-0.020263671875,-0.9375,0.1884765625,-3.841463565826416,-9.664634704589844,-3.3841464519500732,12.75,24.299999237060547,-14.399999618530273,38.971065521240234,0,
 1176841,-0.0869140625,-0.9111328125,0.156005859375,-2.9268293380737305,-6.280488014221191,-3.1097562313079834,12.300000190734863,25.049999237060547,-13.199999809265137,39.2106819152832,0,
 1176851,-0.1591796875,-0.869140625,0.110107421875,-2.77439022064209,0.7317073345184326,-1.8292683362960815,11.699999809265137,24.450000762939453,-13.5,39.162757873535156,0,
 1176861,-0.222412109375,-0.811279296875,0.0712890625,-3.6890244483947754,11.09756088256836,1.1280487775802612,11.699999809265137,24.450000762939453,-13.5,38.971065521240234,0,
 1176871,-0.26708984375,-0.7666015625,0.05224609375,-6.371951580047607,22.164634704589844,8.231707572937012,12.0,24.75,-12.449999809265137,39.01898956298828,0,
 1176881,-0.210205078125,-0.802490234375,0.036376953125,-10.396341323852539,31.371952056884766,19.359756469726562,12.300000190734863,23.850000381469727,-14.699999809265137,39.11483383178711,0,
 1176891,0.138916015625,-1.005126953125,0.06396484375,-19.05487823486328,34.17683029174805,27.957317352294922,12.0,23.850000381469727,-14.399999618530273,39.11483383178711,0,
 1176901,0.21142578125,-0.76806640625,0.1435546875,-39.45122146606445,31.55487823486328,27.34756088256836,12.0,23.850000381469727,-14.399999618530273,38.971065521240234,0,
 1176911,0.0986328125,-0.5205078125,0.1708984375,-45.335365295410156,28.292682647705078,38.719512939453125,13.649999618530273,24.899999618530273,-14.25,39.11483383178711,0,
 1176921,0.010986328125,-0.389404296875,0.060546875,-35.975608825683594,34.35975646972656,52.04268264770508,12.75,25.799999237060547,-12.449999809265137,39.11483383178711,0,
 1176931,0.246337890625,-0.469970703125,0.1025390625,-15.335366249084473,47.469512939453125,63.47561264038086,14.399999618530273,26.100000381469727,-14.25,39.2106819152832,0,
 1176941,-0.001953125,-0.68798828125,-0.10107421875,-0.24390244483947754,42.378047943115234,73.84146881103516,14.399999618530273,26.100000381469727,-14.25,39.01898956298828,0,
 1176951,-0.038818359375,-0.93701171875,-0.248291015625,1.8292683362960815,39.085365295410156,72.28659057617188,15.0,25.5,-13.199999809265137,38.92314529418945,0,
 1176961,-0.0322265625,-0.95849609375,-0.180908203125,-5.8231706619262695,24.7560977935791,57.256099700927734,15.149999618530273,28.049999237060547,-13.5,38.971065521240234,0,
 1176971,-0.088623046875,-1.180419921875,-0.07080078125,-10.97560977935791,1.737804889678955,30.365854263305664,15.600000381469727,26.850000381469727,-13.800000190734863,39.450294494628906,0,
 1176981,-0.1318359375,-1.0595703125,0.0986328125,-15.54878044128418,-21.79878044128418,1.7073171138763428,15.899999618530273,27.600000381469727,-13.050000190734863,39.01898956298828,0,
 1176991,-0.36181640625,-1.429931640625,-0.026123046875,-4.02439022064209,-28.871952056884766,-22.2560977935791,15.899999618530273,27.600000381469727,-13.050000190734863,39.2106819152832,0,
 1177001,-0.411376953125,-1.407470703125,-0.13623046875,0.6707317233085632,-16.768293380737305,-45.7621955871582,14.399999618530273,27.299999237060547,-15.300000190734863,38.92314529418945,0,
 1177011,-0.281982421875,0.024169921875,-1.6865234375,80.18292999267578,0.09146341681480408,-134.84756469726562,14.100000381469727,27.600000381469727,-13.050000190734863,38.63560485839844,0,
 1177021,-0.28125,-0.43701171875,0.716064453125,-89.90853881835938,29.908536911010742,-10.304878234863281,12.149999618530273,27.600000381469727,-13.5,39.01898956298828,0,
 1177031,2.959228515625,0.28125,0.0419921875,40.182926177978516,9.207317352294922,-16.859756469726562,12.149999618530273,27.600000381469727,-13.5,38.971065521240234,0,
 1177041,-0.75439453125,-1.203857421875,-0.2890625,-26.280488967895508,6.646341800689697,37.13414764404297,13.350000381469727,28.799999237060547,-12.0,39.11483383178711,0,
 1177051,0.375244140625,-1.30615234375,0.28466796875,-16.280488967895508,16.463415145874023,22.13414764404297,11.550000190734863,27.450000762939453,-13.649999618530273,39.2106819152832,0,
 1177061,-0.42919921875,-0.985107421875,-0.020263671875,0.6707317233085632,17.164634704589844,19.939023971557617,13.350000381469727,28.049999237060547,-13.5,39.01898956298828,0,
 1177071,0.033447265625,-1.263427734375,0.13818359375,-14.939024925231934,-1.5243902206420898,26.40243911743164,12.75,27.899999618530273,-13.649999618530273,39.30652618408203,0,
 1177081,0.140380859375,-0.9140625,0.013671875,1.4939024448394775,-7.9268293380737305,24.08536720275879,14.100000381469727,26.850000381469727,-11.550000190734863,39.11483383178711,0,
 1177091,-0.338623046875,-1.02099609375,-0.01025390625,4.512195110321045,-4.542683124542236,28.658536911010742,14.850000381469727,29.700000762939453,-15.300000190734863,38.971065521240234,0,
 1177101,-0.379638671875,-0.96044921875,-0.07421875,3.4146342277526855,-2.6219513416290283,31.18902587890625,14.100000381469727,26.850000381469727,-13.050000190734863,39.01898956298828,0,
 1177111,-0.247802734375,-0.865478515625,0.01806640625,4.481707572937012,-3.7804877758026123,27.80487823486328,13.800000190734863,27.899999618530273,-10.649999618530273,38.971065521240234,0,
 1177121,-0.201904296875,-0.932373046875,0.05712890625,3.0182926654815674,-5.97560977935791,18.871952056884766,13.800000190734863,27.899999618530273,-10.649999618530273,39.11483383178711,0,
 1177131,-0.105712890625,-0.904541015625,0.06591796875,-1.920731782913208,-9.72560977935791,10.060976028442383,13.5,26.700000762939453,-12.899999618530273,39.35445022583008,0,
 1177141,-0.1083984375,-0.908935546875,0.056884765625,-6.158536911010742,-7.408536911010742,0.4878048896789551,13.649999618530273,26.850000381469727,-12.75,38.82729721069336,0,
 1177151,-0.31494140625,-0.877685546875,0.030517578125,-1.9817073345184326,-3.079268455505371,-7.9268293380737305,14.850000381469727,26.850000381469727,-13.050000190734863,39.01898956298828,0,
 1177161,-0.172607421875,-0.720703125,0.104248046875,-3.0182926654815674,-2.5304877758026123,-15.609756469726562,14.850000381469727,26.850000381469727,-13.050000190734863,38.92314529418945,0,
 1177171,-0.089111328125,-0.7744140625,0.0908203125,-8.140244483947754,-0.3353658616542816,-19.359756469726562,13.800000190734863,27.450000762939453,-12.899999618530273,39.01898956298828,0,
 1177181,-0.05615234375,-0.7568359375,0.11669921875,-10.27439022064209,3.0182926654815674,-20.731708526611328,14.25,28.200000762939453,-13.949999809265137,38.971065521240234,0,
 1177191,-0.134521484375,-0.937744140625,0.049560546875,-10.15243911743164,2.22560977935791,-22.10365867614746,13.5,28.649999618530273,-14.399999618530273,38.971065521240234,0,
 1177201,-0.134765625,-0.94384765625,0.026123046875,-13.689024925231934,4.512195110321045,-25.030488967895508,14.399999618530273,28.049999237060547,-12.300000190734863,38.92314529418945,0,
 1177211,-0.14306640625,-0.932861328125,0.02783203125,-12.560976028442383,7.134146690368652,-26.859756469726562,14.399999618530273,28.049999237060547,-12.300000190734863,39.01898956298828,0,
 1177221,-0.02880859375,-0.923095703125,0.05517578125,-13.32317066192627,5.762195110321045,-26.707317352294922,13.800000190734863,27.899999618530273,-13.949999809265137,39.162757873535156,0,
 1177231,-0.07861328125,-0.996826171875,0.032470703125,-11.920731544494629,3.7195122241973877,-25.15243911743164,13.5,27.0,-10.649999618530273,39.01898956298828,0,
 1177241,-0.13671875,-1.01953125,-0.014892578125,-9.29878044128418,1.737804889678955,-24.115854263305664,13.050000190734863,27.899999618530273,-13.649999618530273,38.92314529418945,0,
 1177251,-0.110107421875,-1.018798828125,-0.02001953125,-5.97560977935791,0.18292683362960815,-25.091463088989258,13.050000190734863,27.899999618530273,-13.649999618530273,39.11483383178711,0,
 1177261,-0.052734375,-0.997802734375,0.024169921875,-3.2317073345184326,-1.737804889678955,-24.93902587890625,14.699999809265137,27.899999618530273,-12.899999618530273,39.2106819152832,0,
 1177272,-0.08642578125,-1.033935546875,0.041259765625,0.27439025044441223,-4.146341323852539,-22.439023971557617,12.75,27.0,-10.949999809265137,39.2106819152832,0,
 1177282,-0.1357421875,-1.040771484375,0.031494140625,3.3841464519500732,-6.158536911010742,-19.329269409179688,12.899999618530273,25.350000381469727,-13.050000190734863,39.11483383178711,0,
 1177292,-0.11865234375,-1.0595703125,0.031494140625,6.8597564697265625,-6.067073345184326,-15.487805366516113,12.899999618530273,25.350000381469727,-13.050000190734863,38.971065521240234,0,
 1177302,-0.09765625,-1.044921875,0.04638671875,7.347561359405518,-4.72560977935791,-13.231707572937012,12.600000381469727,28.049999237060547,-14.25,39.162757873535156,0,
 1177312,-0.07421875,-1.01904296875,0.06494140625,5.70121955871582,-3.9939024448394775,-10.030488014221191,11.25,27.0,-13.649999618530273,39.30652618408203,0,
 1177322,-0.074951171875,-1.026611328125,0.063720703125,4.1768293380737305,-2.5609755516052246,-5.0,11.550000190734863,29.399999618530273,-12.449999809265137,39.2106819152832,0,
 1177332,-0.091796875,-1.029296875,0.069091796875,2.804877996444702,-0.8231707215309143,-1.0670732259750366,12.0,27.0,-12.149999618530273,39.01898956298828,0,
 1177342,-0.056640625,-0.9677734375,0.0576171875,0.3353658616542816,-0.27439025044441223,2.0731706619262695,12.0,27.0,-12.149999618530273,38.92314529418945,0,
 1177352,-0.06982421875,-0.966064453125,0.0556640625,-0.5487805008888245,-0.396341472864151,3.8719513416290283,11.25,28.200000762939453,-12.899999618530273,39.2106819152832,0,
 1177362,-0.078369140625,-0.97216796875,0.037353515625,-0.6097561120986938,-0.030487805604934692,3.9634146690368652,11.699999809265137,27.600000381469727,-13.050000190734863,38.971065521240234,0,
 1177372,-0.075927734375,-0.94091796875,0.03466796875,-0.4268292784690857,0.21341463923454285,3.353658676147461,11.25,27.899999618530273,-12.149999618530273,39.162757873535156,0,
 1177382,-0.0947265625,-0.960205078125,0.034912109375,-0.21341463923454285,0.030487805604934692,2.5,11.25,27.899999618530273,-12.149999618530273,39.162757873535156,0,
 1177392,-0.101318359375,-0.9677734375,0.049560546875,-0.396341472864151,0.0,-0.030487805604934692,13.800000190734863,27.450000762939453,-12.449999809265137,38.92314529418945,0,
 1177402,-0.09716796875,-0.90966796875,0.052001953125,-1.2195122241973877,-0.3658536672592163,-2.865853786468506,11.699999809265137,27.299999237060547,-15.0,39.2106819152832,0,
 1177412,-0.10546875,-0.94189453125,0.064453125,-1.8597561120986938,-0.3048780560493469,-5.487804889678955,11.550000190734863,27.450000762939453,-14.399999618530273,39.162757873535156,0,
 1177422,-0.123291015625,-0.97314453125,0.059814453125,-3.2926828861236572,0.3048780560493469,-8.932927131652832,11.550000190734863,27.450000762939453,-14.399999618530273,39.01898956298828,0,
 1177432,-0.10302734375,-0.937255859375,0.052978515625,-5.243902683258057,0.4878048896789551,-12.256097793579102,13.050000190734863,28.200000762939453,-11.699999809265137,39.35445022583008,0,
 1177442,-0.093017578125,-0.94775390625,0.060791015625,-6.493902683258057,0.4573170840740204,-16.189023971557617,12.600000381469727,27.600000381469727,-12.0,38.971065521240234,0,
 1177452,-0.104736328125,-0.966552734375,0.06005859375,-9.115854263305664,1.097561001777649,-19.969512939453125,11.25,27.0,-13.199999809265137,39.11483383178711,0,
 1177462,-0.10791015625,-0.945556640625,0.050048828125,-9.664634704589844,1.6158536672592163,-23.414634704589844,12.0,27.0,-11.699999809265137,39.35445022583008,0,
 1177472,-0.091552734375,-0.960205078125,0.03857421875,-12.256097793579102,2.5609755516052246,-25.731708526611328,12.0,27.0,-11.699999809265137,39.01898956298828,0,
 1177482,-0.0693359375,-0.970703125,0.025634765625,-14.512195587158203,5.365853786468506,-27.865854263305664,10.199999809265137,27.600000381469727,-12.300000190734863,39.162757873535156,0,
 1177492,-0.047119140625,-0.931396484375,0.03173828125,-14.146341323852539,4.908536911010742,-26.25,9.600000381469727,27.450000762939453,-13.649999618530273,39.162757873535156,0,
 1177502,-0.04541015625,-0.94921875,0.033203125,-13.04878044128418,3.9634146690368652,-25.48780632019043,10.949999809265137,26.100000381469727,-13.5,39.2106819152832,0,
 1177512,-0.02685546875,-0.992431640625,0.026611328125,-11.79878044128418,2.8353660106658936,-26.158536911010742,10.949999809265137,26.100000381469727,-13.5,39.162757873535156,0,
 1177522,-0.0302734375,-1.015869140625,0.01416015625,-11.95121955871582,1.9512195587158203,-26.89024543762207,9.449999809265137,26.399999618530273,-11.25,39.35445022583008,0,
 1177532,-0.03857421875,-0.99169921875,0.009765625,-10.579268455505371,1.3109756708145142,-26.09756088256836,11.25,25.5,-12.149999618530273,38.82729721069336,0,
 1177542,-0.040771484375,-0.9970703125,0.007080078125,-9.02439022064209,1.8597561120986938,-23.75,11.550000190734863,24.75,-10.649999618530273,39.2106819152832,0,
 1177552,-0.02587890625,-0.994384765625,0.01123046875,-8.506097793579102,1.9512195587158203,-20.731708526611328,10.050000190734863,27.899999618530273,-10.949999809265137,39.30652618408203,0,
 1177562,-0.01416015625,-0.99658203125,0.007568359375,-7.743902683258057,1.3109756708145142,-16.280488967895508,9.149999618530273,27.600000381469727,-11.25,39.01898956298828,0,
 1177572,-0.002197265625,-0.978515625,0.0087890625,-5.792683124542236,1.0060975551605225,-12.012195587158203,8.850000381469727,26.25,-10.199999809265137,39.162757873535156,0,
 1177582,0.0,-0.975341796875,0.00439453125,-4.5731706619262695,0.5182926654815674,-9.359756469726562,8.550000190734863,25.049999237060547,-11.399999618530273,38.971065521240234,0,
 1177592,-0.026611328125,-0.99560546875,-0.025390625,-3.262195110321045,-0.030487805604934692,-7.987804889678955,9.899999618530273,28.049999237060547,-10.800000190734863,39.2106819152832,0,
 1177602,-0.015380859375,-0.97509765625,-0.0166015625,-0.3353658616542816,-0.4268292784690857,-8.231707572937012,9.899999618530273,28.049999237060547,-10.800000190734863,39.2106819152832,0,
 1177612,-0.0126953125,-0.97509765625,-0.011474609375,2.4695122241973877,-0.9756097793579102,-10.12195110321045,9.899999618530273,26.100000381469727,-11.25,39.01898956298828,0,
 1177622,-0.0302734375,-0.977783203125,0.001708984375,4.878048896789551,-1.432926893234253,-11.981707572937012,9.149999618530273,25.649999618530273,-12.0,38.971065521240234,0,
 1177632,-0.02099609375,-0.977294921875,-0.004150390625,6.036585330963135,-1.5548781156539917,-13.079268455505371,9.449999809265137,26.100000381469727,-12.0,38.92314529418945,0,
 1177642,-0.010009765625,-0.937744140625,-0.000732421875,8.445121765136719,-1.1585365533828735,-12.012195587158203,9.449999809265137,26.100000381469727,-12.0,39.11483383178711,0,
 1177652,0.012939453125,-0.92822265625,0.011474609375,9.207317352294922,-1.3719512224197388,-9.29878044128418,7.800000190734863,26.700000762939453,-10.649999618530273,39.162757873535156,0,
 1177662,0.010009765625,-0.935546875,0.02734375,9.969511985778809,-1.8292683362960815,-6.189024448394775,9.149999618530273,25.649999618530273,-11.550000190734863,39.2106819152832,0,
 1177672,0.0166015625,-0.9541015625,0.010498046875,11.219511985778809,-2.317073106765747,-4.02439022064209,8.399999618530273,26.100000381469727,-11.25,39.01898956298828,0,
 1177682,-0.0068359375,-0.946533203125,0.011962890625,10.518293380737305,-1.6768293380737305,-3.4146342277526855,10.5,24.299999237060547,-12.899999618530273,38.82729721069336,0,
 1177692,0.00390625,-0.955078125,0.01806640625,11.09756088256836,-1.25,-2.865853786468506,10.5,24.299999237060547,-12.899999618530273,39.2106819152832,0,
 1177702,0.00341796875,-0.991455078125,0.024658203125,11.432927131652832,-1.402438998222351,-3.262195110321045,8.399999618530273,25.350000381469727,-12.0,39.2106819152832,0,
 1177712,-0.005126953125,-0.975830078125,0.012451171875,10.518293380737305,-1.0365853309631348,-4.1768293380737305,9.449999809265137,26.850000381469727,-13.050000190734863,39.162757873535156,0,
 1177722,-0.00341796875,-0.9619140625,0.022705078125,10.518293380737305,0.09146341681480408,-5.9146342277526855,8.850000381469727,25.799999237060547,-12.449999809265137,39.2106819152832,0,
 1177732,0.00390625,-0.98291015625,0.025146484375,11.920731544494629,0.18292683362960815,-7.134146690368652,8.850000381469727,25.799999237060547,-12.449999809265137,38.92314529418945,0,
 1177742,0.00634765625,-0.974609375,0.0234375,12.560976028442383,-0.396341472864151,-8.75,9.149999618530273,26.100000381469727,-12.75,39.01898956298828,0,
 1177752,0.00634765625,-0.98046875,0.04833984375,13.292683601379395,-1.402438998222351,-10.365854263305664,7.199999809265137,25.350000381469727,-12.0,39.30652618408203,0,
 1177762,0.0087890625,-0.974609375,0.05810546875,14.84756088256836,-3.079268455505371,-11.707317352294922,8.399999618530273,26.399999618530273,-11.25,38.971065521240234,0,
 1177772,-0.010986328125,-1.008056640625,0.046142578125,13.689024925231934,-4.02439022064209,-13.32317066192627,8.399999618530273,26.399999618530273,-11.25,39.2106819152832,0,
 1177782,-0.018798828125,-1.00146484375,0.0703125,11.189024925231934,-2.865853786468506,-14.085366249084473,8.850000381469727,26.700000762939453,-12.149999618530273,38.971065521240234,0,
 1177792,-0.00927734375,-1.006591796875,0.07861328125,8.567073822021484,-1.737804889678955,-13.963415145874023,8.100000381469727,26.700000762939453,-13.199999809265137,39.01898956298828,0,
 1177802,0.011962890625,-1.00244140625,0.07177734375,5.9146342277526855,-1.097561001777649,-12.896341323852539,7.949999809265137,26.399999618530273,-13.050000190734863,39.2106819152832,0,
 1177812,0.009521484375,-1.007568359375,0.072021484375,4.29878044128418,-0.9451219439506531,-12.22560977935791,6.449999809265137,24.149999618530273,-12.75,39.2106819152832,0,
 1177822,0.00341796875,-1.031982421875,0.073974609375,2.77439022064209,-1.1890244483947754,-12.469512939453125,6.449999809265137,24.149999618530273,-12.75,39.2106819152832,0,
 1177832,-0.00048828125,-1.042724609375,0.067626953125,1.2195122241973877,-1.6158536672592163,-12.835366249084473,7.949999809265137,26.100000381469727,-12.0,38.77937698364258,0,
 1177842,-0.009521484375,-1.066162109375,0.0654296875,-0.7317073345184326,-1.2195122241973877,-12.865854263305664,7.5,26.850000381469727,-13.050000190734863,39.2106819152832,0,
 1177852,-0.0234375,-1.08642578125,0.09716796875,-2.22560977935791,-1.0365853309631348,-14.390244483947754,7.050000190734863,26.700000762939453,-12.149999618530273,39.01898956298828,0,
 1177862,-0.071533203125,-1.1572265625,0.10693359375,-3.6890244483947754,-0.8231707215309143,-17.65243911743164,7.050000190734863,26.700000762939453,-12.149999618530273,39.2106819152832,0,
 1177872,-0.14794921875,-1.197021484375,0.12451171875,-7.439024448394775,1.2804877758026123,-24.390243530273438,6.75,26.850000381469727,-11.550000190734863,39.01898956298828,0,
 1177882,-0.288818359375,-1.103271484375,0.14013671875,-9.329268455505371,3.932926893234253,-35.24390411376953,7.199999809265137,25.350000381469727,-12.0,38.971065521240234,0,
 1177892,-0.3564453125,-1.158203125,0.131591796875,-1.4939024448394775,12.22560977935791,-50.09146499633789,7.199999809265137,24.450000762939453,-12.0,39.2106819152832,0,
 1177902,-0.427734375,-1.163330078125,0.095458984375,3.079268455505371,20.640243530273438,-66.85975646972656,7.199999809265137,24.450000762939453,-12.0,39.35445022583008,0,
 1177912,-0.486083984375,-1.12744140625,0.09423828125,-3.2012195587158203,29.481708526611328,-76.79878234863281,7.5,26.100000381469727,-15.300000190734863,39.2106819152832,0,
 1177922,-0.479248046875,-1.002197265625,0.14599609375,-8.810976028442383,36.92073440551758,-75.88414764404297,5.400000095367432,23.850000381469727,-13.199999809265137,39.2106819152832,0,
 1177932,-0.478759765625,-0.93798828125,0.11474609375,-15.762195587158203,39.878047943115234,-67.95732116699219,5.099999904632568,23.850000381469727,-12.899999618530273,39.01898956298828,0,
 1177942,-0.41943359375,-0.848388671875,0.14306640625,-24.542682647705078,40.914634704589844,-35.121952056884766,4.949999809265137,23.25,-11.550000190734863,39.01898956298828,0,
 1177952,-0.40869140625,-0.86669921875,0.128662109375,-27.469512939453125,37.5,-16.95121955871582,4.949999809265137,23.25,-11.550000190734863,39.30652618408203,0,
 1177962,-0.35400390625,-0.84228515625,0.11083984375,-32.8658561706543,30.15243911743164,1.2195122241973877,4.5,24.149999618530273,-12.300000190734863,39.11483383178711,0,
 1177972,-0.3203125,-0.739013671875,0.2119140625,-28.68902587890625,22.469512939453125,16.524391174316406,6.449999809265137,22.950000762939453,-10.800000190734863,38.92314529418945,0,
 1177982,-0.29296875,-0.623046875,0.2265625,-5.54878044128418,16.585365295410156,20.88414764404297,5.849999904632568,23.100000381469727,-9.149999618530273,39.2106819152832,0,
 1177992,-0.27783203125,-0.688720703125,0.238037109375,13.353658676147461,12.439024925231934,25.0,5.849999904632568,23.100000381469727,-9.149999618530273,38.971065521240234,0,
 1178003,-0.287841796875,-0.813720703125,0.1845703125,17.591463088989258,9.756097793579102,33.353660583496094,6.300000190734863,23.850000381469727,-9.149999618530273,39.01898956298828,0,
 1178013,-0.2734375,-0.88916015625,0.11474609375,12.77439022064209,8.170731544494629,46.79878234863281,7.5,26.399999618530273,-10.800000190734863,39.01898956298828,0,
 1178023,-0.20751953125,-0.86767578125,0.089599609375,8.87195110321045,8.079268455505371,59.817073822021484,10.199999809265137,24.899999618530273,-7.650000095367432,38.77937698364258,0,
 1178033,-0.1875,-0.8505859375,0.091796875,9.908536911010742,10.457317352294922,68.44512176513672,10.199999809265137,24.899999618530273,-7.5,39.01898956298828,0,
 1178043,-0.154052734375,-0.865234375,0.09716796875,13.20121955871582,13.689024925231934,73.20121765136719,11.550000190734863,25.5,-6.150000095367432,39.2106819152832,0,
 1178053,-0.106201171875,-0.909912109375,0.108642578125,14.45121955871582,16.4939022064209,76.46341705322266,13.050000190734863,27.0,-5.699999809265137,39.11483383178711,0,
 1178063,-0.0498046875,-0.951904296875,0.105224609375,14.207317352294922,16.25,77.86585235595703,15.899999618530273,26.25,-5.699999809265137,39.01898956298828,0,
 1178073,0.0283203125,-0.98486328125,0.121826171875,14.481707572937012,11.280488014221191,79.63414764404297,15.899999618530273,27.299999237060547,-4.5,38.971065521240234,0,
 1178083,0.077392578125,-0.9921875,0.12646484375,15.030488014221191,4.29878044128418,80.64024353027344,15.899999618530273,27.299999237060547,-4.5,39.11483383178711,0,
 1178093,0.09326171875,-1.01416015625,0.131103515625,16.585365295410156,-1.4939024448394775,85.03048706054688,18.299999237060547,29.700000762939453,-2.549999952316284,39.11483383178711,0,
 1178103,0.031494140625,-0.986328125,0.0556640625,19.725610733032227,-5.213414669036865,89.84756469726562,20.700000762939453,28.649999618530273,-0.44999998807907104,39.11483383178711,0,
 1178113,0.022216796875,-1.0244140625,0.0107421875,22.012195587158203,-6.981707572937012,94.78659057617188,20.700000762939453,30.299999237060547,-1.649999976158142,39.2106819152832,0,
 1178123,0.021240234375,-1.06640625,-0.010498046875,20.823171615600586,-6.79878044128418,101.70732116699219,20.700000762939453,30.299999237060547,-1.649999976158142,38.82729721069336,0,
 1178133,0.06591796875,-1.1083984375,-0.025146484375,16.981708526611328,-5.853658676147461,108.32317352294922,20.100000381469727,30.0,2.25,39.162757873535156,0,
 1178143,0.094970703125,-1.146728515625,-0.019287109375,11.890244483947754,-5.640244007110596,111.34146881103516,20.399999618530273,29.100000381469727,0.8999999761581421,39.2106819152832,0,
 1178153,0.11962890625,-1.177734375,-0.012939453125,9.085366249084473,-4.847560882568359,109.69512176513672,19.649999618530273,30.299999237060547,2.700000047683716,39.11483383178711,0,
 1178163,0.15234375,-1.237060546875,-0.0068359375,8.47560977935791,-4.2682929039001465,102.95732116699219,19.649999618530273,30.299999237060547,2.700000047683716,39.2106819152832,0,
 1178173,0.17724609375,-1.2861328125,-0.01318359375,6.7682929039001465,-3.0487804412841797,93.4756088256836,19.649999618530273,30.299999237060547,2.700000047683716,38.971065521240234,0,
 1178183,0.171875,-1.293212890625,-0.015380859375,2.195122003555298,-3.2317073345184326,83.17073059082031,17.549999237060547,28.049999237060547,2.25,39.162757873535156,0,
 1178193,0.16796875,-1.234619140625,-0.010498046875,-3.170731782913208,-3.3841464519500732,74.0243911743164,17.850000381469727,28.5,1.5,39.162757873535156,0,
 1178203,0.147216796875,-1.167724609375,-0.01220703125,-6.52439022064209,-3.567073345184326,67.62195587158203,17.850000381469727,28.5,1.5,39.2106819152832,0,
 1178213,0.136474609375,-1.11865234375,-0.010009765625,-8.170731544494629,-2.804877996444702,63.38414764404297,17.850000381469727,28.5,1.5,39.2106819152832,0,
 1178223,0.145751953125,-1.09716796875,-0.024169921875,-9.054878234863281,-2.6524391174316406,60.15243911743164,15.149999618530273,26.399999618530273,0.75,39.01898956298828,0,
 1178233,0.1533203125,-1.097900390625,-0.031005859375,-10.304878234863281,-2.7134146690368652,56.28049087524414,12.899999618530273,28.799999237060547,-1.0499999523162842,39.2106819152832,0,
 1178243,0.145751953125,-1.05419921875,-0.034423828125,-11.920731544494629,-3.2012195587158203,51.7378044128418,12.899999618530273,28.799999237060547,-1.0499999523162842,39.11483383178711,0,
 1178253,0.128173828125,-1.03076171875,-0.02978515625,-14.237805366516113,-3.47560977935791,47.774391174316406,12.899999618530273,28.799999237060547,-1.0499999523162842,39.2106819152832,0,
 1178263,0.114501953125,-1.01806640625,-0.021484375,-15.70121955871582,-3.1402440071105957,44.969512939453125,15.75,28.200000762939453,0.44999998807907104,38.971065521240234,0,
 1178273,0.113037109375,-0.979248046875,-0.011474609375,-17.012195587158203,-3.8109757900238037,43.84146499633789,14.25,29.100000381469727,-1.9500000476837158,38.77937698364258,0,
 1178283,0.0966796875,-0.934814453125,-0.0166015625,-18.231708526611328,-4.2682929039001465,42.28658676147461,15.75,27.899999618530273,-0.15000000596046448,39.01898956298828,0,
 1178293,0.083251953125,-0.89794921875,-0.013427734375,-18.20121955871582,-4.603658676147461,39.35975646972656,15.75,27.899999618530273,-0.15000000596046448,39.162757873535156,0,
 1178303,0.05859375,-0.858154296875,-0.009521484375,-18.628049850463867,-3.353658676147461,37.34756088256836,15.75,27.899999618530273,-0.15000000596046448,38.971065521240234,0,
 1178313,0.030517578125,-0.820556640625,-0.0048828125,-20.88414764404297,-1.3414634466171265,37.07316970825195,17.25,26.700000762939453,-3.1500000953674316,39.2106819152832,0,
 1178323,-0.000732421875,-0.778076171875,-0.00537109375,-23.292682647705078,1.4939024448394775,39.57317352294922,15.149999618530273,28.5,-1.0499999523162842,38.92314529418945,0,
 1178333,-0.038330078125,-0.754150390625,0.002197265625,-23.871952056884766,4.542683124542236,43.29268264770508,15.149999618530273,28.5,-1.0499999523162842,39.2106819152832,0,
 1178343,-0.070556640625,-0.720458984375,0.021484375,-23.963415145874023,7.378048896789551,48.44512176513672,15.149999618530273,28.5,-1.0499999523162842,39.2106819152832,0,
 1178353,-0.09375,-0.655517578125,0.065185546875,-23.59756088256836,8.993902206420898,57.317073822021484,15.899999618530273,27.600000381469727,1.649999976158142,39.2106819152832,0,
 1178363,-0.098876953125,-0.593994140625,0.102294921875,-20.365854263305664,9.420731544494629,68.26219940185547,17.100000381469727,27.600000381469727,0.0,39.01898956298828,0,
 1178373,-0.105712890625,-0.58056640625,0.15380859375,-11.981707572937012,6.7682929039001465,78.9024429321289,17.100000381469727,27.600000381469727,0.0,39.01898956298828,0,
 1178383,-0.07861328125,-0.575927734375,0.220703125,-0.18292683362960815,2.5,86.89024353027344,17.100000381469727,27.600000381469727,0.0,39.01898956298828,0,
 1178393,-0.048583984375,-0.654052734375,0.32666015625,47.9878044128418,-15.518293380737305,66.43292999267578,19.649999618530273,29.100000381469727,-0.44999998807907104,39.01898956298828,0,
 1178403,-0.003662109375,-0.856689453125,0.332763671875,69.45121765136719,-29.08536720275879,37.89634323120117,21.299999237060547,26.850000381469727,-2.549999952316284,39.11483383178711,0,
 1178413,-0.019287109375,-1.056396484375,0.324462890625,72.2256088256836,-41.98170852661133,10.853658676147461,20.700000762939453,28.649999618530273,-5.400000095367432,39.11483383178711,0,
 1178423,-0.069580078125,-1.0869140625,0.278076171875,65.9756088256836,-53.932926177978516,-2.7134146690368652,20.700000762939453,28.649999618530273,-5.400000095367432,39.01898956298828,0,
 1178433,-0.164794921875,-1.032958984375,0.244873046875,57.34756088256836,-62.59146499633789,-4.512195110321045,21.450000762939453,28.649999618530273,-5.400000095367432,39.30652618408203,0,
 1178443,-0.27978515625,-0.919677734375,0.22998046875,51.55487823486328,-66.00609588623047,0.6097561120986938,23.25,28.799999237060547,-6.300000190734863,39.11483383178711,0,
 1178453,-0.3701171875,-0.820068359375,0.220947265625,53.07926940917969,-64.35975646972656,7.256097793579102,21.75,26.100000381469727,-7.050000190734863,39.11483383178711,0,
 1178463,-0.429443359375,-0.774658203125,0.226806640625,60.0,-58.93292999267578,12.439024925231934,21.75,26.100000381469727,-7.050000190734863,39.01898956298828,0,
 1178473,-0.457275390625,-0.822998046875,0.216064453125,65.64024353027344,-50.94512176513672,13.445122718811035,22.5,26.100000381469727,-7.050000190734863,39.30652618408203,0,
 1178483,-0.475341796875,-0.907470703125,0.18212890625,67.13414764404297,-41.03658676147461,12.591464042663574,22.799999237060547,27.299999237060547,-10.050000190734863,39.35445022583008,0,
 1178493,-0.47509765625,-0.977783203125,0.1591796875,64.29878234863281,-31.89024543762207,10.945121765136719,24.149999618530273,27.899999618530273,-10.949999809265137,39.35445022583008,0,
 1178503,-0.47509765625,-1.030517578125,0.12890625,57.5,-23.38414764404297,10.670731544494629,23.549999237060547,26.850000381469727,-12.300000190734863,38.82729721069336,0,
 1178513,-0.46728515625,-1.05126953125,0.098388671875,49.32926940917969,-15.97560977935791,10.640244483947754,23.549999237060547,26.850000381469727,-12.300000190734863,38.92314529418945,0,
 1178523,-0.451904296875,-1.06298828125,0.0732421875,40.42683029174805,-9.420731544494629,10.518293380737305,24.149999618530273,26.25,-13.649999618530273,39.01898956298828,0,
 1178533,-0.439697265625,-1.06396484375,0.049072265625,31.768293380737305,-1.920731782913208,8.658536911010742,23.100000381469727,24.75,-15.149999618530273,39.35445022583008,0,
 1178543,-0.45703125,-1.05224609375,0.017822265625,23.93292808532715,5.731707572937012,5.396341800689697,25.200000762939453,24.899999618530273,-16.049999237060547,39.11483383178711,0,
 1178553,-0.462158203125,-1.03125,-0.01171875,18.810976028442383,14.085366249084473,2.4390244483947754,25.200000762939453,24.899999618530273,-16.049999237060547,39.11483383178711,0,
 1178563,-0.435546875,-1.0400390625,-0.059814453125,13.932927131652832,21.981708526611328,-1.1280487775802612,23.399999618530273,23.549999237060547,-16.200000762939453,38.82729721069336,0,
 1178573,-0.417724609375,-1.064697265625,-0.056884765625,9.634146690368652,29.14634132385254,-6.6768293380737305,22.649999618530273,25.049999237060547,-16.200000762939453,39.2106819152832,0,
 1178583,-0.392822265625,-1.09033203125,-0.0625,5.97560977935791,34.29878234863281,-14.634146690368652,23.850000381469727,25.5,-16.649999618530273,39.162757873535156,0,
 1178593,-0.388427734375,-1.11328125,-0.06005859375,1.6463414430618286,37.19512176513672,-23.44512176513672,23.850000381469727,25.5,-16.649999618530273,39.11483383178711,0,
 1178603,-0.381103515625,-1.105224609375,-0.06005859375,-5.5182929039001465,39.57317352294922,-31.158536911010742,23.549999237060547,25.649999618530273,-16.5,39.35445022583008,0,
 1178613,-0.380859375,-1.057373046875,-0.0546875,-15.518293380737305,41.03658676147461,-35.975608825683594,25.950000762939453,22.950000762939453,-16.799999237060547,39.01898956298828,0,
 1178623,-0.379150390625,-0.99169921875,-0.040771484375,-24.08536720275879,41.92073440551758,-37.43902587890625,26.700000762939453,23.25,-18.75,39.11483383178711,0,
 1178633,-0.37548828125,-0.936767578125,-0.0244140625,-30.609756469726562,42.80487823486328,-36.03658676147461,22.799999237060547,24.149999618530273,-15.75,39.2106819152832,0,
 1178643,-0.377197265625,-0.893798828125,0.000732421875,-33.59756088256836,42.713417053222656,-33.32316970825195,22.799999237060547,24.149999618530273,-15.75,39.11483383178711,0,
 1178653,-0.367431640625,-0.8935546875,0.014892578125,-34.2378044128418,41.524391174316406,-30.18292808532715,25.200000762939453,23.700000762939453,-14.550000190734863,39.2106819152832,0,
 1178663,-0.359619140625,-0.914794921875,0.032958984375,-34.29878234863281,39.93902587890625,-27.5,24.75,24.450000762939453,-15.300000190734863,38.971065521240234,0,
 1178673,-0.350830078125,-0.924072265625,0.052001953125,-35.975608825683594,37.103660583496094,-24.908536911010742,26.549999237060547,24.299999237060547,-15.899999618530273,39.11483383178711,0,
 1178683,-0.335205078125,-0.888427734375,0.08251953125,-38.414634704589844,33.04878234863281,-22.34756088256836,26.549999237060547,24.299999237060547,-15.899999618530273,39.162757873535156,0,
 1178693,-0.34814453125,-0.86474609375,0.12060546875,-39.20731735229492,27.560976028442383,-20.975610733032227,25.950000762939453,24.149999618530273,-15.0,39.30652618408203,0,
 1178703,-0.330810546875,-0.84765625,0.129150390625,-34.57316970825195,20.670732498168945,-19.7560977935791,25.950000762939453,26.100000381469727,-12.300000190734863,39.162757873535156,0,
 1178713,-0.388427734375,-0.77587890625,0.255126953125,-28.323171615600586,13.689024925231934,-19.664634704589844,27.299999237060547,24.75,-12.899999618530273,39.11483383178711,0,
 1178724,-0.447265625,-0.9052734375,0.25927734375,-21.707317352294922,9.02439022064209,-20.030488967895508,27.299999237060547,24.75,-12.899999618530273,39.01898956298828,0,
 1178734,-0.3974609375,-0.86376953125,0.19384765625,-16.189023971557617,1.737804889678955,-20.823171615600586,26.850000381469727,26.25,-12.449999809265137,39.162757873535156,0,
 1178744,-0.4130859375,-0.905517578125,0.18603515625,-12.22560977935791,-3.628048896789551,-22.225610733032227,25.649999618530273,26.25,-11.699999809265137,38.92314529418945,0,
 1178754,-0.479248046875,-0.54248046875,0.011474609375,3.628048896789551,-19.78658676147461,-21.463415145874023,26.850000381469727,26.25,-12.149999618530273,39.49821853637695,0,
 1178764,0.086181640625,-0.55908203125,0.3662109375,166.9512176513672,-77.59146881103516,11.341464042663574,28.799999237060547,27.899999618530273,-13.199999809265137,38.92314529418945,0,
 1178774,-0.263427734375,-1.104736328125,0.316650390625,-15.182927131652832,7.103658676147461,-19.08536720275879,28.799999237060547,27.899999618530273,-13.199999809265137,39.01898956298828,0,
 1178784,-0.35107421875,-1.180908203125,0.021240234375,-40.335365295410156,19.69512176513672,-18.20121955871582,29.700000762939453,27.299999237060547,-11.25,39.2106819152832,0,
 1178794,-0.36279296875,-1.066650390625,0.076416015625,-20.70121955871582,-9.237805366516113,-10.884146690368652,28.649999618530273,26.850000381469727,-12.0,39.2106819152832,0,
 1178804,-0.4404296875,-0.854736328125,0.279296875,-9.634146690368652,-5.792683124542236,-2.5,28.049999237060547,27.0,-12.149999618530273,39.11483383178711,0,
 1178814,-0.4091796875,-0.84375,0.12158203125,-22.89634132385254,14.420732498168945,-8.170731544494629,28.049999237060547,27.0,-12.149999618530273,38.92314529418945,0,
 1178824,-0.461669921875,-0.9423828125,0.10693359375,-8.109756469726562,16.09756088256836,-7.743902683258057,30.299999237060547,29.399999618530273,-12.899999618530273,38.971065521240234,0,
 1178834,-0.400390625,-0.875732421875,0.121337890625,5.365853786468506,14.390244483947754,-6.920732021331787,29.850000381469727,28.649999618530273,-10.949999809265137,38.92314529418945,0,
 1178844,-0.35546875,-0.941162109375,0.156005859375,9.603658676147461,18.75,-4.908536911010742,28.950000762939453,28.5,-11.25,39.01898956298828,0,
 1178854,-0.29833984375,-1.02001953125,0.12255859375,-4.786585330963135,16.219512939453125,-5.457317352294922,28.950000762939453,28.5,-11.25,38.92314529418945,0,
 1178864,-0.2744140625,-0.9482421875,0.115478515625,-5.060975551605225,14.02439022064209,-2.4390244483947754,28.350000381469727,28.649999618530273,-12.149999618530273,39.01898956298828,0,
 1178874,-0.321533203125,-0.9404296875,0.21044921875,-9.664634704589844,13.109756469726562,-4.847560882568359,31.200000762939453,28.799999237060547,-12.75,39.11483383178711,0,
 1178884,-0.2978515625,-0.871337890625,0.160888671875,-4.847560882568359,8.810976028442383,-3.353658676147461,29.100000381469727,28.649999618530273,-12.899999618530273,39.11483383178711,0,
 1178894,-0.2998046875,-0.85302734375,0.160400390625,-1.3719512224197388,7.042683124542236,-1.5548781156539917,29.399999618530273,28.5,-11.25,39.01898956298828,0,
 1178904,-0.29638671875,-0.8828125,0.18212890625,-5.365853786468506,7.378048896789551,-1.432926893234253,29.399999618530273,28.5,-11.25,39.01898956298828,0,
 1178914,-0.298583984375,-0.92333984375,0.152099609375,-9.115854263305664,5.060975551605225,-1.1585365533828735,29.399999618530273,28.5,-9.300000190734863,39.11483383178711,0,
 1178924,-0.2724609375,-0.9375,0.126953125,-13.658536911010742,3.2926828861236572,-1.8902438879013062,30.299999237060547,29.850000381469727,-9.449999809265137,39.11483383178711,0,
 1178934,-0.3017578125,-0.912353515625,0.167236328125,-15.518293380737305,1.7682926654815674,-3.170731782913208,29.549999237060547,29.100000381469727,-10.199999809265137,39.2106819152832,0,
 1178944,-0.25,-0.896484375,0.1376953125,-13.536585807800293,2.7134146690368652,-2.317073106765747,29.549999237060547,29.100000381469727,-10.199999809265137,39.162757873535156,0,
 1178954,-0.286865234375,-0.8671875,0.175537109375,-9.57317066192627,3.170731782913208,-2.591463565826416,29.700000762939453,28.799999237060547,-9.0,38.971065521240234,0,
 1178964,-0.371826171875,-0.885009765625,0.216796875,-15.853658676147461,5.792683124542236,-4.695122241973877,30.299999237060547,29.100000381469727,-10.199999809265137,39.162757873535156,0,
 1178974,-0.271484375,-0.9287109375,0.15673828125,-16.585365295410156,4.939024448394775,-4.481707572937012,30.149999618530273,29.700000762939453,-10.050000190734863,39.11483383178711,0,
 1178984,-0.27734375,-0.92041015625,0.109130859375,-16.280488967895508,4.5731706619262695,-3.9024391174316406,28.350000381469727,29.100000381469727,-9.149999618530273,38.92314529418945,0,
 1178994,-0.2685546875,-0.876953125,0.162109375,-15.243903160095215,4.115853786468506,-2.682926893234253,29.700000762939453,29.25,-10.050000190734863,39.30652618408203,0,
 1179034,-0.29345703125,-0.955078125,0.138916015625,-6.79878044128418,1.2195122241973877,0.8231707215309143,29.399999618530273,28.5,-8.25,39.30652618408203,0,
 1179044,-0.30322265625,-0.970947265625,0.113037109375,-10.487805366516113,1.3719512224197388,1.7073171138763428,28.200000762939453,28.799999237060547,-9.300000190734863,39.2106819152832,0,
 1179054,-0.342041015625,-0.93115234375,0.143310546875,-11.646341323852539,1.4634146690368652,3.5060975551605225,29.700000762939453,29.25,-9.300000190734863,38.77937698364258,0,
 1179064,-0.345458984375,-0.92529296875,0.132568359375,-7.134146690368652,-0.12195122241973877,4.756097793579102,30.299999237060547,30.299999237060547,-7.650000095367432,39.01898956298828,0,
 1179074,-0.3408203125,-0.9296875,0.110595703125,-5.182927131652832,0.8536585569381714,3.0487804412841797,30.299999237060547,30.299999237060547,-7.650000095367432,39.162757873535156,0,
 1179084,-0.35107421875,-0.9365234375,0.111083984375,0.030487805604934692,1.432926893234253,1.585365891456604,29.100000381469727,29.100000381469727,-7.949999809265137,39.2106819152832,0,
 1179094,-0.336181640625,-0.948486328125,0.10693359375,2.1341464519500732,2.591463565826416,0.3658536672592163,30.75,29.850000381469727,-7.949999809265137,39.01898956298828,0,
 1179104,-0.3466796875,-0.95703125,0.096923828125,1.0670732259750366,4.390244007110596,0.12195122241973877,28.350000381469727,29.100000381469727,-9.449999809265137,38.971065521240234,0,
 1179114,-0.33251953125,-0.945556640625,0.095703125,2.103658676147461,2.987804889678955,1.402438998222351,29.100000381469727,28.649999618530273,-8.699999809265137,39.01898956298828,0,
 1179124,-0.33447265625,-0.93994140625,0.091064453125,0.8231707215309143,1.9512195587158203,2.3475611209869385,29.100000381469727,28.649999618530273,-8.699999809265137,38.92314529418945,0,
 1179134,-0.3525390625,-0.93701171875,0.09619140625,2.2865853309631348,-0.5792682766914368,3.5975611209869385,30.75,28.649999618530273,-12.899999618530273,39.11483383178711,0,
 1179144,-0.36767578125,-0.943603515625,0.094482421875,1.9512195587158203,-2.9573171138763428,4.847560882568359,28.799999237060547,29.399999618530273,-9.449999809265137,39.01898956298828,0,
 1179154,-0.38427734375,-0.933837890625,0.09521484375,2.408536672592163,-5.762195110321045,6.6768293380737305,28.950000762939453,28.049999237060547,-8.25,38.683528900146484,0,
 1179164,-0.39990234375,-0.931396484375,0.08740234375,3.75,-7.896341800689697,8.231707572937012,28.950000762939453,28.049999237060547,-8.25,39.2106819152832,0,
 1179174,-0.414306640625,-0.9326171875,0.089111328125,3.4146342277526855,-9.84756088256836,10.030488014221191,29.399999618530273,28.5,-9.300000190734863,39.11483383178711,0,
 1179184,-0.438232421875,-0.907958984375,0.0859375,4.481707572937012,-10.884146690368652,12.591464042663574,29.549999237060547,30.299999237060547,-9.899999618530273,38.971065521240234,0,
 1179194,-0.465087890625,-0.905517578125,0.08544921875,4.634146213531494,-12.134146690368652,15.792683601379395,29.700000762939453,30.75,-8.550000190734863,39.30652618408203,0,
 1179204,-0.486083984375,-0.900146484375,0.087158203125,6.371951580047607,-12.987805366516113,18.93292808532715,29.700000762939453,30.75,-8.550000190734863,38.683528900146484,0,
 1179214,-0.507080078125,-0.90185546875,0.07275390625,7.5,-13.32317066192627,22.7439022064209,28.950000762939453,28.799999237060547,-10.050000190734863,39.162757873535156,0,
 1179224,-0.521728515625,-0.8935546875,0.0673828125,7.378048896789551,-13.231707572937012,26.64634132385254,27.450000762939453,29.700000762939453,-9.75,39.2106819152832,0,
 1179234,-0.5283203125,-0.888916015625,0.060546875,7.378048896789551,-12.34756088256836,30.121952056884766,29.549999237060547,29.850000381469727,-11.399999618530273,39.162757873535156,0,
 1179244,-0.548583984375,-0.897216796875,0.061767578125,7.957317352294922,-10.54878044128418,33.29268264770508,27.75,28.5,-9.300000190734863,39.11483383178711,0,
 1179254,-0.552734375,-0.884521484375,0.054443359375,7.896341800689697,-8.90243911743164,35.94512176513672,27.75,28.5,-9.300000190734863,39.11483383178711,0,
 1179264,-0.558837890625,-0.87744140625,0.05078125,8.140244483947754,-7.1646342277526855,38.719512939453125,28.200000762939453,27.600000381469727,-10.050000190734863,39.162757873535156,0,
 1179274,-0.555908203125,-0.880615234375,0.037109375,8.140244483947754,-4.847560882568359,41.76829528808594,26.549999237060547,29.399999618530273,-9.149999618530273,39.2106819152832,0,
 1179284,-0.54833984375,-0.869873046875,0.042236328125,7.682927131652832,-2.804877996444702,44.29878234863281,28.200000762939453,28.799999237060547,-7.800000190734863,39.162757873535156,0,
 1179294,-0.54541015625,-0.863037109375,0.04052734375,7.439024448394775,-0.8536585569381714,46.79878234863281,28.200000762939453,28.799999237060547,-7.800000190734863,38.92314529418945,0,
 1179304,-0.540771484375,-0.8544921875,0.0439453125,5.670732021331787,2.103658676147461,53.20122146606445,27.450000762939453,29.25,-8.25,39.2106819152832,0,
 1179314,-0.53515625,-0.855224609375,0.046142578125,4.908536911010742,2.8353660106658936,56.98170852661133,27.75,28.799999237060547,-9.0,39.11483383178711,0,
 1179324,-0.531982421875,-0.852783203125,0.042724609375,4.969512462615967,4.115853786468506,59.78658676147461,27.299999237060547,29.399999618530273,-9.449999809265137,39.162757873535156,0,
 1179334,-0.531005859375,-0.877685546875,0.0458984375,4.359755992889404,5.27439022064209,60.97561264038086,27.299999237060547,29.399999618530273,-9.449999809265137,39.11483383178711,0,
 1179344,-0.523193359375,-0.92041015625,0.04931640625,1.4939024448394775,6.219512462615967,60.24390411376953,26.25,28.799999237060547,-8.25,38.971065521240234,0,
 1179354,-0.507568359375,-0.9501953125,0.042236328125,-2.896341562271118,7.469512462615967,58.963417053222656,26.549999237060547,30.600000381469727,-8.699999809265137,39.2106819152832,0,
 1179364,-0.499267578125,-0.95068359375,0.0478515625,-6.371951580047607,8.506097793579102,57.80487823486328,27.450000762939453,30.450000762939453,-8.550000190734863,39.30652618408203,0,
 1179374,-0.498779296875,-0.924072265625,0.052734375,-8.445121765136719,9.756097793579102,57.256099700927734,25.950000762939453,28.799999237060547,-8.550000190734863,39.162757873535156,0,
 1179384,-0.493896484375,-0.900146484375,0.057861328125,-8.90243911743164,11.52439022064209,57.68292999267578,25.950000762939453,28.799999237060547,-8.550000190734863,38.971065521240234,0,
 1179394,-0.49169921875,-0.8779296875,0.059814453125,-8.445121765136719,13.32317066192627,59.39024353027344,25.5,31.649999618530273,-8.550000190734863,38.82729721069336,0,
 1179404,-0.49169921875,-0.878662109375,0.054931640625,-8.780488014221191,15.54878044128418,61.158538818359375,26.25,31.950000762939453,-6.300000190734863,39.11483383178711,0,
 1179414,-0.485595703125,-0.885986328125,0.059814453125,-9.054878234863281,17.591463088989258,62.713417053222656,26.100000381469727,32.25,-6.150000095367432,39.11483383178711,0,
 1179424,-0.47119140625,-0.898681640625,0.05908203125,-10.030488014221191,19.29878044128418,64.32926940917969,26.100000381469727,32.25,-6.150000095367432,39.30652618408203,0,
 1179435,-0.464111328125,-0.910400390625,0.05712890625,-12.164634704589844,20.030488967895508,65.33536529541016,26.25,31.200000762939453,-8.25,39.162757873535156,0,
 1179445,-0.45849609375,-0.917724609375,0.0625,-14.908536911010742,20.426830291748047,66.70732116699219,26.700000762939453,31.649999618530273,-7.800000190734863,38.82729721069336,0,
 1179455,-0.45703125,-0.91162109375,0.064697265625,-17.012195587158203,20.70121955871582,67.62195587158203,24.149999618530273,32.25,-6.900000095367432,39.11483383178711,0,
 1179465,-0.481689453125,-0.863037109375,0.075439453125,-18.567073822021484,22.073171615600586,69.11585235595703,27.75,31.649999618530273,-5.550000190734863,39.01898956298828,0,
 1179475,-0.478759765625,-0.8486328125,0.074951171875,-18.59756088256836,23.5060977935791,70.9756088256836,25.950000762939453,32.400001525878906,-7.5,38.82729721069336,0,
 1179485,-0.471923828125,-0.84521484375,0.081787109375,-18.20121955871582,25.213415145874023,72.2256088256836,25.200000762939453,33.150001525878906,-7.050000190734863,39.35445022583008,0,
 1179505,-0.45703125,-0.8095703125,0.088623046875,-17.89634132385254,29.29878044128418,71.18902587890625,26.549999237060547,33.75,-6.449999809265137,39.2106819152832,0,
 1179515,-0.4619140625,-0.808837890625,0.097900390625,-17.012195587158203,31.09756088256836,69.96951293945312,26.549999237060547,33.75,-6.449999809265137,39.01898956298828,0,
 1179525,-0.457275390625,-0.811279296875,0.092041015625,-15.030488014221191,32.317073822021484,67.59146118164062,28.200000762939453,34.04999923706055,-6.75,39.2106819152832,0,
 1179535,-0.4638671875,-0.8115234375,0.103515625,-12.560976028442383,32.469512939453125,64.11585235595703,28.950000762939453,33.150001525878906,-7.050000190734863,39.30652618408203,0,
 1179545,-0.464111328125,-0.796630859375,0.10302734375,-11.37195110321045,32.256099700927734,59.54268264770508,29.100000381469727,30.299999237060547,-10.649999618530273,39.2106819152832,0,
 1179555,-0.4599609375,-0.771484375,0.104736328125,-9.939024925231934,31.79878044128418,55.73170852661133,29.100000381469727,30.299999237060547,-10.649999618530273,39.01898956298828,0,
 1179565,-0.449951171875,-0.7451171875,0.098876953125,-8.59756088256836,30.88414764404297,52.95731735229492,28.950000762939453,33.150001525878906,-7.050000190734863,39.01898956298828,0,
 1179575,-0.43359375,-0.7236328125,0.10400390625,-6.95121955871582,30.09146499633789,50.54878234863281,28.950000762939453,33.150001525878906,-6.75,39.2106819152832,0,
 1179585,-0.4306640625,-0.723876953125,0.098876953125,-4.847560882568359,29.481708526611328,48.506099700927734,31.049999237060547,33.45000076293945,-7.199999809265137,39.35445022583008,0,
 1179595,-0.442138671875,-0.728759765625,0.1005859375,-2.8353660106658936,28.5060977935791,45.54878234863281,31.200000762939453,33.150001525878906,-7.5,38.92314529418945,0,
 1179605,-0.350830078125,-0.6767578125,0.186767578125,-1.432926893234253,27.89634132385254,41.89024353027344,31.200000762939453,33.150001525878906,-7.5,39.2106819152832,0,
 1179615,-0.33447265625,-0.8388671875,0.185546875,4.695122241973877,19.908536911010742,28.20121955871582,30.75,32.54999923706055,-8.399999618530273,38.971065521240234,0,
 1179625,-0.354736328125,-0.88818359375,0.14697265625,8.719511985778809,13.506097793579102,15.731707572937012,31.049999237060547,33.0,-9.149999618530273,39.162757873535156,0,
 1179635,-0.390625,-0.86279296875,0.106689453125,6.219512462615967,7.012195110321045,7.012195110321045,31.049999237060547,33.0,-8.699999809265137,39.35445022583008,0,
 1179645,-0.42431640625,-0.81201171875,0.080322265625,-0.6402438879013062,4.1768293380737305,3.8109757900238037,31.049999237060547,33.0,-8.699999809265137,38.971065521240234,0,
 1179655,-0.42138671875,-0.775390625,0.112060546875,-5.457317352294922,1.0060975551605225,2.317073106765747,29.549999237060547,33.45000076293945,-7.949999809265137,38.971065521240234,0,
 1179665,-0.45556640625,-0.74560546875,0.1435546875,-5.457317352294922,-4.0853657722473145,0.396341472864151,31.049999237060547,33.45000076293945,-9.449999809265137,39.2106819152832,0,
 1179675,-0.60205078125,-0.75048828125,0.0634765625,-3.170731782913208,-9.237805366516113,-0.792682945728302,30.899999618530273,33.150001525878906,-8.550000190734863,39.01898956298828,0,
 1179685,-0.689453125,-0.7529296875,0.032470703125,-3.3231709003448486,-7.77439022064209,-0.5487805008888245,30.899999618530273,33.150001525878906,-8.550000190734863,39.162757873535156,0,
 1179695,-0.691650390625,-0.748291015625,0.04833984375,-2.5304877758026123,-4.695122241973877,-0.396341472864151,32.54999923706055,34.95000076293945,-9.449999809265137,38.92314529418945,0,
 1179705,-0.68505859375,-0.761962890625,0.0634765625,-0.6097561120986938,-3.3841464519500732,-1.4634146690368652,30.450000762939453,35.54999923706055,-8.25,39.2106819152832,0,
 1179715,-0.694091796875,-0.761962890625,0.04833984375,0.18292683362960815,-3.170731782913208,-1.4939024448394775,33.0,33.75,-9.449999809265137,39.11483383178711,0,
 1179725,-0.69482421875,-0.76220703125,0.0537109375,-0.060975611209869385,-1.8597561120986938,-2.1646342277526855,30.450000762939453,35.25,-8.550000190734863,39.2106819152832,0,
 1179735,-0.673583984375,-0.741455078125,0.046630859375,-1.432926893234253,-0.8231707215309143,-2.103658676147461,30.450000762939453,35.25,-8.550000190734863,39.30652618408203,0,
 1179745,-0.66845703125,-0.730224609375,0.065185546875,-2.012195110321045,0.8536585569381714,-2.4390244483947754,30.299999237060547,35.70000076293945,-8.699999809265137,39.11483383178711,0,
 1179755,-0.669677734375,-0.716796875,0.058837890625,0.24390244483947754,4.817073345184326,-3.5365853309631348,30.75,34.650001525878906,-9.899999618530273,39.2106819152832,0,
 1179765,-0.654296875,-0.720703125,0.05078125,2.0731706619262695,6.829268455505371,-4.908536911010742,29.399999618530273,34.79999923706055,-7.5,39.2106819152832,0,
 1179775,-0.63037109375,-0.724365234375,0.042236328125,2.682926893234253,9.207317352294922,-6.615853786468506,29.399999618530273,34.79999923706055,-7.5,39.30652618408203,0,
 1179785,-0.610107421875,-0.730712890625,0.042236328125,2.804877996444702,11.463415145874023,-8.567073822021484,30.75,34.650001525878906,-7.949999809265137,39.162757873535156,0,
 1179795,-0.5849609375,-0.732177734375,0.025390625,2.591463565826416,12.5,-11.25,29.549999237060547,35.400001525878906,-9.899999618530273,39.01898956298828,0,
 1179805,-0.5810546875,-0.737060546875,0.01953125,3.0487804412841797,12.34756088256836,-13.140244483947754,31.049999237060547,34.20000076293945,-7.199999809265137,39.162757873535156,0,
 1179815,-0.580078125,-0.745849609375,0.01953125,2.3475611209869385,11.707317352294922,-14.512195587158203,29.850000381469727,34.20000076293945,-8.399999618530273,39.30652618408203,0,
 1179825,-0.58056640625,-0.74951171875,0.01123046875,1.3414634466171265,10.091464042663574,-15.609756469726562,29.399999618530273,34.04999923706055,-8.550000190734863,39.01898956298828,0,
 1179835,-0.58056640625,-0.75390625,0.01220703125,-0.18292683362960815,8.140244483947754,-16.4939022064209,30.450000762939453,34.79999923706055,-9.0,38.971065521240234,0,
 1179845,-0.60009765625,-0.75048828125,0.0087890625,-1.3414634466171265,5.8231706619262695,-16.707317352294922,27.600000381469727,34.20000076293945,-6.900000095367432,38.971065521240234,0,
 1179855,-0.6220703125,-0.7529296875,0.02734375,-1.2195122241973877,4.02439022064209,-17.5,29.850000381469727,33.45000076293945,-9.149999618530273,39.2106819152832,0,
 1179865,-0.617431640625,-0.754150390625,0.00439453125,-1.6463414430618286,2.6219513416290283,-16.768293380737305,29.850000381469727,33.45000076293945,-9.149999618530273,39.2106819152832,0,
 1179875,-0.6552734375,-0.7607421875,-0.00439453125,-1.7987805604934692,1.1585365533828735,-15.0,30.75,34.650001525878906,-7.650000095367432,39.11483383178711,0,
 1179885,-0.652099609375,-0.744140625,-0.01171875,-2.6219513416290283,-0.7317073345184326,-13.445122718811035,29.399999618530273,34.349998474121094,-6.75,38.77937698364258,0,
 1179895,-0.683837890625,-0.77197265625,-0.019775390625,-3.2012195587158203,-1.097561001777649,-12.682927131652832,27.75,35.25,-7.050000190734863,38.92314529418945,0,
 1179905,-0.701904296875,-0.77099609375,-0.008056640625,-4.390244007110596,-2.0731706619262695,-11.79878044128418,27.75,35.25,-7.050000190734863,39.01898956298828,0,
 1179915,-0.7236328125,-0.796875,-0.015625,-5.27439022064209,-1.920731782913208,-11.189024925231934,28.950000762939453,35.25,-7.800000190734863,38.92314529418945,0,
 1179925,-0.674560546875,-0.764892578125,-0.02392578125,-5.70121955871582,-3.0182926654815674,-10.27439022064209,28.649999618530273,35.54999923706055,-4.800000190734863,39.30652618408203,0,
 1179935,-0.724365234375,-0.78173828125,-0.01220703125,-5.060975551605225,-2.3475611209869385,-9.29878044128418,28.200000762939453,33.599998474121094,-7.050000190734863,38.92314529418945,0,
 1179945,-0.71533203125,-0.76904296875,0.008544921875,-4.786585330963135,-1.2195122241973877,-7.591463565826416,28.049999237060547,35.400001525878906,-6.449999809265137,39.11483383178711,0,
 1179955,-0.711669921875,-0.749267578125,0.005126953125,-5.060975551605225,-1.0365853309631348,-6.067073345184326,28.049999237060547,35.400001525878906,-6.449999809265137,39.2106819152832,0,
 1179965,-0.7265625,-0.76318359375,0.00439453125,-5.213414669036865,-1.0060975551605225,-5.030488014221191,29.399999618530273,34.04999923706055,-6.300000190734863,39.30652618408203,0,
 1179975,-0.73583984375,-0.778076171875,0.00439453125,-3.9634146690368652,-2.012195110321045,-4.695122241973877,26.850000381469727,36.900001525878906,-5.699999809265137,39.11483383178711,0,
 1179985,-0.742431640625,-0.78564453125,0.002197265625,-4.054878234863281,-3.2012195587158203,-6.341463565826416,26.850000381469727,34.95000076293945,-4.949999809265137,38.82729721069336,0,
 1179995,-0.761474609375,-0.78173828125,0.0029296875,-3.9634146690368652,-5.731707572937012,-8.170731544494629,26.850000381469727,34.95000076293945,-4.949999809265137,39.01898956298828,0,
 1180005,-0.756103515625,-0.78955078125,0.0087890625,-4.146341323852539,-7.9268293380737305,-9.115854263305664,27.75,35.54999923706055,-5.25,39.11483383178711,0,
 1180015,-0.7529296875,-0.7978515625,0.005126953125,-5.640244007110596,-10.365854263305664,-10.70121955871582,27.450000762939453,37.20000076293945,-5.550000190734863,39.30652618408203,0,
 1180025,-0.7431640625,-0.78564453125,0.006103515625,-6.189024448394775,-12.286585807800293,-14.664634704589844,26.850000381469727,35.400001525878906,-4.199999809265137,39.35445022583008,0,
 1180035,-0.72900390625,-0.766845703125,0.00927734375,-4.146341323852539,-13.231707572937012,-20.640243530273438,26.850000381469727,35.400001525878906,-4.199999809265137,38.92314529418945,0,
 1180045,-0.716552734375,-0.796875,0.0107421875,-2.0426828861236572,-13.567073822021484,-27.19512176513672,25.950000762939453,36.0,-4.800000190734863,38.92314529418945,0,
 1180055,-0.68896484375,-0.828125,-0.00439453125,0.4573170840740204,-13.47560977935791,-35.67073440551758,27.450000762939453,36.29999923706055,-7.800000190734863,39.2106819152832,0,
 1180065,-0.662353515625,-0.858642578125,-0.01416015625,-1.1280487775802612,-12.37804889678955,-44.35975646972656,24.149999618530273,35.70000076293945,-3.9000000953674316,39.2106819152832,0,
 1180075,-0.62744140625,-0.872314453125,-0.021484375,-4.634146213531494,-10.914634704589844,-52.28658676147461,26.25,36.0,-6.300000190734863,39.01898956298828,0,
 1180085,-0.60400390625,-0.846923828125,-0.027587890625,-9.695121765136719,-8.90243911743164,-58.23170852661133,26.25,36.0,-6.300000190734863,38.971065521240234,0,
 1180095,-0.589599609375,-0.829345703125,-0.029296875,-14.481707572937012,-5.97560977935791,-62.68292999267578,24.149999618530273,34.95000076293945,-4.199999809265137,39.01898956298828,0,
 1180105,-0.561279296875,-0.790771484375,-0.030029296875,-19.14634132385254,-2.7439024448394775,-63.84146499633789,24.149999618530273,35.400001525878906,-3.9000000953674316,39.11483383178711,0,
 1180115,-0.539306640625,-0.770263671875,-0.02685546875,-20.54878044128418,0.9146341681480408,-64.1463394165039,21.899999618530273,35.400001525878906,-3.450000047683716,39.11483383178711,0,
 1180125,-0.507080078125,-0.78076171875,-0.027099609375,-21.79878044128418,4.5731706619262695,-62.34756088256836,21.899999618530273,35.400001525878906,-3.450000047683716,39.11483383178711,0,
 1180135,-0.466552734375,-0.820068359375,-0.02001953125,-23.018293380737305,8.109756469726562,-61.92073440551758,21.299999237060547,34.79999923706055,-3.75,38.971065521240234,0,
 1180145,-0.424560546875,-0.8447265625,-0.0166015625,-24.817073822021484,11.036585807800293,-63.84146499633789,19.950000762939453,35.400001525878906,-4.199999809265137,39.01898956298828,0,
 1180155,-0.380126953125,-0.837646484375,-0.011474609375,-26.128049850463867,13.079268455505371,-66.18902587890625,21.299999237060547,37.95000076293945,-6.0,38.971065521240234,0,
 1180165,-0.348388671875,-0.83203125,0.010009765625,-26.89024543762207,13.90243911743164,-67.56097412109375,18.600000381469727,33.150001525878906,-2.25,38.92314529418945,0,
 1180175,-0.329833984375,-0.84228515625,0.022705078125,-26.58536720275879,14.054878234863281,-65.18292999267578,18.450000762939453,33.75,-3.1500000953674316,39.11483383178711,0,
 1180185,-0.278076171875,-0.85400390625,0.017333984375,-28.14024543762207,13.62804889678955,-62.621952056884766,18.299999237060547,34.04999923706055,-0.75,38.587684631347656,0,
