timestamp,accl_x,accl_y,accl_z,gyro_x,gyro_y,gyro_z,mag_x,mag_y,mag_z,temp,emg,
 1441861,-0.03759765625,-0.969970703125,-0.120849609375,-0.4878048896789551,0.3048780560493469,0.4878048896789551,6.449999809265137,-12.149999618530273,6.0,40.60044479370117,0,
 1441871,-0.038330078125,-0.97265625,-0.122314453125,-0.5182926654815674,0.5487805008888245,0.5792682766914368,6.449999809265137,-12.149999618530273,6.0,40.79213333129883,0,
 1441881,-0.03955078125,-0.978515625,-0.1220703125,-0.4268292784690857,0.6402438879013062,0.4878048896789551,7.199999809265137,-15.0,7.800000190734863,40.88798141479492,0,
 1441891,-0.032470703125,-0.97119140625,-0.125,-0.4573170840740204,0.27439025044441223,0.4573170840740204,5.25,-14.25,6.75,40.79213333129883,0,
 1441901,-0.0341796875,-0.970458984375,-0.12060546875,-0.396341472864151,0.4573170840740204,0.27439025044441223,5.25,-12.600000381469727,5.25,40.552520751953125,0,
 1441911,-0.031982421875,-0.970703125,-0.123291015625,-0.5182926654815674,0.4268292784690857,0.09146341681480408,5.25,-12.600000381469727,5.25,40.60044479370117,0,
 1441921,-0.031982421875,-0.972412109375,-0.12451171875,-0.5487805008888245,0.3658536672592163,0.18292683362960815,5.099999904632568,-14.399999618530273,6.150000095367432,41.0317497253418,0,
 1441931,-0.037109375,-0.972412109375,-0.122802734375,-0.4878048896789551,0.27439025044441223,0.3048780560493469,6.300000190734863,-14.850000381469727,6.150000095367432,40.79213333129883,0,
 1441941,-0.0361328125,-0.975830078125,-0.1162109375,-0.5487805008888245,0.15243902802467346,0.030487805604934692,4.5,-14.550000190734863,4.050000190734863,40.88798141479492,0,
 1441951,-0.03955078125,-0.97265625,-0.12353515625,-0.09146341681480408,0.396341472864151,0.4573170840740204,4.5,-14.550000190734863,4.050000190734863,40.9359016418457,0,
 1441961,-0.03466796875,-0.967041015625,-0.125732421875,0.0,0.12195122241973877,0.4268292784690857,6.75,-13.800000190734863,4.800000190734863,40.79213333129883,0,
 1441971,-0.036376953125,-0.97265625,-0.122314453125,0.0,0.396341472864151,0.24390244483947754,7.199999809265137,-13.800000190734863,5.25,40.79213333129883,0,
 1441981,-0.035400390625,-0.978271484375,-0.1201171875,-0.21341463923454285,0.6402438879013062,0.396341472864151,8.100000381469727,-15.149999618530273,5.699999809265137,40.9359016418457,0,
 1442001,-0.034423828125,-0.980224609375,-0.12353515625,0.09146341681480408,0.18292683362960815,0.4268292784690857,6.300000190734863,-15.600000381469727,5.699999809265137,40.60044479370117,0,
 1442011,-0.035400390625,-0.96923828125,-0.1259765625,-0.27439025044441223,0.3658536672592163,0.24390244483947754,6.75,-14.550000190734863,5.550000190734863,40.6962890625,0,
 1442021,-0.029541015625,-0.974853515625,-0.124755859375,0.0,0.4268292784690857,0.5487805008888245,6.75,-13.350000381469727,5.550000190734863,41.0317497253418,0,
 1442031,-0.033447265625,-0.967041015625,-0.12060546875,-0.030487805604934692,0.3658536672592163,0.4573170840740204,6.75,-13.350000381469727,5.550000190734863,40.74421310424805,0,
 1442041,-0.0400390625,-0.965576171875,-0.12353515625,0.3048780560493469,0.12195122241973877,0.3658536672592163,6.0,-13.800000190734863,6.0,40.79213333129883,0,
 1442051,-0.03662109375,-0.969482421875,-0.124267578125,0.030487805604934692,0.060975611209869385,0.12195122241973877,6.300000190734863,-12.449999809265137,5.400000095367432,40.74421310424805,0,
 1442061,-0.033447265625,-0.97119140625,-0.1201171875,0.060975611209869385,0.3048780560493469,0.5182926654815674,5.400000095367432,-15.149999618530273,6.150000095367432,40.60044479370117,0,
 1442081,-0.03515625,-0.97021484375,-0.118896484375,-0.12195122241973877,0.24390244483947754,0.18292683362960815,7.050000190734863,-15.149999618530273,5.400000095367432,40.74421310424805,0,
 1442091,-0.033935546875,-0.973388671875,-0.114990234375,-0.3048780560493469,0.3048780560493469,0.5487805008888245,4.650000095367432,-14.399999618530273,6.150000095367432,40.9359016418457,0,
 1442101,-0.037109375,-0.971923828125,-0.125732421875,-0.3353658616542816,0.3658536672592163,0.5182926654815674,5.25,-14.550000190734863,5.550000190734863,41.0317497253418,0,
 1442111,-0.0361328125,-0.977294921875,-0.1171875,-0.4878048896789551,0.4878048896789551,0.3353658616542816,6.449999809265137,-13.050000190734863,6.0,40.60044479370117,0,
 1442121,-0.03857421875,-0.968505859375,-0.11767578125,-0.21341463923454285,0.4268292784690857,0.3353658616542816,6.449999809265137,-13.050000190734863,6.0,40.88798141479492,0,
 1442131,-0.035888671875,-0.969482421875,-0.12255859375,-0.7012194991111755,0.5487805008888245,0.15243902802467346,6.449999809265137,-13.050000190734863,6.75,40.74421310424805,0,
 1442141,-0.034912109375,-0.977294921875,-0.116943359375,-0.7621951103210449,0.3658536672592163,0.3353658616542816,5.849999904632568,-13.949999809265137,5.699999809265137,40.74421310424805,0,
 1442151,-0.03759765625,-0.97216796875,-0.11669921875,-1.0060975551605225,0.4268292784690857,0.3658536672592163,4.349999904632568,-14.399999618530273,5.699999809265137,40.88798141479492,0,
 1442161,-0.033935546875,-0.97265625,-0.120849609375,-0.8231707215309143,0.4573170840740204,0.12195122241973877,4.349999904632568,-14.399999618530273,5.699999809265137,40.79213333129883,0,
 1442171,-0.03564453125,-0.969970703125,-0.120849609375,-1.3109756708145142,0.21341463923454285,0.4268292784690857,7.199999809265137,-12.600000381469727,3.299999952316284,40.60044479370117,0,
 1442181,-0.03857421875,-0.97607421875,-0.12939453125,-1.0060975551605225,0.3658536672592163,0.396341472864151,5.699999809265137,-14.550000190734863,6.0,40.74421310424805,0,
 1442191,-0.03759765625,-0.977294921875,-0.12158203125,-1.0060975551605225,0.4878048896789551,0.396341472864151,5.400000095367432,-14.850000381469727,4.650000095367432,40.9359016418457,0,
 1442201,-0.031982421875,-0.9765625,-0.1220703125,-1.1585365533828735,0.5182926654815674,0.3658536672592163,5.400000095367432,-14.850000381469727,4.650000095367432,40.74421310424805,0,
 1442211,-0.034423828125,-0.971923828125,-0.1201171875,-0.6402438879013062,0.4268292784690857,0.3353658616542816,6.75,-14.25,5.25,40.88798141479492,0,
 1442221,-0.037109375,-0.97216796875,-0.1181640625,-0.8231707215309143,0.6097561120986938,0.3048780560493469,6.300000190734863,-12.449999809265137,6.150000095367432,40.79213333129883,0,
 1442231,-0.0361328125,-0.975341796875,-0.12353515625,-0.4573170840740204,0.3048780560493469,0.4573170840740204,5.699999809265137,-14.550000190734863,4.800000190734863,41.0317497253418,0,
 1442241,-0.032470703125,-0.971435546875,-0.122314453125,-0.6707317233085632,0.3048780560493469,0.24390244483947754,5.699999809265137,-14.550000190734863,4.800000190734863,40.74421310424805,0,
 1442251,-0.03759765625,-0.971923828125,-0.12744140625,-0.4878048896789551,0.5487805008888245,0.3353658616542816,5.099999904632568,-13.649999618530273,5.400000095367432,40.88798141479492,0,
 1442261,-0.033203125,-0.966064453125,-0.1220703125,-0.27439025044441223,0.6097561120986938,0.3658536672592163,6.300000190734863,-14.399999618530273,6.900000095367432,40.6962890625,0,
 1442281,-0.03662109375,-0.971435546875,-0.11669921875,-0.3353658616542816,0.3048780560493469,0.15243902802467346,5.699999809265137,-12.600000381469727,4.5,40.88798141479492,0,
 1442291,-0.033447265625,-0.970947265625,-0.123046875,0.060975611209869385,0.15243902802467346,0.18292683362960815,6.0,-14.550000190734863,6.75,40.60044479370117,0,
 1442302,-0.0341796875,-0.9716796875,-0.12353515625,-0.060975611209869385,0.09146341681480408,0.3658536672592163,6.599999904632568,-15.149999618530273,6.150000095367432,40.74421310424805,0,
 1442312,-0.037353515625,-0.96875,-0.11865234375,-0.030487805604934692,0.3658536672592163,0.24390244483947754,6.75,-15.0,6.0,40.74421310424805,0,
 1442322,-0.03857421875,-0.96875,-0.1240234375,-0.030487805604934692,0.4573170840740204,0.4268292784690857,6.75,-15.0,6.0,40.88798141479492,0,
 1442332,-0.036376953125,-0.9697265625,-0.119873046875,0.18292683362960815,0.4268292784690857,0.15243902802467346,6.300000190734863,-12.449999809265137,6.150000095367432,40.74421310424805,0,
 1442352,-0.0390625,-0.973876953125,-0.118896484375,-0.3353658616542816,0.3048780560493469,0.396341472864151,3.9000000953674316,-12.75,5.400000095367432,40.40875244140625,0,
 1442372,-0.031494140625,-0.965576171875,-0.121826171875,-0.3048780560493469,0.060975611209869385,0.24390244483947754,5.849999904632568,-14.850000381469727,5.699999809265137,40.88798141479492,0,
 1442382,-0.033935546875,-0.97900390625,-0.120361328125,-0.5182926654815674,0.3658536672592163,0.396341472864151,5.849999904632568,-13.649999618530273,5.400000095367432,40.88798141479492,0,
 1442392,-0.040283203125,-0.969482421875,-0.121337890625,-0.4878048896789551,0.5487805008888245,0.27439025044441223,5.400000095367432,-13.649999618530273,5.400000095367432,40.88798141479492,0,
 1442412,-0.0390625,-0.97900390625,-0.1201171875,-0.5792682766914368,0.3353658616542816,0.4878048896789551,5.849999904632568,-14.850000381469727,6.900000095367432,40.60044479370117,0,
 1442422,-0.034423828125,-0.97265625,-0.120849609375,-0.396341472864151,0.27439025044441223,0.18292683362960815,6.599999904632568,-14.399999618530273,6.150000095367432,40.74421310424805,0,
 1442432,-0.037109375,-0.969970703125,-0.119140625,-0.5182926654815674,0.15243902802467346,0.18292683362960815,7.349999904632568,-13.199999809265137,6.150000095367432,40.79213333129883,0,
 1442452,-0.034423828125,-0.9736328125,-0.12353515625,-0.3658536672592163,0.3353658616542816,0.21341463923454285,5.699999809265137,-15.0,6.0,40.6962890625,0,
 1442472,-0.032958984375,-0.96923828125,-0.119384765625,-0.5792682766914368,0.4878048896789551,0.5792682766914368,6.0,-14.550000190734863,6.0,40.60044479370117,0,
 1442482,-0.037841796875,-0.971923828125,-0.123291015625,-0.24390244483947754,0.27439025044441223,0.3048780560493469,4.949999809265137,-16.200000762939453,4.5,40.6962890625,0,
 1442492,-0.0380859375,-0.974853515625,-0.12158203125,-0.5792682766914368,0.24390244483947754,0.3658536672592163,4.949999809265137,-16.200000762939453,4.5,40.9359016418457,0,
 1442502,-0.035888671875,-0.9716796875,-0.12109375,-0.27439025044441223,0.4268292784690857,0.3048780560493469,6.449999809265137,-16.200000762939453,5.550000190734863,40.40875244140625,0,
 1442512,-0.034423828125,-0.969970703125,-0.123779296875,-0.6097561120986938,0.792682945728302,0.4573170840740204,4.650000095367432,-14.850000381469727,7.650000095367432,40.79213333129883,0,
 1442532,-0.03662109375,-0.970947265625,-0.1201171875,-0.27439025044441223,0.5487805008888245,0.5487805008888245,5.25,-14.550000190734863,6.0,40.6962890625,0,
 1442542,-0.04150390625,-0.972900390625,-0.12451171875,-0.09146341681480408,0.3658536672592163,0.21341463923454285,7.199999809265137,-13.350000381469727,5.550000190734863,40.9359016418457,0,
 1442582,-0.0380859375,-0.96533203125,-0.12353515625,-0.15243902802467346,0.396341472864151,0.4268292784690857,8.399999618530273,-11.850000381469727,4.050000190734863,40.79213333129883,0,
 1442592,-0.034912109375,-0.973388671875,-0.1201171875,-0.27439025044441223,0.396341472864151,0.5792682766914368,6.300000190734863,-12.449999809265137,7.650000095367432,40.60044479370117,0,
 1442602,-0.0419921875,-0.974609375,-0.123779296875,-0.5792682766914368,0.18292683362960815,0.3658536672592163,6.300000190734863,-13.649999618530273,7.199999809265137,40.60044479370117,0,
 1442662,-0.03466796875,-0.9716796875,-0.12158203125,-0.27439025044441223,0.4573170840740204,0.4268292784690857,7.349999904632568,-13.199999809265137,6.449999809265137,40.9359016418457,0,
 1442672,-0.032470703125,-0.974609375,-0.118896484375,-0.030487805604934692,0.3048780560493469,0.3048780560493469,6.449999809265137,-14.550000190734863,5.550000190734863,40.74421310424805,0,
 1442712,-0.03857421875,-0.97412109375,-0.123291015625,-0.5182926654815674,0.3048780560493469,0.24390244483947754,5.699999809265137,-14.25,5.25,40.79213333129883,0,
 1442722,-0.032958984375,-0.96923828125,-0.120361328125,-0.3353658616542816,0.21341463923454285,0.3658536672592163,5.099999904632568,-12.75,6.150000095367432,41.0317497253418,0,
 1442732,-0.039794921875,-0.9716796875,-0.12109375,-0.3658536672592163,0.6097561120986938,0.15243902802467346,6.300000190734863,-14.850000381469727,5.400000095367432,40.74421310424805,0,
 1442742,-0.0322265625,-0.968994140625,-0.117431640625,-0.4268292784690857,0.4878048896789551,0.18292683362960815,6.300000190734863,-14.850000381469727,5.400000095367432,40.9359016418457,0,
 1442752,-0.037841796875,-0.977783203125,-0.1220703125,-0.3048780560493469,0.3658536672592163,0.21341463923454285,5.25,-13.350000381469727,5.550000190734863,40.60044479370117,0,
 1442762,-0.035400390625,-0.970703125,-0.1201171875,-0.396341472864151,0.396341472864151,-0.12195122241973877,6.599999904632568,-12.75,6.900000095367432,40.50459671020508,0,
 1442772,-0.04296875,-0.97802734375,-0.12255859375,-0.5182926654815674,0.24390244483947754,0.3048780560493469,6.300000190734863,-13.949999809265137,6.150000095367432,40.74421310424805,0,
 1442822,-0.037109375,-0.973876953125,-0.11767578125,-0.6097561120986938,0.6402438879013062,0.18292683362960815,6.599999904632568,-13.949999809265137,6.150000095367432,40.9359016418457,0,
 1442832,-0.036376953125,-0.97021484375,-0.1201171875,-0.5792682766914368,0.3048780560493469,0.27439025044441223,5.25,-13.350000381469727,4.800000190734863,40.88798141479492,0,
 1442842,-0.035400390625,-0.976318359375,-0.120849609375,-0.6097561120986938,0.12195122241973877,0.12195122241973877,6.449999809265137,-12.149999618530273,5.550000190734863,40.552520751953125,0,
 1442852,-0.037109375,-0.969482421875,-0.123779296875,-0.3353658616542816,0.3048780560493469,0.060975611209869385,6.0,-14.25,5.25,40.79213333129883,0,
 1442862,-0.036865234375,-0.967529296875,-0.118896484375,-0.4268292784690857,0.396341472864151,0.18292683362960815,6.0,-14.25,5.25,40.74421310424805,0,
 1442872,-0.03076171875,-0.96728515625,-0.1220703125,0.15243902802467346,0.6097561120986938,0.5487805008888245,5.099999904632568,-14.399999618530273,6.150000095367432,40.6962890625,0,
 1442882,-0.037841796875,-0.96875,-0.119384765625,-0.27439025044441223,0.396341472864151,0.4268292784690857,7.050000190734863,-13.649999618530273,6.150000095367432,40.552520751953125,0,
 1442892,-0.0390625,-0.972412109375,-0.12109375,-0.030487805604934692,0.4878048896789551,0.3353658616542816,6.75,-16.200000762939453,3.0,40.60044479370117,0,
 1442902,-0.031005859375,-0.969970703125,-0.129150390625,-0.3048780560493469,0.4573170840740204,0.4268292784690857,6.75,-16.200000762939453,3.0,40.79213333129883,0,
 1442912,-0.037109375,-0.97412109375,-0.119384765625,-0.18292683362960815,0.4268292784690857,0.6097561120986938,5.699999809265137,-13.800000190734863,6.300000190734863,40.79213333129883,0,
 1442922,-0.03759765625,-0.978515625,-0.122314453125,-0.27439025044441223,0.5487805008888245,0.3353658616542816,5.25,-12.600000381469727,7.5,40.79213333129883,0,
 1442932,-0.0390625,-0.976806640625,-0.1259765625,-0.6707317233085632,0.3353658616542816,0.4878048896789551,5.699999809265137,-14.550000190734863,5.550000190734863,40.79213333129883,0,
 1442942,-0.0361328125,-0.974609375,-0.123046875,-0.7317073345184326,0.5182926654815674,0.4268292784690857,5.099999904632568,-13.949999809265137,5.400000095367432,40.79213333129883,0,
 1442952,-0.036376953125,-0.97216796875,-0.122314453125,-0.5182926654815674,0.3353658616542816,0.24390244483947754,5.099999904632568,-13.949999809265137,5.400000095367432,40.88798141479492,0,
 1442962,-0.0390625,-0.97607421875,-0.118408203125,-0.8536585569381714,0.3353658616542816,0.5182926654815674,5.400000095367432,-12.75,6.449999809265137,40.88798141479492,0,
 1442972,-0.040283203125,-0.97021484375,-0.118896484375,-0.6707317233085632,0.4268292784690857,0.4268292784690857,5.25,-13.800000190734863,6.0,40.74421310424805,0,
 1442982,-0.039794921875,-0.966064453125,-0.117919921875,-1.2195122241973877,0.4573170840740204,0.3658536672592163,6.449999809265137,-13.350000381469727,6.0,40.74421310424805,0,
 1442992,-0.0390625,-0.9775390625,-0.12353515625,-1.1890244483947754,0.18292683362960815,0.3353658616542816,6.449999809265137,-13.350000381469727,6.0,40.40875244140625,0,
 1443002,-0.0419921875,-0.97314453125,-0.122802734375,-0.8231707215309143,0.4878048896789551,-0.060975611209869385,4.199999809265137,-13.800000190734863,5.25,40.74421310424805,0,
 1443012,-0.0341796875,-0.9677734375,-0.120361328125,-0.7012194991111755,0.5487805008888245,0.15243902802467346,7.949999809265137,-13.350000381469727,6.0,40.9359016418457,0,
 1443022,-0.0361328125,-0.97119140625,-0.117919921875,-0.792682945728302,0.27439025044441223,0.21341463923454285,6.0,-13.800000190734863,5.550000190734863,40.79213333129883,0,
 1443032,-0.031494140625,-0.978759765625,-0.124267578125,-0.9756097793579102,0.4268292784690857,0.3658536672592163,6.0,-13.800000190734863,5.550000190734863,40.74421310424805,0,
 1443042,-0.041259765625,-0.97216796875,-0.12646484375,-0.7621951103210449,0.3048780560493469,0.6097561120986938,7.349999904632568,-13.949999809265137,7.650000095367432,40.9359016418457,0,
 1443052,-0.028076171875,-0.972412109375,-0.1181640625,-0.5182926654815674,0.3353658616542816,0.18292683362960815,6.0,-13.350000381469727,6.75,40.6962890625,0,
 1443062,-0.035888671875,-0.9658203125,-0.11767578125,-0.9451219439506531,0.4878048896789551,0.4268292784690857,4.650000095367432,-15.899999618530273,7.199999809265137,40.60044479370117,0,
 1443072,-0.033447265625,-0.973388671875,-0.125244140625,-1.1890244483947754,0.3048780560493469,0.09146341681480408,4.650000095367432,-15.899999618530273,7.199999809265137,40.9359016418457,0,
 1443082,-0.036376953125,-0.968994140625,-0.12255859375,-0.6097561120986938,0.4268292784690857,0.3658536672592163,6.300000190734863,-14.850000381469727,5.699999809265137,40.79213333129883,0,
 1443092,-0.035400390625,-0.96875,-0.123046875,-0.3048780560493469,0.27439025044441223,0.4268292784690857,6.75,-11.850000381469727,3.75,40.60044479370117,0,
 1443102,-0.037841796875,-0.974365234375,-0.119140625,-0.060975611209869385,0.396341472864151,0.5792682766914368,6.599999904632568,-13.949999809265137,6.150000095367432,40.79213333129883,0,
 1443113,-0.034423828125,-0.97314453125,-0.12060546875,0.0,0.15243902802467346,0.09146341681480408,6.599999904632568,-13.949999809265137,6.150000095367432,40.60044479370117,0,
 1443123,-0.0361328125,-0.97216796875,-0.119384765625,0.060975611209869385,0.09146341681480408,0.4268292784690857,6.75,-14.25,6.300000190734863,40.60044479370117,0,
 1443133,-0.03369140625,-0.969482421875,-0.1220703125,-0.060975611209869385,0.12195122241973877,0.27439025044441223,6.75,-13.350000381469727,5.25,40.79213333129883,0,
 1443143,-0.032470703125,-0.97412109375,-0.121337890625,-0.030487805604934692,0.3353658616542816,0.0,6.599999904632568,-14.399999618530273,7.949999809265137,40.9359016418457,0,
 1443153,-0.0361328125,-0.974853515625,-0.12255859375,-0.3353658616542816,0.3353658616542816,0.5487805008888245,6.599999904632568,-14.399999618530273,7.949999809265137,40.88798141479492,0,
 1443163,-0.038818359375,-0.96923828125,-0.115966796875,-0.5182926654815674,0.5487805008888245,0.15243902802467346,4.5,-14.25,6.75,40.79213333129883,0,
 1443173,-0.0390625,-0.9716796875,-0.125244140625,-0.4878048896789551,0.24390244483947754,0.7317073345184326,6.300000190734863,-13.199999809265137,4.650000095367432,40.79213333129883,0,
 1443183,-0.035888671875,-0.9677734375,-0.12353515625,-0.5487805008888245,0.4268292784690857,0.27439025044441223,5.400000095367432,-14.399999618530273,6.900000095367432,40.79213333129883,0,
 1443193,-0.03955078125,-0.97216796875,-0.122802734375,-0.09146341681480408,0.09146341681480408,0.27439025044441223,4.349999904632568,-13.199999809265137,5.699999809265137,41.0317497253418,0,
 1443203,-0.036376953125,-0.971435546875,-0.12451171875,-0.5487805008888245,0.18292683362960815,0.3658536672592163,5.849999904632568,-13.649999618530273,5.699999809265137,40.6962890625,0,
 1443213,-0.03955078125,-0.968505859375,-0.12353515625,-0.21341463923454285,0.3048780560493469,0.3658536672592163,6.449999809265137,-13.800000190734863,6.75,40.88798141479492,0,
 1443223,-0.035400390625,-0.973388671875,-0.123779296875,-0.27439025044441223,0.5182926654815674,0.27439025044441223,5.099999904632568,-13.649999618530273,6.150000095367432,40.6962890625,0,
 1443233,-0.03564453125,-0.972900390625,-0.120849609375,-0.27439025044441223,0.3353658616542816,0.4573170840740204,5.699999809265137,-13.800000190734863,6.75,40.40875244140625,0,
 1443243,-0.034423828125,-0.972412109375,-0.119873046875,-0.27439025044441223,0.15243902802467346,0.3658536672592163,5.699999809265137,-13.800000190734863,6.75,40.6962890625,0,
 1443253,-0.036865234375,-0.970458984375,-0.12255859375,-0.09146341681480408,0.3048780560493469,0.060975611209869385,5.25,-14.25,6.300000190734863,40.60044479370117,0,
 1443263,-0.038330078125,-0.971923828125,-0.125,-0.5792682766914368,0.24390244483947754,-0.09146341681480408,5.849999904632568,-13.199999809265137,6.900000095367432,40.79213333129883,0,
 1443273,-0.036865234375,-0.970947265625,-0.121826171875,-0.030487805604934692,0.5792682766914368,0.4878048896789551,4.949999809265137,-15.0,6.0,41.0317497253418,0,
 1443283,-0.034912109375,-0.97412109375,-0.1142578125,-0.18292683362960815,0.4268292784690857,0.396341472864151,4.949999809265137,-15.0,6.0,40.74421310424805,0,
 1443293,-0.03466796875,-0.97802734375,-0.12158203125,-0.396341472864151,0.5182926654815674,0.5182926654815674,6.300000190734863,-13.649999618530273,6.449999809265137,40.79213333129883,0,
 1443303,-0.041748046875,-0.97021484375,-0.121826171875,-0.5792682766914368,0.27439025044441223,0.18292683362960815,6.599999904632568,-14.850000381469727,3.450000047683716,40.88798141479492,0,
 1443313,-0.041259765625,-0.971435546875,-0.12353515625,-0.4878048896789551,0.4268292784690857,0.27439025044441223,5.099999904632568,-13.949999809265137,4.949999809265137,40.6962890625,0,
 1443323,-0.034423828125,-0.973388671875,-0.1171875,-0.4878048896789551,0.396341472864151,0.18292683362960815,5.099999904632568,-13.949999809265137,4.949999809265137,40.79213333129883,0,
 1443333,-0.03369140625,-0.972412109375,-0.11962890625,-0.27439025044441223,0.4573170840740204,0.4573170840740204,4.349999904632568,-14.399999618530273,5.400000095367432,40.6962890625,0,
 1443343,-0.036865234375,-0.976318359375,-0.118896484375,-0.12195122241973877,0.3048780560493469,0.4268292784690857,4.5,-14.25,5.25,40.79213333129883,0,
 1443353,-0.04638671875,-0.96875,-0.12255859375,-0.3353658616542816,0.24390244483947754,0.3353658616542816,5.699999809265137,-15.75,4.5,40.9359016418457,0,
 1443363,-0.03759765625,-0.974365234375,-0.12353515625,-0.3048780560493469,0.7621951103210449,0.3658536672592163,5.699999809265137,-15.75,4.5,40.88798141479492,0,
 1443373,-0.038330078125,-0.972412109375,-0.12353515625,-0.09146341681480408,0.18292683362960815,0.3048780560493469,6.0,-14.25,6.300000190734863,40.79213333129883,0,
 1443383,-0.039794921875,-0.970458984375,-0.121826171875,-0.27439025044441223,0.15243902802467346,0.18292683362960815,5.849999904632568,-13.949999809265137,3.9000000953674316,40.60044479370117,0,
 1443393,-0.03173828125,-0.973876953125,-0.123291015625,-0.21341463923454285,0.27439025044441223,0.09146341681480408,5.699999809265137,-13.050000190734863,6.300000190734863,40.9359016418457,0,
 1443403,-0.0400390625,-0.970703125,-0.121337890625,0.09146341681480408,0.3353658616542816,0.3658536672592163,5.699999809265137,-13.050000190734863,6.300000190734863,40.74421310424805,0,
 1443413,-0.032958984375,-0.979736328125,-0.1220703125,-0.396341472864151,0.15243902802467346,0.15243902802467346,5.699999809265137,-15.0,6.0,40.79213333129883,0,
 1443423,-0.0390625,-0.979248046875,-0.117919921875,-0.6097561120986938,0.3658536672592163,0.3353658616542816,6.300000190734863,-13.649999618530273,6.900000095367432,41.07966995239258,0,
 1443433,-0.031494140625,-0.97314453125,-0.116943359375,-0.4573170840740204,0.21341463923454285,0.24390244483947754,6.75,-14.550000190734863,7.050000190734863,40.60044479370117,0,
 1443443,-0.031005859375,-0.9755859375,-0.123291015625,-0.24390244483947754,0.24390244483947754,0.3353658616542816,6.75,-14.550000190734863,7.050000190734863,40.74421310424805,0,
 1443453,-0.03125,-0.96630859375,-0.11962890625,-0.3048780560493469,0.4573170840740204,0.24390244483947754,6.0,-12.600000381469727,4.5,40.79213333129883,0,
 1443463,-0.0341796875,-0.975341796875,-0.11865234375,-0.5487805008888245,0.24390244483947754,0.4268292784690857,7.050000190734863,-13.949999809265137,4.949999809265137,40.74421310424805,0,
 1443473,-0.03564453125,-0.977294921875,-0.11962890625,-0.7317073345184326,0.4573170840740204,0.5792682766914368,6.0,-14.550000190734863,6.300000190734863,40.74421310424805,0,
 1443483,-0.03759765625,-0.9716796875,-0.121337890625,-0.5182926654815674,0.5487805008888245,0.4573170840740204,5.699999809265137,-13.050000190734863,4.800000190734863,40.6962890625,0,
 1443493,-0.035400390625,-0.969970703125,-0.119140625,-0.7012194991111755,0.3353658616542816,0.3353658616542816,5.400000095367432,-13.949999809265137,5.400000095367432,40.74421310424805,0,
 1443503,-0.03759765625,-0.974609375,-0.12158203125,-0.4268292784690857,0.24390244483947754,0.060975611209869385,7.349999904632568,-13.949999809265137,3.9000000953674316,40.6962890625,0,
 1443513,-0.035888671875,-0.97314453125,-0.12060546875,-0.3658536672592163,0.6402438879013062,0.24390244483947754,6.0,-14.25,5.550000190734863,41.0317497253418,0,
 1443533,-0.033203125,-0.972900390625,-0.121337890625,-0.4573170840740204,0.18292683362960815,0.24390244483947754,7.349999904632568,-12.449999809265137,4.949999809265137,40.50459671020508,0,
 1443543,-0.03515625,-0.9697265625,-0.122802734375,-0.21341463923454285,0.4268292784690857,0.4878048896789551,5.699999809265137,-13.800000190734863,4.800000190734863,40.79213333129883,0,
 1443553,-0.036376953125,-0.972900390625,-0.116455078125,-0.18292683362960815,0.09146341681480408,0.3353658616542816,5.400000095367432,-14.850000381469727,5.400000095367432,40.74421310424805,0,
 1443563,-0.03564453125,-0.9697265625,-0.1181640625,-0.18292683362960815,0.24390244483947754,0.6402438879013062,7.050000190734863,-14.850000381469727,5.400000095367432,40.79213333129883,0,
 1443573,-0.036376953125,-0.97265625,-0.121337890625,-0.27439025044441223,0.27439025044441223,0.24390244483947754,7.050000190734863,-14.850000381469727,5.400000095367432,40.88798141479492,0,
 1443583,-0.03955078125,-0.970458984375,-0.11865234375,-0.396341472864151,0.3353658616542816,0.12195122241973877,5.849999904632568,-13.199999809265137,4.949999809265137,40.79213333129883,0,
 1443593,-0.0380859375,-0.971435546875,-0.118896484375,-0.6097561120986938,0.3353658616542816,0.3658536672592163,6.599999904632568,-13.649999618530273,4.949999809265137,40.9359016418457,0,
 1443603,-0.036376953125,-0.97119140625,-0.1201171875,-0.396341472864151,0.4268292784690857,0.4878048896789551,5.849999904632568,-12.0,3.450000047683716,40.79213333129883,0,
 1443613,-0.04052734375,-0.9658203125,-0.123291015625,-0.3353658616542816,0.4878048896789551,0.3048780560493469,5.849999904632568,-12.0,3.450000047683716,40.6962890625,0,
 1443633,-0.039306640625,-0.9716796875,-0.122314453125,-0.3048780560493469,0.6402438879013062,0.24390244483947754,5.699999809265137,-15.75,4.800000190734863,40.74421310424805,0,
 1443643,-0.033203125,-0.97265625,-0.118896484375,-0.5182926654815674,0.3048780560493469,0.4268292784690857,6.599999904632568,-12.449999809265137,7.650000095367432,40.9359016418457,0,
 1443653,-0.033203125,-0.971435546875,-0.11962890625,-0.24390244483947754,0.27439025044441223,0.4268292784690857,6.599999904632568,-12.449999809265137,7.650000095367432,40.9359016418457,0,
 1443663,-0.0390625,-0.972900390625,-0.124755859375,-0.3353658616542816,0.3353658616542816,0.24390244483947754,7.5,-13.800000190734863,5.550000190734863,40.79213333129883,0,
 1443673,-0.03271484375,-0.9736328125,-0.121826171875,-0.27439025044441223,0.4878048896789551,0.18292683362960815,7.050000190734863,-13.649999618530273,7.199999809265137,40.60044479370117,0,
 1443683,-0.037353515625,-0.976806640625,-0.115478515625,-0.3353658616542816,0.396341472864151,0.3353658616542816,6.599999904632568,-12.449999809265137,4.199999809265137,40.74421310424805,0,
 1443693,-0.038330078125,-0.96826171875,-0.12060546875,-0.6097561120986938,0.3353658616542816,0.18292683362960815,6.599999904632568,-12.449999809265137,4.199999809265137,40.79213333129883,0,
 1443703,-0.0380859375,-0.96875,-0.1220703125,-0.6097561120986938,0.4268292784690857,0.4573170840740204,6.0,-12.600000381469727,6.0,40.74421310424805,0,
 1443713,-0.033935546875,-0.967041015625,-0.119873046875,-0.12195122241973877,0.5182926654815674,0.3353658616542816,6.0,-13.800000190734863,5.25,40.88798141479492,0,
 1443723,-0.0322265625,-0.9736328125,-0.12060546875,-0.12195122241973877,0.15243902802467346,0.396341472864151,4.5,-15.300000190734863,6.0,40.74421310424805,0,
 1443733,-0.03369140625,-0.968994140625,-0.119384765625,-0.4878048896789551,0.5792682766914368,0.4573170840740204,4.5,-15.300000190734863,6.0,40.74421310424805,0,
 1443743,-0.028564453125,-0.975830078125,-0.1220703125,-0.27439025044441223,0.24390244483947754,0.3658536672592163,6.449999809265137,-13.350000381469727,6.300000190734863,40.88798141479492,0,
 1443753,-0.033935546875,-0.971923828125,-0.119384765625,-0.5792682766914368,0.4573170840740204,0.3658536672592163,6.75,-14.25,4.800000190734863,40.79213333129883,0,
 1443763,-0.03466796875,-0.970703125,-0.12451171875,-0.27439025044441223,0.4573170840740204,0.3353658616542816,4.949999809265137,-13.350000381469727,5.25,40.74421310424805,0,
 1443773,-0.038818359375,-0.97509765625,-0.123046875,-0.4878048896789551,0.3658536672592163,0.27439025044441223,6.300000190734863,-12.0,5.400000095367432,40.60044479370117,0,
 1443783,-0.038818359375,-0.974853515625,-0.122314453125,-0.6707317233085632,0.396341472864151,-0.060975611209869385,6.75,-13.800000190734863,4.050000190734863,40.79213333129883,0,
 1443793,-0.037841796875,-0.96630859375,-0.118408203125,-1.0365853309631348,0.6402438879013062,0.24390244483947754,6.0,-13.350000381469727,5.25,40.79213333129883,0,
 1443803,-0.035400390625,-0.97509765625,-0.122314453125,-0.6402438879013062,0.396341472864151,0.09146341681480408,5.699999809265137,-13.800000190734863,7.5,40.74421310424805,0,
 1443813,-0.037841796875,-0.974609375,-0.118408203125,-0.27439025044441223,0.5792682766914368,0.09146341681480408,5.849999904632568,-14.399999618530273,1.9500000476837158,40.88798141479492,0,
 1443823,-0.041748046875,-0.972412109375,-0.124755859375,-0.4268292784690857,0.4878048896789551,-0.3048780560493469,5.849999904632568,-14.399999618530273,1.9500000476837158,40.50459671020508,0,
 1443833,-0.033447265625,-0.958740234375,-0.122802734375,0.030487805604934692,0.3048780560493469,-0.060975611209869385,5.400000095367432,-13.949999809265137,4.199999809265137,40.60044479370117,0,
 1443843,-0.03662109375,-0.9619140625,-0.12841796875,0.7317073345184326,0.396341472864151,-0.3658536672592163,6.0,-13.350000381469727,3.299999952316284,40.79213333129883,0,
 1443853,-0.034912109375,-0.96533203125,-0.124267578125,1.25,0.0,-0.18292683362960815,7.5,-14.550000190734863,6.300000190734863,40.74421310424805,0,
 1443863,-0.03662109375,-0.981689453125,-0.1181640625,1.920731782913208,0.0,-0.396341472864151,7.5,-14.550000190734863,6.300000190734863,40.88798141479492,0,
 1443873,-0.029052734375,-0.980224609375,-0.115478515625,1.25,0.18292683362960815,-0.4573170840740204,5.25,-13.350000381469727,5.25,40.74421310424805,0,
 1443884,-0.033203125,-0.973388671875,-0.119384765625,0.6707317233085632,0.5792682766914368,0.0,6.449999809265137,-15.300000190734863,4.800000190734863,40.79213333129883,0,
 1443894,-0.034912109375,-0.9736328125,-0.119384765625,0.396341472864151,0.4268292784690857,0.09146341681480408,5.699999809265137,-14.550000190734863,6.0,40.79213333129883,0,
 1443904,-0.03271484375,-0.978271484375,-0.123046875,0.12195122241973877,0.4268292784690857,0.27439025044441223,5.699999809265137,-14.550000190734863,6.0,40.9359016418457,0,
 1443914,-0.032470703125,-0.9794921875,-0.11865234375,0.396341472864151,0.6097561120986938,0.6402438879013062,7.800000190734863,-13.949999809265137,1.9500000476837158,40.40875244140625,0,
 1443924,-0.033935546875,-0.975830078125,-0.1201171875,0.030487805604934692,0.6707317233085632,0.8536585569381714,6.599999904632568,-14.850000381469727,5.699999809265137,40.552520751953125,0,
 1443934,-0.035888671875,-0.97265625,-0.11767578125,-0.4573170840740204,0.21341463923454285,0.9451219439506531,5.699999809265137,-12.600000381469727,6.75,40.9359016418457,0,
 1443944,-0.0361328125,-0.9755859375,-0.114501953125,-0.7317073345184326,0.5182926654815674,1.2195122241973877,5.699999809265137,-12.600000381469727,6.75,40.74421310424805,0,
 1443954,-0.041259765625,-0.976806640625,-0.119873046875,-0.792682945728302,0.7317073345184326,0.7317073345184326,6.449999809265137,-13.350000381469727,6.300000190734863,40.74421310424805,0,
 1443964,-0.041259765625,-0.97412109375,-0.116943359375,-0.9146341681480408,0.6707317233085632,0.6097561120986938,7.050000190734863,-13.649999618530273,5.699999809265137,40.74421310424805,0,
 1443974,-0.032470703125,-0.97216796875,-0.119384765625,-1.25,0.7012194991111755,0.6707317233085632,4.949999809265137,-14.550000190734863,5.550000190734863,40.50459671020508,0,
 1443984,-0.03564453125,-0.9697265625,-0.12548828125,-1.0670732259750366,0.8231707215309143,0.4268292784690857,4.949999809265137,-14.550000190734863,5.550000190734863,40.9359016418457,0,
 1443994,-0.03271484375,-0.97314453125,-0.1181640625,-0.9451219439506531,0.5792682766914368,0.3353658616542816,5.849999904632568,-13.649999618530273,5.699999809265137,40.88798141479492,0,
 1444004,-0.034423828125,-0.968017578125,-0.12255859375,-0.8536585569381714,0.5487805008888245,0.27439025044441223,7.199999809265137,-12.600000381469727,6.75,40.60044479370117,0,
 1444014,-0.03515625,-0.973388671875,-0.1162109375,-0.8231707215309143,0.5182926654815674,0.5792682766914368,5.849999904632568,-11.550000190734863,3.1500000953674316,41.0317497253418,0,
 1444024,-0.03515625,-0.97509765625,-0.120849609375,-1.4939024448394775,0.396341472864151,0.0,5.849999904632568,-11.550000190734863,3.1500000953674316,40.552520751953125,0,
 1444034,-0.033203125,-0.977294921875,-0.118896484375,-1.6768293380737305,0.5182926654815674,0.09146341681480408,5.699999809265137,-13.350000381469727,6.0,40.6962890625,0,
 1444044,-0.0361328125,-0.972412109375,-0.12451171875,-1.5548781156539917,0.6097561120986938,0.060975611209869385,5.699999809265137,-14.25,7.5,40.6962890625,0,
 1444054,-0.0322265625,-0.97265625,-0.12109375,-1.737804889678955,0.4268292784690857,0.3658536672592163,6.0,-13.350000381469727,6.300000190734863,40.74421310424805,0,
 1444064,-0.037841796875,-0.974365234375,-0.12158203125,-1.6158536672592163,0.7317073345184326,0.27439025044441223,6.0,-13.350000381469727,6.300000190734863,41.0317497253418,0,
 1444074,-0.035400390625,-0.968017578125,-0.12353515625,-0.8536585569381714,0.7012194991111755,0.4878048896789551,4.5,-13.050000190734863,7.050000190734863,40.60044479370117,0,
 1444084,-0.034423828125,-0.97119140625,-0.127685546875,-0.6402438879013062,0.4268292784690857,0.4573170840740204,5.400000095367432,-15.899999618530273,5.400000095367432,40.74421310424805,0,
 1444094,-0.039306640625,-0.97119140625,-0.1240234375,-0.396341472864151,0.4268292784690857,0.27439025044441223,6.599999904632568,-12.75,6.150000095367432,40.74421310424805,0,
 1444104,-0.03662109375,-0.969970703125,-0.121826171875,0.21341463923454285,0.5487805008888245,-0.030487805604934692,7.050000190734863,-14.399999618530273,4.949999809265137,40.88798141479492,0,
 1444114,-0.036376953125,-0.97412109375,-0.120849609375,0.27439025044441223,0.3658536672592163,0.6707317233085632,5.699999809265137,-13.350000381469727,4.5,40.50459671020508,0,
 1444124,-0.033935546875,-0.96923828125,-0.117919921875,0.12195122241973877,0.3353658616542816,0.24390244483947754,6.449999809265137,-14.550000190734863,4.800000190734863,41.0317497253418,0,
 1444134,-0.0380859375,-0.96875,-0.120361328125,0.3353658616542816,0.4573170840740204,0.5182926654815674,7.349999904632568,-12.75,5.699999809265137,40.74421310424805,0,
 1444144,-0.033935546875,-0.971923828125,-0.126708984375,0.4573170840740204,0.15243902802467346,0.6097561120986938,5.849999904632568,-14.399999618530273,6.449999809265137,40.74421310424805,0,
 1444154,-0.034423828125,-0.97412109375,-0.121337890625,0.5487805008888245,0.24390244483947754,0.7317073345184326,5.849999904632568,-14.399999618530273,6.449999809265137,40.74421310424805,0,
 1444164,-0.03662109375,-0.975830078125,-0.117431640625,0.7012194991111755,0.3658536672592163,0.7621951103210449,4.199999809265137,-15.0,6.0,40.60044479370117,0,
 1444174,-0.03173828125,-0.974609375,-0.117919921875,1.0365853309631348,0.21341463923454285,0.3048780560493469,6.599999904632568,-12.75,5.699999809265137,40.9359016418457,0,
 1444184,-0.0341796875,-0.9716796875,-0.12255859375,1.1280487775802612,0.27439025044441223,0.4268292784690857,7.5,-13.350000381469727,5.550000190734863,40.74421310424805,0,
 1444194,-0.0361328125,-0.968505859375,-0.116943359375,0.9756097793579102,0.09146341681480408,0.396341472864151,7.5,-13.350000381469727,5.550000190734863,40.88798141479492,0,
 1444204,-0.03564453125,-0.97216796875,-0.1181640625,0.9451219439506531,0.030487805604934692,0.5792682766914368,6.75,-13.350000381469727,5.550000190734863,40.79213333129883,0,
 1444214,-0.038818359375,-0.9697265625,-0.119140625,0.9146341681480408,0.24390244483947754,0.4573170840740204,6.0,-13.050000190734863,6.300000190734863,40.6962890625,0,
 1444224,-0.03125,-0.973876953125,-0.12109375,0.8841463327407837,0.3353658616542816,0.5182926654815674,8.399999618530273,-14.550000190734863,4.050000190734863,40.9359016418457,0,
 1444234,-0.0400390625,-0.976806640625,-0.115478515625,0.7012194991111755,0.15243902802467346,0.396341472864151,8.399999618530273,-14.550000190734863,4.050000190734863,40.74421310424805,0,
 1444244,-0.033447265625,-0.970458984375,-0.116455078125,0.9451219439506531,0.24390244483947754,0.3658536672592163,6.599999904632568,-12.0,5.400000095367432,40.79213333129883,0,
 1444254,-0.03759765625,-0.971435546875,-0.11962890625,0.9756097793579102,0.09146341681480408,0.4573170840740204,6.599999904632568,-11.550000190734863,3.9000000953674316,40.74421310424805,0,
 1444264,-0.031005859375,-0.97509765625,-0.115478515625,0.4878048896789551,0.0,0.5182926654815674,6.599999904632568,-14.850000381469727,4.949999809265137,40.60044479370117,0,
 1444274,-0.03857421875,-0.98046875,-0.1123046875,0.9146341681480408,0.12195122241973877,0.3353658616542816,6.599999904632568,-14.850000381469727,4.949999809265137,40.74421310424805,0,
 1444284,-0.034423828125,-0.9765625,-0.114990234375,0.21341463923454285,0.18292683362960815,0.24390244483947754,6.599999904632568,-14.850000381469727,5.400000095367432,40.88798141479492,0,
 1444294,-0.037841796875,-0.972412109375,-0.11767578125,0.15243902802467346,0.27439025044441223,0.3658536672592163,7.050000190734863,-14.399999618530273,6.150000095367432,40.79213333129883,0,
 1444304,-0.035888671875,-0.974853515625,-0.11669921875,-0.15243902802467346,0.4268292784690857,0.5182926654815674,3.9000000953674316,-14.850000381469727,5.400000095367432,41.0317497253418,0,
 1444314,-0.037109375,-0.97314453125,-0.12158203125,-0.24390244483947754,0.396341472864151,0.24390244483947754,3.9000000953674316,-14.850000381469727,5.400000095367432,40.74421310424805,0,
 1444324,-0.0341796875,-0.974609375,-0.116943359375,-0.030487805604934692,0.3353658616542816,0.12195122241973877,4.949999809265137,-15.300000190734863,4.5,40.74421310424805,0,
 1444334,-0.045654296875,-0.97509765625,-0.11572265625,0.12195122241973877,0.4268292784690857,0.060975611209869385,5.849999904632568,-15.899999618530273,5.699999809265137,40.79213333129883,0,
 1444354,-0.04052734375,-0.972412109375,-0.112060546875,-0.4573170840740204,0.21341463923454285,0.0,6.75,-13.800000190734863,7.050000190734863,40.74421310424805,0,
 1444364,-0.03955078125,-0.972412109375,-0.117431640625,-0.6097561120986938,0.5182926654815674,0.24390244483947754,6.599999904632568,-14.850000381469727,5.699999809265137,40.60044479370117,0,
 1444374,-0.041015625,-0.9697265625,-0.1181640625,-0.8841463327407837,0.18292683362960815,0.396341472864151,6.300000190734863,-14.850000381469727,5.400000095367432,40.74421310424805,0,
 1444394,-0.03369140625,-0.971435546875,-0.115234375,-0.8536585569381714,0.4268292784690857,0.5792682766914368,6.300000190734863,-14.399999618530273,4.650000095367432,40.9359016418457,0,
 1444404,-0.040283203125,-0.970947265625,-0.117919921875,-0.4878048896789551,0.27439025044441223,0.3048780560493469,4.949999809265137,-14.25,6.300000190734863,40.79213333129883,0,
 1444414,-0.038330078125,-0.97314453125,-0.1162109375,-0.6402438879013062,0.24390244483947754,0.24390244483947754,7.349999904632568,-13.649999618530273,6.900000095367432,40.74421310424805,0,
 1444424,-0.031005859375,-0.976318359375,-0.1171875,-0.8536585569381714,0.3353658616542816,0.3658536672592163,7.949999809265137,-13.050000190734863,4.050000190734863,40.79213333129883,0,
 1444434,-0.0400390625,-0.97412109375,-0.111572265625,-0.3658536672592163,0.18292683362960815,0.4573170840740204,6.0,-13.800000190734863,6.0,40.9359016418457,0,
 1444454,-0.0322265625,-0.973388671875,-0.1171875,-0.792682945728302,0.396341472864151,0.4878048896789551,6.300000190734863,-13.949999809265137,4.199999809265137,40.60044479370117,0,
 1444464,-0.03564453125,-0.97314453125,-0.118408203125,-0.7012194991111755,0.5487805008888245,0.5182926654815674,6.75,-13.800000190734863,6.0,40.88798141479492,0,
 1444474,-0.03564453125,-0.97412109375,-0.11279296875,-0.396341472864151,0.5487805008888245,0.3048780560493469,7.800000190734863,-14.399999618530273,5.400000095367432,40.9359016418457,0,
 1444484,-0.031982421875,-0.97900390625,-0.11474609375,-0.6707317233085632,0.3658536672592163,0.3048780560493469,7.800000190734863,-14.399999618530273,5.400000095367432,40.79213333129883,0,
 1444494,-0.035400390625,-0.976806640625,-0.1181640625,-0.6402438879013062,0.3353658616542816,0.18292683362960815,6.75,-13.800000190734863,5.550000190734863,40.6962890625,0,
 1444504,-0.032470703125,-0.973388671875,-0.119384765625,-1.2195122241973877,0.5487805008888245,-0.12195122241973877,5.849999904632568,-14.850000381469727,4.650000095367432,40.60044479370117,0,
 1444514,-0.03662109375,-0.96923828125,-0.12060546875,-0.8841463327407837,0.4878048896789551,0.3048780560493469,5.400000095367432,-13.649999618530273,4.949999809265137,40.60044479370117,0,
 1444524,-0.035400390625,-0.970947265625,-0.114013671875,-1.1585365533828735,0.3353658616542816,-0.030487805604934692,5.400000095367432,-13.649999618530273,4.949999809265137,40.9359016418457,0,
 1444534,-0.03369140625,-0.975830078125,-0.116455078125,-1.1585365533828735,0.3658536672592163,0.18292683362960815,6.449999809265137,-14.25,5.25,40.74421310424805,0,
 1444544,-0.037841796875,-0.9716796875,-0.123046875,-1.1585365533828735,0.4878048896789551,0.18292683362960815,5.099999904632568,-13.949999809265137,6.150000095367432,40.60044479370117,0,
 1444554,-0.03076171875,-0.971923828125,-0.119384765625,-0.4268292784690857,0.4268292784690857,0.18292683362960815,6.449999809265137,-14.25,6.300000190734863,40.60044479370117,0,
 1444564,-0.03662109375,-0.97998046875,-0.114990234375,-1.3109756708145142,0.3353658616542816,0.24390244483947754,6.449999809265137,-14.25,6.300000190734863,41.0317497253418,0,
 1444574,-0.0390625,-0.96826171875,-0.1162109375,-1.097561001777649,0.4573170840740204,0.4268292784690857,7.199999809265137,-12.149999618530273,6.0,40.88798141479492,0,
 1444584,-0.03515625,-0.970703125,-0.11474609375,-0.9451219439506531,0.3658536672592163,0.5487805008888245,6.599999904632568,-13.649999618530273,6.150000095367432,40.74421310424805,0,
 1444594,-0.033203125,-0.965087890625,-0.114501953125,-0.6097561120986938,0.6402438879013062,0.4878048896789551,5.849999904632568,-15.600000381469727,4.949999809265137,40.74421310424805,0,
 1444604,-0.036865234375,-0.970458984375,-0.122314453125,-0.7621951103210449,0.4878048896789551,0.3048780560493469,5.849999904632568,-15.600000381469727,4.949999809265137,40.552520751953125,0,
 1444615,-0.036376953125,-0.97509765625,-0.11767578125,-0.7317073345184326,0.4573170840740204,0.27439025044441223,5.849999904632568,-13.199999809265137,5.400000095367432,40.79213333129883,0,
 1444625,-0.038330078125,-0.971923828125,-0.117919921875,-0.8841463327407837,0.4268292784690857,0.4878048896789551,7.050000190734863,-13.199999809265137,4.650000095367432,40.74421310424805,0,
 1444635,-0.033447265625,-0.9736328125,-0.1181640625,-0.8231707215309143,0.6097561120986938,0.5487805008888245,5.699999809265137,-15.0,6.300000190734863,40.9359016418457,0,
 1444645,-0.033447265625,-0.97119140625,-0.112548828125,-0.5487805008888245,0.18292683362960815,0.0,5.699999809265137,-15.0,6.300000190734863,40.79213333129883,0,
 1444655,-0.036865234375,-0.971923828125,-0.1181640625,-0.792682945728302,0.5182926654815674,0.3658536672592163,5.849999904632568,-13.199999809265137,6.150000095367432,40.74421310424805,0,
 1444665,-0.0361328125,-0.975830078125,-0.1201171875,-0.5487805008888245,0.3048780560493469,0.18292683362960815,6.0,-15.75,6.0,40.79213333129883,0,
 1444675,-0.0400390625,-0.9677734375,-0.1201171875,-0.7012194991111755,0.6402438879013062,0.6097561120986938,6.449999809265137,-12.600000381469727,4.5,40.6962890625,0,
 1444685,-0.037841796875,-0.970458984375,-0.11962890625,-0.8536585569381714,0.3658536672592163,0.3353658616542816,7.050000190734863,-14.399999618530273,5.699999809265137,40.9359016418457,0,
 1444695,-0.038818359375,-0.968017578125,-0.119384765625,-0.21341463923454285,0.27439025044441223,0.4573170840740204,4.949999809265137,-13.800000190734863,6.0,40.79213333129883,0,
 1444705,-0.03857421875,-0.97021484375,-0.120361328125,0.12195122241973877,0.3353658616542816,0.3658536672592163,4.949999809265137,-13.800000190734863,6.300000190734863,40.552520751953125,0,
 1444715,-0.035400390625,-0.97314453125,-0.1240234375,0.060975611209869385,0.27439025044441223,0.3048780560493469,6.75,-13.050000190734863,7.5,40.6962890625,0,
 1444725,-0.0400390625,-0.971923828125,-0.1181640625,-0.3353658616542816,0.5487805008888245,0.27439025044441223,5.699999809265137,-13.350000381469727,7.5,40.79213333129883,0,
 1444735,-0.036376953125,-0.971435546875,-0.119384765625,-0.24390244483947754,0.21341463923454285,0.6402438879013062,5.699999809265137,-13.350000381469727,7.5,40.9359016418457,0,
 1444745,-0.03271484375,-0.974609375,-0.1201171875,-0.396341472864151,0.3353658616542816,0.6402438879013062,7.349999904632568,-12.449999809265137,6.900000095367432,41.0317497253418,0,
 1444755,-0.038330078125,-0.97412109375,-0.12255859375,-0.396341472864151,0.3048780560493469,0.0,7.199999809265137,-14.25,6.300000190734863,40.50459671020508,0,
 1444765,-0.029052734375,-0.970947265625,-0.121337890625,-0.6402438879013062,0.24390244483947754,0.4268292784690857,7.349999904632568,-12.449999809265137,4.650000095367432,40.79213333129883,0,
 1444775,-0.036865234375,-0.97509765625,-0.11376953125,0.0,0.4878048896789551,0.3353658616542816,7.349999904632568,-12.449999809265137,4.650000095367432,40.9359016418457,0,
 1444785,-0.031005859375,-0.978759765625,-0.115234375,-0.4573170840740204,0.5487805008888245,0.4573170840740204,8.100000381469727,-13.649999618530273,4.949999809265137,40.6962890625,0,
 1444795,-0.038330078125,-0.970947265625,-0.1162109375,-0.7621951103210449,0.3048780560493469,0.6402438879013062,6.300000190734863,-13.199999809265137,6.150000095367432,40.74421310424805,0,
 1444805,-0.038330078125,-0.9716796875,-0.125,-0.3048780560493469,0.4268292784690857,0.4268292784690857,6.300000190734863,-13.649999618530273,5.400000095367432,40.60044479370117,0,
 1444815,-0.0361328125,-0.972900390625,-0.114013671875,-0.6707317233085632,0.5182926654815674,0.5792682766914368,6.300000190734863,-13.649999618530273,5.400000095367432,40.74421310424805,0,
 1444825,-0.03271484375,-0.979736328125,-0.117919921875,-0.24390244483947754,0.18292683362960815,0.27439025044441223,7.349999904632568,-13.199999809265137,6.449999809265137,40.9359016418457,0,
 1444835,-0.037109375,-0.97119140625,-0.115966796875,-0.3658536672592163,0.4573170840740204,0.5487805008888245,8.100000381469727,-15.600000381469727,3.9000000953674316,40.79213333129883,0,
 1444845,-0.040283203125,-0.97412109375,-0.11669921875,-0.3353658616542816,0.4878048896789551,0.4878048896789551,7.5,-15.0,5.550000190734863,40.74421310424805,0,
 1444865,-0.039794921875,-0.976806640625,-0.1171875,-0.3048780560493469,0.18292683362960815,0.3658536672592163,6.599999904632568,-14.850000381469727,5.699999809265137,41.0317497253418,0,
 1444875,-0.03564453125,-0.969970703125,-0.116455078125,-0.3353658616542816,0.3353658616542816,0.4268292784690857,5.699999809265137,-14.550000190734863,8.25,40.79213333129883,0,
 1444885,-0.041259765625,-0.97119140625,-0.119873046875,-0.8536585569381714,0.4573170840740204,0.24390244483947754,6.75,-15.300000190734863,4.800000190734863,40.6962890625,0,
 1444895,-0.03173828125,-0.974365234375,-0.11669921875,-0.7621951103210449,0.396341472864151,0.030487805604934692,6.75,-15.300000190734863,4.800000190734863,40.79213333129883,0,
 1444905,-0.038330078125,-0.977294921875,-0.11767578125,-0.4573170840740204,0.396341472864151,0.030487805604934692,6.449999809265137,-14.550000190734863,4.800000190734863,40.6962890625,0,
 1444915,-0.03173828125,-0.978515625,-0.1181640625,-0.4878048896789551,0.5182926654815674,0.3353658616542816,6.449999809265137,-13.800000190734863,5.550000190734863,40.6962890625,0,
 1444925,-0.043212890625,-0.973876953125,-0.11669921875,-0.3658536672592163,0.5487805008888245,0.4268292784690857,5.699999809265137,-13.800000190734863,5.550000190734863,40.9359016418457,0,
 1444935,-0.03857421875,-0.96875,-0.11767578125,-0.3048780560493469,0.4573170840740204,0.27439025044441223,5.699999809265137,-13.800000190734863,5.550000190734863,40.9359016418457,0,
 1444945,-0.040283203125,-0.97509765625,-0.11181640625,-0.7012194991111755,0.4573170840740204,0.18292683362960815,5.699999809265137,-13.350000381469727,4.800000190734863,40.88798141479492,0,
 1444965,-0.04052734375,-0.970703125,-0.119140625,-0.7012194991111755,0.4878048896789551,0.09146341681480408,5.849999904632568,-14.399999618530273,4.650000095367432,40.74421310424805,0,
 1444975,-0.032958984375,-0.970458984375,-0.1162109375,-0.6097561120986938,0.18292683362960815,0.060975611209869385,5.849999904632568,-14.399999618530273,4.650000095367432,41.0317497253418,0,
 1444985,-0.03759765625,-0.97119140625,-0.1181640625,-0.3048780560493469,0.4573170840740204,0.396341472864151,6.75,-14.25,4.5,41.127593994140625,0,
 1444995,-0.0390625,-0.9765625,-0.116455078125,-0.21341463923454285,0.15243902802467346,0.3658536672592163,6.75,-14.25,5.550000190734863,40.74421310424805,0,
 1445005,-0.040283203125,-0.97509765625,-0.117919921875,-0.4268292784690857,0.396341472864151,0.3658536672592163,5.400000095367432,-13.199999809265137,4.650000095367432,40.9359016418457,0,
 1445015,-0.03369140625,-0.97265625,-0.119140625,-0.5792682766914368,0.3048780560493469,0.3658536672592163,6.449999809265137,-15.75,5.25,40.88798141479492,0,
 1445025,-0.0361328125,-0.971923828125,-0.11767578125,-0.396341472864151,0.4268292784690857,0.396341472864151,7.199999809265137,-16.5,6.75,40.60044479370117,0,
 1445035,-0.0322265625,-0.9716796875,-0.1162109375,-0.7012194991111755,0.3048780560493469,0.5487805008888245,4.650000095367432,-13.949999809265137,6.150000095367432,40.74421310424805,0,
 1445045,-0.03466796875,-0.967529296875,-0.118408203125,-0.5792682766914368,0.3048780560493469,0.4573170840740204,6.75,-15.0,6.300000190734863,40.88798141479492,0,
 1445055,-0.03515625,-0.973876953125,-0.115966796875,-1.097561001777649,0.3048780560493469,-0.09146341681480408,7.050000190734863,-13.199999809265137,7.650000095367432,40.79213333129883,0,
 1445065,-0.037109375,-0.970458984375,-0.1201171875,-0.9146341681480408,0.4878048896789551,0.396341472864151,7.050000190734863,-13.199999809265137,7.650000095367432,40.9359016418457,0,
 1445075,-0.034912109375,-0.972900390625,-0.112548828125,-0.5792682766914368,0.3658536672592163,0.3048780560493469,7.5,-13.050000190734863,7.050000190734863,40.74421310424805,0,
 1445085,-0.033935546875,-0.978271484375,-0.11474609375,-0.7317073345184326,0.4878048896789551,0.27439025044441223,5.25,-13.050000190734863,5.550000190734863,40.74421310424805,0,
 1445095,-0.033447265625,-0.97265625,-0.118408203125,-0.8536585569381714,0.3353658616542816,0.030487805604934692,6.0,-14.25,5.550000190734863,40.552520751953125,0,
 1445105,-0.030029296875,-0.974853515625,-0.115234375,-0.792682945728302,0.4878048896789551,0.4878048896789551,6.0,-14.25,5.550000190734863,40.74421310424805,0,
 1445115,-0.0361328125,-0.980224609375,-0.1162109375,-0.6402438879013062,0.6707317233085632,0.3658536672592163,6.599999904632568,-14.850000381469727,6.449999809265137,41.0317497253418,0,
 1445125,-0.036865234375,-0.973876953125,-0.12060546875,-0.5487805008888245,0.396341472864151,0.24390244483947754,5.699999809265137,-11.399999618530273,4.5,40.74421310424805,0,
 1445135,-0.03125,-0.974853515625,-0.114990234375,-0.7012194991111755,0.3658536672592163,0.3048780560493469,5.849999904632568,-13.199999809265137,5.699999809265137,40.74421310424805,0,
 1445145,-0.036865234375,-0.968505859375,-0.120361328125,-0.3048780560493469,0.4878048896789551,0.6402438879013062,5.849999904632568,-13.199999809265137,5.699999809265137,40.552520751953125,0,
 1445155,-0.038818359375,-0.9736328125,-0.121826171875,-0.8841463327407837,0.27439025044441223,0.3353658616542816,5.849999904632568,-12.449999809265137,5.699999809265137,40.79213333129883,0,
 1445165,-0.0341796875,-0.978515625,-0.11376953125,-0.4878048896789551,0.5182926654815674,0.3048780560493469,5.849999904632568,-14.399999618530273,7.199999809265137,40.79213333129883,0,
 1445175,-0.031982421875,-0.9736328125,-0.119140625,-0.7621951103210449,0.15243902802467346,0.5487805008888245,7.5,-11.850000381469727,6.0,40.74421310424805,0,
 1445185,-0.031494140625,-0.969970703125,-0.1181640625,-0.5487805008888245,0.18292683362960815,0.4878048896789551,7.5,-11.850000381469727,6.0,40.60044479370117,0,
 1445195,-0.03857421875,-0.9755859375,-0.115478515625,-0.4573170840740204,0.18292683362960815,0.27439025044441223,6.599999904632568,-13.949999809265137,8.399999618530273,40.552520751953125,0,
 1445205,-0.0341796875,-0.96875,-0.119140625,-0.6097561120986938,0.3353658616542816,0.6097561120986938,6.300000190734863,-13.949999809265137,5.699999809265137,40.74421310424805,0,
 1445215,-0.034912109375,-0.980224609375,-0.1181640625,-0.3048780560493469,0.3048780560493469,0.396341472864151,6.449999809265137,-15.0,5.550000190734863,40.60044479370117,0,
 1445225,-0.03515625,-0.970458984375,-0.117431640625,-0.09146341681480408,0.24390244483947754,0.7621951103210449,6.449999809265137,-15.0,5.550000190734863,40.9359016418457,0,
 1445235,-0.031005859375,-0.970703125,-0.117431640625,-0.15243902802467346,0.4878048896789551,0.396341472864151,6.0,-14.25,6.75,40.74421310424805,0,
 1445245,-0.03857421875,-0.970703125,-0.119140625,-0.396341472864151,0.09146341681480408,0.21341463923454285,6.599999904632568,-12.0,3.1500000953674316,40.3608283996582,0,
 1445255,-0.037109375,-0.9677734375,-0.120361328125,-0.27439025044441223,0.3353658616542816,0.27439025044441223,5.400000095367432,-13.649999618530273,6.150000095367432,40.79213333129883,0,
 1445265,-0.033935546875,-0.96923828125,-0.122314453125,0.0,0.4878048896789551,0.15243902802467346,5.400000095367432,-13.649999618530273,6.150000095367432,40.6962890625,0,
 1445275,-0.03466796875,-0.975830078125,-0.116943359375,0.18292683362960815,0.24390244483947754,0.396341472864151,6.599999904632568,-15.600000381469727,4.650000095367432,40.79213333129883,0,
 1445285,-0.03564453125,-0.9697265625,-0.112060546875,-0.18292683362960815,0.4573170840740204,-0.12195122241973877,5.699999809265137,-15.300000190734863,6.0,40.9359016418457,0,
 1445295,-0.038818359375,-0.979736328125,-0.1201171875,-0.12195122241973877,0.21341463923454285,0.060975611209869385,6.75,-15.300000190734863,5.25,40.74421310424805,0,
 1445305,-0.034912109375,-0.9755859375,-0.1162109375,-0.4268292784690857,0.396341472864151,0.3658536672592163,7.199999809265137,-14.550000190734863,5.25,40.88798141479492,0,
 1445315,-0.039794921875,-0.973876953125,-0.117919921875,-0.6402438879013062,0.3658536672592163,0.396341472864151,6.75,-13.800000190734863,4.800000190734863,40.60044479370117,0,
 1445326,-0.042724609375,-0.968994140625,-0.11767578125,-0.6402438879013062,0.18292683362960815,0.15243902802467346,4.949999809265137,-13.800000190734863,5.550000190734863,40.60044479370117,0,
 1445336,-0.037109375,-0.972900390625,-0.11865234375,-0.792682945728302,0.4878048896789551,0.27439025044441223,6.300000190734863,-12.75,5.699999809265137,40.9359016418457,0,
 1445346,-0.0390625,-0.96875,-0.11474609375,-0.24390244483947754,0.3048780560493469,0.5182926654815674,8.399999618530273,-13.350000381469727,3.299999952316284,40.74421310424805,0,
 1445356,-0.03564453125,-0.978271484375,-0.121826171875,-0.6707317233085632,0.396341472864151,0.24390244483947754,8.399999618530273,-13.350000381469727,3.299999952316284,40.74421310424805,0,
 1445376,-0.03466796875,-0.98291015625,-0.113037109375,-0.8841463327407837,0.3048780560493469,0.15243902802467346,8.100000381469727,-14.850000381469727,4.650000095367432,40.79213333129883,0,
 1445386,-0.034912109375,-0.9697265625,-0.11376953125,-0.5792682766914368,0.3658536672592163,0.3048780560493469,7.199999809265137,-14.550000190734863,6.300000190734863,40.74421310424805,0,
 1445396,-0.034912109375,-0.97607421875,-0.119140625,-0.21341463923454285,0.396341472864151,0.24390244483947754,7.199999809265137,-14.550000190734863,6.300000190734863,40.74421310424805,0,
 1445406,-0.04150390625,-0.970458984375,-0.12109375,-0.7317073345184326,0.5792682766914368,0.5182926654815674,6.300000190734863,-14.850000381469727,4.650000095367432,40.79213333129883,0,
 1445416,-0.037841796875,-0.967529296875,-0.1181640625,-0.4573170840740204,0.3658536672592163,0.396341472864151,5.699999809265137,-14.25,5.25,40.79213333129883,0,
 1445426,-0.0341796875,-0.9716796875,-0.114501953125,-1.0670732259750366,0.4268292784690857,0.396341472864151,8.399999618530273,-14.25,4.5,40.88798141479492,0,
 1445436,-0.030517578125,-0.96630859375,-0.116943359375,-0.3048780560493469,0.4878048896789551,0.4878048896789551,8.399999618530273,-14.25,4.5,40.9359016418457,0,
 1445446,-0.03466796875,-0.979248046875,-0.1240234375,-0.5487805008888245,0.27439025044441223,0.5487805008888245,5.699999809265137,-13.050000190734863,4.5,40.9359016418457,0,
 1445456,-0.036865234375,-0.967529296875,-0.120361328125,-0.4268292784690857,0.396341472864151,0.18292683362960815,7.349999904632568,-12.449999809265137,4.949999809265137,40.74421310424805,0,
 1445466,-0.038330078125,-0.97265625,-0.118896484375,-0.8231707215309143,0.396341472864151,0.12195122241973877,6.449999809265137,-13.350000381469727,5.25,40.79213333129883,0,
 1445476,-0.03466796875,-0.97265625,-0.11767578125,-0.4268292784690857,0.4573170840740204,0.0,6.449999809265137,-13.350000381469727,5.25,40.74421310424805,0,
 1445486,-0.03515625,-0.9775390625,-0.11865234375,-0.9146341681480408,0.6707317233085632,0.18292683362960815,6.599999904632568,-13.649999618530273,7.199999809265137,40.79213333129883,0,
 1445496,-0.042236328125,-0.97607421875,-0.12109375,-0.8841463327407837,0.4268292784690857,0.18292683362960815,5.099999904632568,-13.649999618530273,5.699999809265137,40.6962890625,0,
 1445506,-0.033447265625,-0.975341796875,-0.114501953125,-0.8231707215309143,0.4878048896789551,0.396341472864151,7.349999904632568,-13.649999618530273,6.449999809265137,40.9359016418457,0,
 1445516,-0.0341796875,-0.970703125,-0.114990234375,-1.1280487775802612,0.6707317233085632,0.18292683362960815,7.349999904632568,-13.649999618530273,6.449999809265137,40.74421310424805,0,
 1445526,-0.03515625,-0.971923828125,-0.123291015625,-0.6402438879013062,0.3658536672592163,0.24390244483947754,7.199999809265137,-13.800000190734863,6.75,40.79213333129883,0,
 1445536,-0.038330078125,-0.968505859375,-0.1181640625,-0.3048780560493469,0.18292683362960815,0.4878048896789551,8.399999618530273,-14.550000190734863,5.25,40.6962890625,0,
 1445546,-0.035400390625,-0.97412109375,-0.12255859375,-0.9451219439506531,0.396341472864151,0.3353658616542816,5.849999904632568,-13.199999809265137,5.400000095367432,40.79213333129883,0,
 1445556,-0.0322265625,-0.9716796875,-0.123046875,-0.9146341681480408,0.15243902802467346,0.4878048896789551,5.849999904632568,-13.199999809265137,5.400000095367432,40.74421310424805,0,
 1445566,-0.0390625,-0.973388671875,-0.117431640625,-1.25,0.3353658616542816,0.5182926654815674,6.0,-13.800000190734863,6.0,40.9359016418457,0,
 1445576,-0.034423828125,-0.970458984375,-0.123779296875,-0.792682945728302,0.6707317233085632,0.5487805008888245,6.449999809265137,-13.350000381469727,6.0,40.88798141479492,0,
 1445586,-0.033447265625,-0.97314453125,-0.12353515625,-0.4573170840740204,0.396341472864151,0.18292683362960815,6.75,-13.800000190734863,7.5,40.6962890625,0,
 1445596,-0.034912109375,-0.973388671875,-0.116943359375,-0.5182926654815674,0.3658536672592163,0.3658536672592163,6.75,-13.800000190734863,7.5,40.9359016418457,0,
 1445606,-0.041259765625,-0.97021484375,-0.1201171875,-0.5792682766914368,0.4573170840740204,0.4268292784690857,6.0,-15.300000190734863,6.0,40.60044479370117,0,
 1445616,-0.02880859375,-0.970458984375,-0.1181640625,-0.5487805008888245,0.15243902802467346,0.24390244483947754,7.349999904632568,-12.75,5.699999809265137,40.74421310424805,0,
 1445626,-0.036865234375,-0.97705078125,-0.127197265625,-0.6402438879013062,0.3048780560493469,0.4268292784690857,7.5,-13.050000190734863,6.75,40.74421310424805,0,
 1445636,-0.037353515625,-0.975830078125,-0.117431640625,-0.12195122241973877,0.3353658616542816,0.5792682766914368,6.75,-14.25,5.25,40.60044479370117,0,
 1445646,-0.038818359375,-0.97265625,-0.1181640625,-0.18292683362960815,0.5487805008888245,0.396341472864151,6.300000190734863,-13.199999809265137,4.949999809265137,40.79213333129883,0,
 1445656,-0.040771484375,-0.97119140625,-0.121826171875,-0.24390244483947754,0.3353658616542816,0.6097561120986938,6.300000190734863,-13.649999618530273,2.4000000953674316,40.79213333129883,0,
 1445666,-0.035400390625,-0.9755859375,-0.11572265625,0.0,0.5487805008888245,0.6402438879013062,4.199999809265137,-13.800000190734863,6.300000190734863,40.74421310424805,0,
 1445676,-0.035888671875,-0.970703125,-0.120361328125,-0.3658536672592163,0.4878048896789551,0.3353658616542816,5.849999904632568,-13.949999809265137,7.199999809265137,40.79213333129883,0,
 1445686,-0.03857421875,-0.97314453125,-0.123046875,-0.6097561120986938,0.5487805008888245,0.3658536672592163,5.849999904632568,-13.949999809265137,7.199999809265137,40.552520751953125,0,
 1445696,-0.0361328125,-0.97607421875,-0.1201171875,-0.12195122241973877,0.396341472864151,0.4573170840740204,7.349999904632568,-13.949999809265137,7.650000095367432,40.88798141479492,0,
 1445706,-0.037841796875,-0.971923828125,-0.1201171875,-0.27439025044441223,0.5792682766914368,0.3353658616542816,6.0,-14.550000190734863,7.050000190734863,40.74421310424805,0,
 1445716,-0.031494140625,-0.97119140625,-0.121826171875,-0.21341463923454285,0.3353658616542816,0.3048780560493469,6.300000190734863,-13.949999809265137,6.449999809265137,41.0317497253418,0,
 1445726,-0.037353515625,-0.974609375,-0.11865234375,-0.3048780560493469,0.12195122241973877,0.27439025044441223,6.300000190734863,-13.949999809265137,6.449999809265137,40.74421310424805,0,
 1445736,-0.034912109375,-0.970947265625,-0.1171875,-0.18292683362960815,0.12195122241973877,0.24390244483947754,7.050000190734863,-13.199999809265137,7.650000095367432,40.40875244140625,0,
 1445746,-0.0283203125,-0.972412109375,-0.121337890625,-0.3353658616542816,0.18292683362960815,0.21341463923454285,6.300000190734863,-14.399999618530273,6.449999809265137,40.88798141479492,0,
 1445756,-0.037353515625,-0.97216796875,-0.123291015625,-0.4878048896789551,0.27439025044441223,0.09146341681480408,7.949999809265137,-13.050000190734863,2.549999952316284,40.60044479370117,0,
 1445766,-0.034423828125,-0.97900390625,-0.11962890625,-0.21341463923454285,0.4878048896789551,0.7317073345184326,7.949999809265137,-13.050000190734863,2.549999952316284,40.79213333129883,0,
 1445786,-0.03857421875,-0.97314453125,-0.115234375,-0.4268292784690857,0.3353658616542816,0.4878048896789551,3.9000000953674316,-13.949999809265137,4.650000095367432,40.6962890625,0,
 1445796,-0.035888671875,-0.971923828125,-0.12158203125,-0.6097561120986938,0.5182926654815674,0.4268292784690857,6.300000190734863,-14.850000381469727,5.699999809265137,40.74421310424805,0,
 1445806,-0.0380859375,-0.973388671875,-0.114013671875,-0.8536585569381714,0.27439025044441223,0.4268292784690857,6.300000190734863,-14.850000381469727,5.699999809265137,40.74421310424805,0,
 1445816,-0.035888671875,-0.975830078125,-0.1142578125,-0.6097561120986938,0.396341472864151,0.5487805008888245,6.449999809265137,-14.25,5.550000190734863,40.9359016418457,0,
 1445826,-0.033935546875,-0.9677734375,-0.121826171875,-0.9146341681480408,0.4268292784690857,0.27439025044441223,7.349999904632568,-15.899999618530273,6.150000095367432,40.79213333129883,0,
 1445836,-0.03662109375,-0.967041015625,-0.11767578125,-0.396341472864151,0.27439025044441223,0.4268292784690857,7.5,-15.0,6.0,40.60044479370117,0,
 1445846,-0.04150390625,-0.98291015625,-0.123046875,-0.4268292784690857,0.3658536672592163,0.396341472864151,7.5,-15.0,6.0,40.6962890625,0,
 1445856,-0.03759765625,-0.974609375,-0.113525390625,-0.792682945728302,0.3658536672592163,0.4878048896789551,7.050000190734863,-12.75,4.199999809265137,40.79213333129883,0,
 1445866,-0.03369140625,-0.964599609375,-0.119140625,-0.396341472864151,0.4573170840740204,0.18292683362960815,4.650000095367432,-13.649999618530273,4.199999809265137,40.552520751953125,0,
 1445886,-0.03857421875,-0.97119140625,-0.11181640625,-0.21341463923454285,0.4573170840740204,0.3658536672592163,7.199999809265137,-14.550000190734863,4.800000190734863,40.79213333129883,0,
 1445896,-0.037353515625,-0.97265625,-0.12060546875,-0.7621951103210449,0.4878048896789551,0.27439025044441223,6.599999904632568,-12.75,3.9000000953674316,40.9359016418457,0,
 1445906,-0.03515625,-0.977294921875,-0.115478515625,-0.6707317233085632,0.4268292784690857,0.18292683362960815,5.25,-15.300000190734863,6.0,40.79213333129883,0,
 1445916,-0.03369140625,-0.971435546875,-0.1171875,-0.7621951103210449,0.4573170840740204,0.4268292784690857,5.25,-14.25,4.800000190734863,40.79213333129883,0,
 1445926,-0.034423828125,-0.972412109375,-0.11767578125,-0.3658536672592163,0.4878048896789551,0.3353658616542816,5.400000095367432,-13.199999809265137,6.900000095367432,40.6962890625,0,
 1445936,-0.036865234375,-0.976806640625,-0.114013671875,-0.5487805008888245,0.7012194991111755,0.24390244483947754,7.5,-13.350000381469727,7.5,40.552520751953125,0,
 1445946,-0.029296875,-0.966796875,-0.115234375,-0.4573170840740204,0.5182926654815674,0.3658536672592163,5.699999809265137,-14.25,5.550000190734863,40.79213333129883,0,
 1445956,-0.04052734375,-0.970703125,-0.121826171875,-0.24390244483947754,0.3048780560493469,0.5487805008888245,6.449999809265137,-14.25,7.5,40.74421310424805,0,
 1445966,-0.03759765625,-0.96875,-0.116943359375,-0.18292683362960815,0.18292683362960815,0.3048780560493469,4.949999809265137,-13.350000381469727,5.25,40.6962890625,0,
 1445976,-0.0361328125,-0.97216796875,-0.1181640625,-0.5487805008888245,0.396341472864151,0.3048780560493469,4.949999809265137,-13.350000381469727,5.25,40.50459671020508,0,
 1445986,-0.032958984375,-0.972412109375,-0.11962890625,0.0,0.4268292784690857,0.396341472864151,7.5,-14.25,6.300000190734863,40.74421310424805,0,
 1445996,-0.035400390625,-0.97216796875,-0.115966796875,-0.4573170840740204,0.3048780560493469,0.060975611209869385,6.300000190734863,-15.149999618530273,6.449999809265137,40.79213333129883,0,
 1446006,-0.03662109375,-0.97900390625,-0.113525390625,-0.3353658616542816,0.396341472864151,0.18292683362960815,6.75,-15.0,4.800000190734863,40.79213333129883,0,
 1446016,-0.036376953125,-0.967529296875,-0.118408203125,-0.27439025044441223,0.18292683362960815,0.18292683362960815,6.75,-15.0,4.800000190734863,40.79213333129883,0,
 1446026,-0.0400390625,-0.976806640625,-0.115966796875,-0.396341472864151,0.3048780560493469,0.5792682766914368,6.300000190734863,-12.449999809265137,5.400000095367432,40.60044479370117,0,
 1446036,-0.04150390625,-0.970458984375,-0.116455078125,-0.5487805008888245,0.4573170840740204,0.3658536672592163,5.849999904632568,-13.649999618530273,6.150000095367432,40.79213333129883,0,
 1446046,-0.037841796875,-0.972412109375,-0.11962890625,-0.3048780560493469,0.4878048896789551,0.4878048896789551,5.400000095367432,-13.949999809265137,6.900000095367432,40.79213333129883,0,
 1446056,-0.036376953125,-0.970947265625,-0.12255859375,-0.5487805008888245,0.3048780560493469,0.5487805008888245,5.400000095367432,-13.949999809265137,6.900000095367432,40.3608283996582,0,
 1446066,-0.039306640625,-0.974853515625,-0.1181640625,-0.15243902802467346,0.5792682766914368,0.7012194991111755,6.300000190734863,-15.600000381469727,3.450000047683716,40.88798141479492,0,
 1446077,-0.0380859375,-0.97607421875,-0.1142578125,-0.3353658616542816,0.396341472864151,0.7012194991111755,7.050000190734863,-14.399999618530273,5.400000095367432,40.79213333129883,0,
 1446087,-0.0400390625,-0.9775390625,-0.119384765625,-0.5792682766914368,0.4268292784690857,0.3658536672592163,7.949999809265137,-13.350000381469727,4.050000190734863,40.9359016418457,0,
 1446097,-0.04248046875,-0.971435546875,-0.112060546875,-0.27439025044441223,0.3658536672592163,0.18292683362960815,7.949999809265137,-13.350000381469727,4.050000190734863,40.88798141479492,0,
 1446107,-0.03466796875,-0.973388671875,-0.118896484375,-0.27439025044441223,0.396341472864151,0.396341472864151,5.849999904632568,-13.949999809265137,5.699999809265137,40.74421310424805,0,
 1446117,-0.0361328125,-0.96875,-0.125,-0.09146341681480408,0.27439025044441223,0.396341472864151,7.050000190734863,-14.850000381469727,4.650000095367432,40.9359016418457,0,
 1446127,-0.04150390625,-0.973876953125,-0.11328125,-0.18292683362960815,0.3048780560493469,0.7012194991111755,6.449999809265137,-13.050000190734863,6.300000190734863,40.6962890625,0,
 1446137,-0.04052734375,-0.96728515625,-0.117431640625,0.0,0.24390244483947754,0.3658536672592163,6.449999809265137,-13.050000190734863,6.300000190734863,40.79213333129883,0,
 1446147,-0.041748046875,-0.9716796875,-0.119384765625,0.4268292784690857,0.21341463923454285,0.6402438879013062,7.199999809265137,-13.050000190734863,7.5,40.79213333129883,0,
 1446157,-0.03515625,-0.9677734375,-0.117919921875,0.060975611209869385,0.3658536672592163,0.27439025044441223,6.75,-13.800000190734863,4.800000190734863,40.79213333129883,0,
 1446167,-0.03271484375,-0.96923828125,-0.116943359375,0.24390244483947754,0.15243902802467346,0.4573170840740204,7.5,-14.25,1.5,40.88798141479492,0,
 1446177,-0.034912109375,-0.976318359375,-0.11962890625,0.21341463923454285,0.12195122241973877,0.3048780560493469,7.5,-14.25,1.5,40.74421310424805,0,
 1446187,-0.0380859375,-0.973876953125,-0.1142578125,0.21341463923454285,0.6097561120986938,0.3048780560493469,5.400000095367432,-13.949999809265137,7.199999809265137,40.6962890625,0,
 1446197,-0.0361328125,-0.97119140625,-0.121826171875,0.27439025044441223,0.0,0.396341472864151,7.349999904632568,-14.850000381469727,7.199999809265137,40.74421310424805,0,
 1446207,-0.033935546875,-0.974365234375,-0.11474609375,-0.15243902802467346,0.21341463923454285,0.6402438879013062,3.9000000953674316,-14.850000381469727,5.400000095367432,40.79213333129883,0,
 1446217,-0.0361328125,-0.971435546875,-0.11767578125,-0.09146341681480408,0.24390244483947754,0.24390244483947754,6.449999809265137,-13.800000190734863,5.550000190734863,40.9359016418457,0,
 1446227,-0.031982421875,-0.969482421875,-0.11572265625,0.27439025044441223,0.5487805008888245,0.7621951103210449,6.449999809265137,-14.550000190734863,6.300000190734863,40.50459671020508,0,
 1446237,-0.039794921875,-0.970458984375,-0.113525390625,-0.060975611209869385,0.396341472864151,0.4878048896789551,7.050000190734863,-12.75,6.449999809265137,40.79213333129883,0,
 1446247,-0.033935546875,-0.97265625,-0.1171875,-0.030487805604934692,0.5487805008888245,0.5182926654815674,6.300000190734863,-14.399999618530273,6.449999809265137,40.9359016418457,0,
 1446257,-0.035400390625,-0.970458984375,-0.118408203125,0.030487805604934692,0.09146341681480408,0.7317073345184326,4.349999904632568,-15.149999618530273,6.449999809265137,40.9359016418457,0,
 1446267,-0.041259765625,-0.9755859375,-0.11572265625,-0.060975611209869385,0.12195122241973877,0.3048780560493469,4.349999904632568,-15.149999618530273,6.449999809265137,40.79213333129883,0,
 1446277,-0.037841796875,-0.976318359375,-0.121337890625,-0.396341472864151,0.24390244483947754,0.27439025044441223,6.0,-13.350000381469727,5.25,40.60044479370117,0,
 1446297,-0.038330078125,-0.97265625,-0.11474609375,-0.5487805008888245,0.7012194991111755,0.6097561120986938,5.699999809265137,-14.550000190734863,4.5,40.74421310424805,0,
 1446307,-0.032958984375,-0.970947265625,-0.11279296875,-0.9756097793579102,0.24390244483947754,0.3048780560493469,5.699999809265137,-14.550000190734863,4.5,40.3608283996582,0,
 1446317,-0.03857421875,-0.978515625,-0.11376953125,-0.9146341681480408,0.4573170840740204,0.3048780560493469,5.849999904632568,-14.399999618530273,4.650000095367432,40.88798141479492,0,
 1446327,-0.037109375,-0.975341796875,-0.12060546875,-0.9451219439506531,0.3658536672592163,0.4878048896789551,6.300000190734863,-13.199999809265137,6.449999809265137,40.9359016418457,0,
 1446337,-0.03759765625,-0.97216796875,-0.11962890625,-1.0670732259750366,0.21341463923454285,0.4268292784690857,6.599999904632568,-13.949999809265137,4.650000095367432,40.60044479370117,0,
 1446347,-0.0380859375,-0.9658203125,-0.1201171875,-0.792682945728302,0.6402438879013062,0.396341472864151,6.599999904632568,-13.949999809265137,4.650000095367432,40.88798141479492,0,
 1446357,-0.036865234375,-0.976318359375,-0.1162109375,-0.7621951103210449,0.5792682766914368,0.12195122241973877,5.400000095367432,-15.149999618530273,4.949999809265137,40.79213333129883,0,
 1446367,-0.03662109375,-0.974609375,-0.122314453125,-1.0060975551605225,0.5487805008888245,0.396341472864151,5.849999904632568,-13.199999809265137,4.650000095367432,40.74421310424805,0,
 1446377,-0.033935546875,-0.971923828125,-0.113525390625,-0.9451219439506531,0.4878048896789551,0.24390244483947754,7.050000190734863,-15.149999618530273,7.650000095367432,40.79213333129883,0,
 1446387,-0.034423828125,-0.972412109375,-0.1181640625,-1.2195122241973877,0.4268292784690857,0.5182926654815674,7.050000190734863,-15.149999618530273,7.650000095367432,41.0317497253418,0,
 1446397,-0.03564453125,-0.970947265625,-0.11376953125,-1.1585365533828735,0.3658536672592163,0.4573170840740204,7.050000190734863,-14.850000381469727,7.650000095367432,40.60044479370117,0,
 1446407,-0.03955078125,-0.972412109375,-0.118896484375,-0.8841463327407837,0.4268292784690857,0.4878048896789551,6.0,-13.050000190734863,6.0,40.74421310424805,0,
 1446417,-0.03515625,-0.973876953125,-0.11328125,-0.5487805008888245,0.4878048896789551,0.5487805008888245,6.75,-13.800000190734863,5.25,40.50459671020508,0,
 1446427,-0.0361328125,-0.9697265625,-0.119873046875,-0.9756097793579102,0.5487805008888245,0.3048780560493469,6.75,-13.800000190734863,5.25,40.79213333129883,0,
 1446437,-0.035888671875,-0.968994140625,-0.118408203125,-0.4573170840740204,0.5487805008888245,0.21341463923454285,7.349999904632568,-13.949999809265137,6.150000095367432,40.9359016418457,0,
 1446447,-0.03515625,-0.967529296875,-0.12109375,-0.15243902802467346,0.18292683362960815,0.0,7.199999809265137,-14.25,6.0,40.79213333129883,0,
 1446457,-0.037109375,-0.97412109375,-0.11279296875,-0.3658536672592163,0.27439025044441223,0.4573170840740204,5.25,-14.550000190734863,6.300000190734863,40.74421310424805,0,
 1446467,-0.037841796875,-0.970458984375,-0.119140625,-0.24390244483947754,0.4878048896789551,0.3353658616542816,5.25,-14.550000190734863,6.300000190734863,40.74421310424805,0,
 1446477,-0.03759765625,-0.9716796875,-0.11962890625,-0.3048780560493469,0.4268292784690857,0.4268292784690857,6.300000190734863,-14.850000381469727,5.400000095367432,40.9359016418457,0,
 1446487,-0.0341796875,-0.97412109375,-0.1181640625,-0.18292683362960815,0.4573170840740204,0.4268292784690857,7.349999904632568,-14.850000381469727,5.699999809265137,40.74421310424805,0,
 1446497,-0.037841796875,-0.966552734375,-0.12109375,-0.4878048896789551,-0.030487805604934692,0.4268292784690857,6.0,-16.200000762939453,6.0,40.88798141479492,0,
 1446507,-0.036865234375,-0.972900390625,-0.1142578125,-0.24390244483947754,0.4268292784690857,0.4573170840740204,6.300000190734863,-14.399999618530273,6.449999809265137,40.79213333129883,0,
 1446517,-0.035888671875,-0.977783203125,-0.118408203125,-0.15243902802467346,0.6402438879013062,0.21341463923454285,6.0,-14.550000190734863,6.75,40.74421310424805,0,
 1446527,-0.037109375,-0.97509765625,-0.1142578125,-0.27439025044441223,0.396341472864151,0.4268292784690857,5.849999904632568,-12.75,7.199999809265137,40.79213333129883,0,
 1446537,-0.03466796875,-0.97509765625,-0.1162109375,-0.24390244483947754,0.3658536672592163,0.09146341681480408,5.400000095367432,-14.399999618530273,4.650000095367432,40.79213333129883,0,
 1446547,-0.0419921875,-0.970458984375,-0.115234375,0.030487805604934692,0.21341463923454285,0.5182926654815674,6.75,-14.550000190734863,6.300000190734863,40.74421310424805,0,
 1446557,-0.033935546875,-0.974365234375,-0.1123046875,-0.4268292784690857,0.3048780560493469,0.3048780560493469,6.75,-14.550000190734863,6.300000190734863,40.6962890625,0,
 1446567,-0.03662109375,-0.975830078125,-0.115478515625,-1.1280487775802612,0.4573170840740204,0.27439025044441223,5.849999904632568,-13.199999809265137,5.699999809265137,40.6962890625,0,
 1446577,-0.0322265625,-0.974609375,-0.1142578125,-0.396341472864151,0.5792682766914368,0.3353658616542816,5.400000095367432,-15.899999618530273,3.9000000953674316,41.0317497253418,0,
 1446587,-0.034423828125,-0.9775390625,-0.119873046875,-0.6097561120986938,0.3658536672592163,0.5487805008888245,7.349999904632568,-13.949999809265137,4.650000095367432,40.9359016418457,0,
 1446607,-0.033447265625,-0.9716796875,-0.119140625,-0.792682945728302,0.396341472864151,0.24390244483947754,6.75,-14.25,6.300000190734863,40.88798141479492,0,
 1446617,-0.0361328125,-0.97265625,-0.12158203125,-0.6402438879013062,0.24390244483947754,0.4573170840740204,7.199999809265137,-13.800000190734863,6.0,40.60044479370117,0,
 1446627,-0.036376953125,-0.977294921875,-0.11767578125,-0.7621951103210449,0.6402438879013062,0.4878048896789551,7.349999904632568,-14.850000381469727,6.150000095367432,40.79213333129883,0,
 1446637,-0.0380859375,-0.975341796875,-0.11572265625,-0.3658536672592163,0.3658536672592163,0.3353658616542816,7.349999904632568,-14.850000381469727,6.150000095367432,40.74421310424805,0,
 1446647,-0.036865234375,-0.97607421875,-0.1181640625,-0.7012194991111755,0.3658536672592163,0.3353658616542816,4.949999809265137,-15.300000190734863,6.75,40.74421310424805,0,
 1446657,-0.0361328125,-0.970947265625,-0.12158203125,-0.3353658616542816,0.3658536672592163,0.5487805008888245,7.050000190734863,-13.649999618530273,4.949999809265137,40.9359016418457,0,
 1446677,-0.033203125,-0.970947265625,-0.118896484375,-0.4573170840740204,0.3048780560493469,0.27439025044441223,7.5,-15.0,5.25,40.552520751953125,0,
 1446687,-0.03515625,-0.973388671875,-0.12060546875,-0.12195122241973877,0.15243902802467346,0.0,5.400000095367432,-15.149999618530273,5.400000095367432,40.79213333129883,0,
 1446697,-0.037841796875,-0.976806640625,-0.120849609375,-0.27439025044441223,0.24390244483947754,0.4573170840740204,5.699999809265137,-15.0,5.25,41.0317497253418,0,
 1446707,-0.037353515625,-0.970703125,-0.1181640625,-0.24390244483947754,0.4878048896789551,0.5487805008888245,6.449999809265137,-15.300000190734863,5.25,40.79213333129883,0,
 1446717,-0.036376953125,-0.975341796875,-0.1201171875,-0.3353658616542816,0.3353658616542816,0.15243902802467346,6.449999809265137,-15.300000190734863,5.25,40.9359016418457,0,
 1446727,-0.03759765625,-0.968994140625,-0.1201171875,-0.396341472864151,0.3658536672592163,0.27439025044441223,7.199999809265137,-14.25,6.300000190734863,40.74421310424805,0,
 1446737,-0.034423828125,-0.970458984375,-0.114501953125,-0.792682945728302,0.4268292784690857,0.3658536672592163,5.25,-13.050000190734863,6.0,40.74421310424805,0,
 1446747,-0.030517578125,-0.967041015625,-0.1162109375,-0.4573170840740204,0.3353658616542816,0.4878048896789551,7.349999904632568,-13.649999618530273,5.400000095367432,40.79213333129883,0,
 1446757,-0.035888671875,-0.976318359375,-0.11767578125,-0.396341472864151,0.27439025044441223,0.4573170840740204,7.349999904632568,-13.649999618530273,5.400000095367432,40.9359016418457,0,
 1446767,-0.0361328125,-0.97021484375,-0.11669921875,-0.3353658616542816,0.27439025044441223,0.21341463923454285,6.599999904632568,-12.75,4.199999809265137,40.74421310424805,0,
 1446777,-0.036865234375,-0.97216796875,-0.118408203125,-0.6097561120986938,0.15243902802467346,0.09146341681480408,6.75,-12.149999618530273,5.550000190734863,40.74421310424805,0,
 1446788,-0.03955078125,-0.97265625,-0.11474609375,-0.24390244483947754,0.396341472864151,0.24390244483947754,5.400000095367432,-15.149999618530273,5.699999809265137,40.88798141479492,0,
 1446798,-0.03662109375,-0.97119140625,-0.11572265625,-0.27439025044441223,0.4268292784690857,0.27439025044441223,5.400000095367432,-15.149999618530273,5.699999809265137,40.60044479370117,0,
 1446808,-0.033447265625,-0.969970703125,-0.1171875,-0.12195122241973877,0.4573170840740204,0.3658536672592163,6.599999904632568,-12.449999809265137,4.949999809265137,40.6962890625,0,
 1446818,-0.0322265625,-0.972412109375,-0.114501953125,-0.6402438879013062,0.3658536672592163,0.15243902802467346,5.699999809265137,-14.550000190734863,5.550000190734863,40.552520751953125,0,
 1446828,-0.0302734375,-0.972900390625,-0.1171875,-0.396341472864151,0.15243902802467346,0.5182926654815674,6.300000190734863,-13.949999809265137,6.150000095367432,40.88798141479492,0,
 1446838,-0.036865234375,-0.975830078125,-0.111328125,-0.396341472864151,0.4268292784690857,0.27439025044441223,6.0,-14.25,6.0,40.9359016418457,0,
 1446848,-0.041015625,-0.969482421875,-0.115234375,-0.5487805008888245,0.18292683362960815,0.27439025044441223,4.650000095367432,-13.649999618530273,6.150000095367432,40.9359016418457,0,
 1446858,-0.03369140625,-0.976318359375,-0.115234375,-0.12195122241973877,0.27439025044441223,0.3048780560493469,5.400000095367432,-13.199999809265137,5.400000095367432,40.79213333129883,0,
 1446868,-0.042236328125,-0.972900390625,-0.11376953125,-0.4878048896789551,0.3658536672592163,0.4878048896789551,7.349999904632568,-15.149999618530273,4.949999809265137,40.79213333129883,0,
 1446878,-0.03466796875,-0.97509765625,-0.11572265625,-0.5792682766914368,0.4573170840740204,0.7012194991111755,6.75,-12.600000381469727,5.550000190734863,40.88798141479492,0,
 1446888,-0.043212890625,-0.970458984375,-0.118408203125,-0.7621951103210449,0.3658536672592163,0.4573170840740204,6.75,-12.600000381469727,5.550000190734863,40.9359016418457,0,
 1446898,-0.035400390625,-0.97119140625,-0.1220703125,-0.4268292784690857,0.3658536672592163,0.6707317233085632,5.699999809265137,-14.25,5.25,40.88798141479492,0,
 1446908,-0.036376953125,-0.9736328125,-0.122802734375,-0.27439025044441223,0.060975611209869385,0.396341472864151,6.75,-14.25,6.0,40.3608283996582,0,
 1446918,-0.03515625,-0.972900390625,-0.117919921875,-0.5487805008888245,0.4573170840740204,0.3048780560493469,7.349999904632568,-13.649999618530273,5.699999809265137,40.88798141479492,0,
 1446928,-0.036865234375,-0.97314453125,-0.11767578125,-0.5487805008888245,0.3353658616542816,0.18292683362960815,7.349999904632568,-13.649999618530273,5.699999809265137,40.88798141479492,0,
 1446938,-0.03173828125,-0.967041015625,-0.1162109375,-0.3658536672592163,0.396341472864151,0.5792682766914368,6.300000190734863,-13.649999618530273,6.449999809265137,40.79213333129883,0,
 1446948,-0.035400390625,-0.968994140625,-0.11572265625,-0.21341463923454285,0.24390244483947754,0.4268292784690857,6.300000190734863,-13.949999809265137,5.699999809265137,40.74421310424805,0,
 1446958,-0.037353515625,-0.97509765625,-0.115478515625,-0.27439025044441223,0.4573170840740204,0.5792682766914368,5.400000095367432,-13.649999618530273,6.449999809265137,40.60044479370117,0,
 1446968,-0.0361328125,-0.97509765625,-0.1220703125,-0.5487805008888245,0.27439025044441223,0.3353658616542816,5.400000095367432,-13.649999618530273,6.449999809265137,40.40875244140625,0,
 1446978,-0.0341796875,-0.968505859375,-0.11669921875,-0.24390244483947754,0.3658536672592163,0.396341472864151,5.699999809265137,-15.0,4.800000190734863,40.74421310424805,0,
 1446988,-0.042236328125,-0.977783203125,-0.119873046875,-0.27439025044441223,0.5792682766914368,0.3048780560493469,6.449999809265137,-15.0,6.0,40.6962890625,0,
 1446998,-0.032958984375,-0.969482421875,-0.1181640625,-0.8231707215309143,0.3048780560493469,0.6097561120986938,6.599999904632568,-14.850000381469727,4.949999809265137,40.79213333129883,0,
 1447008,-0.04150390625,-0.97509765625,-0.1142578125,-0.24390244483947754,0.3353658616542816,0.4573170840740204,6.599999904632568,-14.850000381469727,4.949999809265137,40.6962890625,0,
 1447018,-0.040771484375,-0.973876953125,-0.114990234375,-0.6097561120986938,0.4878048896789551,0.5792682766914368,6.75,-13.800000190734863,4.800000190734863,40.74421310424805,0,
 1447028,-0.034912109375,-0.974853515625,-0.118408203125,-0.060975611209869385,0.24390244483947754,0.4878048896789551,7.5,-15.0,6.0,40.60044479370117,0,
 1447038,-0.04443359375,-0.976318359375,-0.11669921875,-0.5487805008888245,0.24390244483947754,0.3048780560493469,6.599999904632568,-13.649999618530273,5.400000095367432,40.74421310424805,0,
 1447048,-0.032470703125,-0.97412109375,-0.119384765625,0.060975611209869385,0.4878048896789551,0.396341472864151,6.599999904632568,-13.649999618530273,5.400000095367432,40.79213333129883,0,
 1447058,-0.033447265625,-0.971923828125,-0.1201171875,-0.3353658616542816,0.7317073345184326,0.24390244483947754,5.849999904632568,-13.199999809265137,6.900000095367432,40.60044479370117,0,
 1447068,-0.03955078125,-0.974609375,-0.115478515625,-0.18292683362960815,0.5792682766914368,0.7012194991111755,6.300000190734863,-13.949999809265137,4.650000095367432,40.74421310424805,0,
 1447078,-0.03515625,-0.97216796875,-0.116455078125,-0.3658536672592163,0.18292683362960815,0.15243902802467346,6.599999904632568,-12.75,7.949999809265137,40.74421310424805,0,
 1447088,-0.04150390625,-0.972412109375,-0.115966796875,-0.27439025044441223,0.27439025044441223,0.6402438879013062,6.599999904632568,-12.75,7.949999809265137,40.6962890625,0,
 1447098,-0.041015625,-0.97607421875,-0.1171875,-0.3353658616542816,0.3658536672592163,0.4878048896789551,6.300000190734863,-13.949999809265137,6.150000095367432,40.88798141479492,0,
 1447108,-0.036865234375,-0.970703125,-0.11474609375,-0.396341472864151,0.4573170840740204,0.3658536672592163,5.400000095367432,-14.399999618530273,6.150000095367432,40.60044479370117,0,
 1447118,-0.03759765625,-0.974609375,-0.119873046875,-0.4268292784690857,0.27439025044441223,0.3353658616542816,5.699999809265137,-12.600000381469727,4.800000190734863,40.74421310424805,0,
 1447128,-0.0361328125,-0.973388671875,-0.114990234375,-0.4878048896789551,0.6097561120986938,0.24390244483947754,5.849999904632568,-13.199999809265137,6.449999809265137,40.79213333129883,0,
 1447138,-0.03759765625,-0.974609375,-0.11572265625,-0.7621951103210449,0.27439025044441223,0.4268292784690857,6.75,-13.800000190734863,5.25,40.88798141479492,0,
 1447148,-0.034423828125,-0.97216796875,-0.1162109375,-1.097561001777649,0.6097561120986938,0.7012194991111755,5.849999904632568,-14.399999618530273,6.900000095367432,40.9359016418457,0,
 1447158,-0.034423828125,-0.986328125,-0.112060546875,-1.1585365533828735,0.6402438879013062,0.792682945728302,6.449999809265137,-13.800000190734863,5.25,40.74421310424805,0,
 1447168,-0.037109375,-0.974609375,-0.11669921875,-1.920731782913208,0.7317073345184326,1.0365853309631348,4.949999809265137,-13.050000190734863,6.0,41.0317497253418,0,
 1447178,-0.031982421875,-0.96484375,-0.120849609375,-2.2865853309631348,0.6402438879013062,0.7621951103210449,4.949999809265137,-13.050000190734863,6.0,40.88798141479492,0,
 1447198,-0.03173828125,-0.973388671875,-0.114501953125,-1.8902438879013062,0.8536585569381714,0.9756097793579102,5.400000095367432,-14.399999618530273,5.400000095367432,41.0317497253418,0,
 1447208,-0.037109375,-0.959228515625,-0.1201171875,-2.408536672592163,1.0365853309631348,1.0365853309631348,6.75,-13.350000381469727,6.75,40.74421310424805,0,
 1447218,-0.0390625,-0.961181640625,-0.120361328125,-2.1341464519500732,1.2804877758026123,1.1280487775802612,6.75,-13.350000381469727,6.75,40.74421310424805,0,
 1447228,-0.030517578125,-0.975341796875,-0.123779296875,-1.8597561120986938,0.8841463327407837,1.25,6.75,-11.850000381469727,7.050000190734863,40.79213333129883,0,
 1447238,-0.036865234375,-0.970947265625,-0.12060546875,-1.8597561120986938,1.25,1.7073171138763428,5.400000095367432,-12.75,5.699999809265137,40.74421310424805,0,
 1447248,-0.0302734375,-0.974365234375,-0.123291015625,-1.737804889678955,1.0365853309631348,1.9512195587158203,4.650000095367432,-12.75,6.150000095367432,40.6962890625,0,
 1447258,-0.03564453125,-0.977294921875,-0.1181640625,-2.5609755516052246,1.2804877758026123,1.8597561120986938,4.650000095367432,-12.75,6.150000095367432,40.88798141479492,0,
 1447268,-0.043212890625,-0.986572265625,-0.12158203125,-3.353658676147461,1.6463414430618286,2.9573171138763428,6.599999904632568,-14.399999618530273,6.150000095367432,40.74421310424805,0,
 1447278,-0.04150390625,-0.98046875,-0.114501953125,-6.432927131652832,2.7134146690368652,2.6524391174316406,6.300000190734863,-13.949999809265137,5.699999809265137,40.79213333129883,0,
 1447288,-0.037353515625,-0.96142578125,-0.11767578125,-6.829268455505371,2.6524391174316406,2.8353660106658936,5.25,-12.149999618530273,5.25,40.6962890625,0,
 1447298,-0.040771484375,-0.964599609375,-0.12158203125,-6.5853657722473145,2.6524391174316406,2.865853786468506,5.25,-12.149999618530273,5.25,40.552520751953125,0,
 1447308,-0.042724609375,-0.958251953125,-0.12744140625,-6.554878234863281,2.4390244483947754,2.0426828861236572,5.400000095367432,-13.649999618530273,5.699999809265137,40.79213333129883,0,
 1447318,-0.03369140625,-0.955810546875,-0.137451171875,-5.396341800689697,2.2560975551605225,1.5243902206420898,6.0,-12.149999618530273,7.050000190734863,40.79213333129883,0,
 1447328,-0.035888671875,-0.964111328125,-0.128173828125,-4.512195110321045,2.5,1.6768293380737305,5.699999809265137,-14.25,6.300000190734863,41.0317497253418,0,
 1447338,-0.0380859375,-0.975341796875,-0.126220703125,-4.817073345184326,1.9817073345184326,1.1890244483947754,5.699999809265137,-14.25,6.300000190734863,40.6962890625,0,
 1447348,-0.04296875,-0.975341796875,-0.12939453125,-4.786585330963135,1.8902438879013062,1.432926893234253,5.699999809265137,-14.25,6.300000190734863,40.74421310424805,0,
 1447358,-0.045654296875,-0.9912109375,-0.122802734375,-5.762195110321045,2.2560975551605225,1.6768293380737305,4.949999809265137,-13.800000190734863,4.5,40.9359016418457,0,
 1447368,-0.0419921875,-0.974365234375,-0.1298828125,-5.365853786468506,2.012195110321045,2.3475611209869385,6.449999809265137,-12.149999618530273,7.050000190734863,40.9359016418457,0,
 1447378,-0.04541015625,-0.979736328125,-0.126708984375,-5.670732021331787,1.920731782913208,2.5609755516052246,6.449999809265137,-12.149999618530273,7.050000190734863,40.60044479370117,0,
 1447388,-0.04541015625,-0.97314453125,-0.130859375,-4.695122241973877,1.585365891456604,2.591463565826416,5.25,-13.350000381469727,6.300000190734863,40.9359016418457,0,
 1447398,-0.046630859375,-0.96435546875,-0.13427734375,-3.8719513416290283,1.3414634466171265,2.3475611209869385,6.0,-15.300000190734863,3.0,40.60044479370117,0,
 1447408,-0.046630859375,-0.964111328125,-0.131591796875,-3.2317073345184326,0.9756097793579102,1.9512195587158203,5.25,-14.25,7.5,40.40875244140625,0,
 1447418,-0.045654296875,-0.97412109375,-0.13037109375,-3.0182926654815674,1.1280487775802612,1.7073171138763428,5.25,-14.25,7.5,40.88798141479492,0,
 1447428,-0.04443359375,-0.9716796875,-0.134521484375,-3.2317073345184326,1.0060975551605225,0.7621951103210449,6.599999904632568,-13.649999618530273,7.199999809265137,40.74421310424805,0,
 1447438,-0.04150390625,-0.978515625,-0.129638671875,-3.2926828861236572,1.1280487775802612,0.7317073345184326,7.349999904632568,-14.399999618530273,6.150000095367432,40.9359016418457,0,
 1447448,-0.044921875,-0.982177734375,-0.13427734375,-3.079268455505371,0.792682945728302,0.6707317233085632,6.75,-14.25,7.050000190734863,40.79213333129883,0,
 1447458,-0.043212890625,-0.982421875,-0.1298828125,-3.5365853309631348,0.7317073345184326,0.9451219439506531,5.099999904632568,-15.149999618530273,7.650000095367432,40.79213333129883,0,
 1447468,-0.048583984375,-0.9765625,-0.130126953125,-4.207317352294922,0.6402438879013062,1.5243902206420898,6.599999904632568,-12.75,6.150000095367432,40.9359016418457,0,
 1447478,-0.04541015625,-0.982177734375,-0.13525390625,-4.634146213531494,0.7012194991111755,1.5243902206420898,7.050000190734863,-13.949999809265137,6.449999809265137,40.74421310424805,0,
 1447488,-0.0390625,-0.985595703125,-0.1337890625,-6.006097793579102,0.7317073345184326,1.5548781156539917,6.449999809265137,-15.0,6.0,40.74421310424805,0,
 1447498,-0.04931640625,-0.978759765625,-0.137939453125,-5.487804889678955,0.8841463327407837,1.4634146690368652,6.449999809265137,-15.75,2.549999952316284,40.6962890625,0,
 1447508,-0.04638671875,-0.969970703125,-0.14404296875,-6.067073345184326,0.8231707215309143,1.2804877758026123,6.449999809265137,-15.75,2.549999952316284,40.9359016418457,0,
 1447518,-0.0439453125,-0.967041015625,-0.13916015625,-5.853658676147461,0.6707317233085632,0.8841463327407837,4.949999809265137,-16.200000762939453,6.300000190734863,40.79213333129883,0,
 1447528,-0.04736328125,-0.965576171875,-0.143798828125,-5.121951103210449,0.4878048896789551,0.5487805008888245,6.449999809265137,-14.25,4.5,40.79213333129883,0,
 1447538,-0.0400390625,-0.96923828125,-0.13720703125,-4.115853786468506,-0.12195122241973877,0.18292683362960815,7.5,-15.0,7.050000190734863,40.88798141479492,0,
 1447548,-0.048828125,-0.9716796875,-0.140625,-4.1768293380737305,0.3048780560493469,0.15243902802467346,7.5,-15.0,7.050000190734863,40.60044479370117,0,
 1447558,-0.046875,-0.969970703125,-0.146240234375,-4.5731706619262695,0.3048780560493469,-0.060975611209869385,7.349999904632568,-13.949999809265137,4.650000095367432,40.60044479370117,0,
 1447569,-0.048095703125,-0.968505859375,-0.145751953125,-4.054878234863281,0.060975611209869385,0.030487805604934692,5.400000095367432,-15.600000381469727,5.699999809265137,41.127593994140625,0,
 1447579,-0.0478515625,-0.975341796875,-0.1435546875,-3.9634146690368652,-0.060975611209869385,-0.15243902802467346,5.849999904632568,-14.399999618530273,5.400000095367432,40.79213333129883,0,
 1447589,-0.0458984375,-0.9794921875,-0.14501953125,-4.1768293380737305,0.21341463923454285,-0.6402438879013062,5.849999904632568,-14.399999618530273,5.400000095367432,40.79213333129883,0,
 1447599,-0.041748046875,-0.979248046875,-0.142822265625,-4.542683124542236,0.12195122241973877,-0.6402438879013062,7.5,-14.550000190734863,5.25,40.6962890625,0,
 1447609,-0.038330078125,-0.9736328125,-0.145263671875,-5.060975551605225,0.09146341681480408,-0.7012194991111755,6.75,-15.75,4.800000190734863,40.79213333129883,0,
 1447639,-0.047119140625,-0.971435546875,-0.148681640625,-4.481707572937012,0.060975611209869385,-1.1280487775802612,6.449999809265137,-14.550000190734863,5.25,40.6962890625,0,
 1447649,-0.044677734375,-0.972412109375,-0.1484375,-4.390244007110596,-0.060975611209869385,-0.5487805008888245,6.300000190734863,-13.949999809265137,4.650000095367432,40.60044479370117,0,
 1447659,-0.046875,-0.9736328125,-0.15087890625,-4.6646342277526855,-0.15243902802467346,-0.5487805008888245,5.400000095367432,-14.399999618530273,4.949999809265137,40.74421310424805,0,
 1447669,-0.043701171875,-0.962890625,-0.154541015625,-4.908536911010742,0.0,-0.4878048896789551,5.400000095367432,-14.399999618530273,4.949999809265137,40.9359016418457,0,
 1447679,-0.041748046875,-0.95751953125,-0.154052734375,-4.603658676147461,0.09146341681480408,-0.15243902802467346,6.449999809265137,-14.550000190734863,7.050000190734863,40.74421310424805,0,
 1447689,-0.04296875,-0.961669921875,-0.1533203125,-3.567073345184326,-0.030487805604934692,-0.4878048896789551,7.349999904632568,-14.850000381469727,6.150000095367432,40.74421310424805,0,
 1447699,-0.03759765625,-0.956298828125,-0.156494140625,-2.7439024448394775,-0.15243902802467346,-0.4268292784690857,3.5999999046325684,-13.199999809265137,4.199999809265137,40.88798141479492,0,
 1447709,-0.042724609375,-0.9541015625,-0.159912109375,-2.0426828861236572,-0.5182926654815674,-0.3048780560493469,3.5999999046325684,-13.199999809265137,4.199999809265137,40.9359016418457,0,
 1447719,-0.041259765625,-0.9599609375,-0.160888671875,-1.585365891456604,-0.4268292784690857,-0.030487805604934692,5.849999904632568,-14.399999618530273,7.199999809265137,40.9359016418457,0,
 1447729,-0.043701171875,-0.962646484375,-0.1484375,-0.4573170840740204,0.0,-0.030487805604934692,5.25,-16.5,7.050000190734863,40.88798141479492,0,
 1447739,-0.0576171875,-0.984619140625,-0.146484375,-1.0365853309631348,-0.060975611209869385,0.4878048896789551,4.949999809265137,-15.300000190734863,5.550000190734863,40.50459671020508,0,
 1447749,-0.034423828125,-0.9453125,-0.1630859375,0.6402438879013062,-0.4573170840740204,1.25,5.400000095367432,-13.949999809265137,6.449999809265137,40.9359016418457,0,
 1447759,-0.050048828125,-0.972900390625,-0.15478515625,0.396341472864151,-0.15243902802467346,1.3109756708145142,6.599999904632568,-15.149999618530273,5.699999809265137,40.79213333129883,0,
 1447769,-0.044189453125,-0.951904296875,-0.158935546875,0.7621951103210449,-0.5182926654815674,1.3414634466171265,6.599999904632568,-14.399999618530273,5.699999809265137,41.0317497253418,0,
 1447779,-0.040283203125,-0.96630859375,-0.146240234375,0.7621951103210449,-0.3353658616542816,1.2804877758026123,5.699999809265137,-13.800000190734863,5.550000190734863,40.79213333129883,0,
 1447789,-0.042236328125,-0.97412109375,-0.153076171875,0.060975611209869385,-0.060975611209869385,1.6158536672592163,6.599999904632568,-16.350000381469727,6.150000095367432,40.6962890625,0,
 1447799,-0.044677734375,-0.969482421875,-0.151123046875,-0.396341472864151,0.24390244483947754,1.4634146690368652,6.599999904632568,-16.350000381469727,6.150000095367432,40.88798141479492,0,
 1447809,-0.044189453125,-0.977783203125,-0.1484375,-1.3719512224197388,0.030487805604934692,1.402438998222351,7.349999904632568,-15.600000381469727,6.449999809265137,40.6962890625,0,
 1447819,-0.044921875,-0.968505859375,-0.154296875,-1.5548781156539917,0.3048780560493469,1.432926893234253,7.050000190734863,-14.850000381469727,6.449999809265137,40.60044479370117,0,
 1447829,-0.038818359375,-0.968017578125,-0.153564453125,-1.1585365533828735,0.12195122241973877,1.3719512224197388,5.849999904632568,-15.899999618530273,5.699999809265137,40.79213333129883,0,
 1447839,-0.044921875,-0.962890625,-0.144775390625,-0.6097561120986938,0.21341463923454285,1.1280487775802612,5.849999904632568,-15.899999618530273,5.699999809265137,40.60044479370117,0,
 1447849,-0.046142578125,-0.963134765625,-0.156982421875,-0.15243902802467346,0.12195122241973877,0.7317073345184326,5.699999809265137,-15.0,7.800000190734863,40.79213333129883,0,
 1447859,-0.048583984375,-0.95849609375,-0.15478515625,0.12195122241973877,0.18292683362960815,1.0365853309631348,5.849999904632568,-15.149999618530273,6.150000095367432,40.79213333129883,0,
 1447869,-0.045654296875,-0.975341796875,-0.153564453125,-0.060975611209869385,-0.030487805604934692,1.25,6.300000190734863,-14.399999618530273,6.150000095367432,40.79213333129883,0,
 1447879,-0.041259765625,-0.96923828125,-0.150390625,0.09146341681480408,-0.030487805604934692,1.097561001777649,6.300000190734863,-14.399999618530273,6.150000095367432,40.74421310424805,0,
 1447889,-0.04638671875,-0.96923828125,-0.15185546875,0.060975611209869385,0.09146341681480408,1.3414634466171265,4.5,-16.200000762939453,6.300000190734863,40.74421310424805,0,
 1447899,-0.050537109375,-0.974609375,-0.150146484375,-0.3658536672592163,0.18292683362960815,1.3109756708145142,5.400000095367432,-14.850000381469727,6.900000095367432,40.79213333129883,0,
 1447909,-0.04052734375,-0.972900390625,-0.1533203125,-0.8536585569381714,0.21341463923454285,1.432926893234253,4.949999809265137,-14.25,3.299999952316284,40.9359016418457,0,
 1447919,-0.043701171875,-0.974609375,-0.14794921875,-1.4634146690368652,0.3048780560493469,1.432926893234253,4.949999809265137,-14.25,3.299999952316284,40.79213333129883,0,
 1447929,-0.04345703125,-0.966796875,-0.15087890625,-1.737804889678955,0.21341463923454285,1.585365891456604,5.099999904632568,-14.850000381469727,6.150000095367432,41.0317497253418,0,
 1447939,-0.046142578125,-0.97119140625,-0.14892578125,-2.103658676147461,0.24390244483947754,1.5548781156539917,5.25,-15.0,6.300000190734863,40.552520751953125,0,
 1447949,-0.04833984375,-0.96533203125,-0.14794921875,-1.920731782913208,0.3658536672592163,1.25,7.199999809265137,-15.0,6.75,40.9359016418457,0,
 1447959,-0.048095703125,-0.967041015625,-0.152587890625,-2.2865853309631348,0.3048780560493469,1.7073171138763428,7.199999809265137,-15.0,6.75,40.9359016418457,0,
 1447969,-0.0439453125,-0.968994140625,-0.158447265625,-2.3475611209869385,0.4878048896789551,1.3109756708145142,4.199999809265137,-15.0,7.5,40.79213333129883,0,
 1447979,-0.047607421875,-0.973388671875,-0.15625,-2.408536672592163,-0.060975611209869385,1.0365853309631348,3.75,-15.0,6.75,40.74421310424805,0,
 1447989,-0.051513671875,-0.964111328125,-0.152587890625,-2.5304877758026123,0.24390244483947754,0.7621951103210449,7.050000190734863,-15.149999618530273,6.150000095367432,40.74421310424805,0,
 1447999,-0.04248046875,-0.966064453125,-0.15673828125,-2.4695122241973877,0.3048780560493469,0.27439025044441223,7.050000190734863,-15.149999618530273,6.150000095367432,40.6962890625,0,
 1448009,-0.053955078125,-0.95947265625,-0.152099609375,-2.195122003555298,-0.060975611209869385,0.27439025044441223,7.349999904632568,-15.149999618530273,3.1500000953674316,40.79213333129883,0,
 1448019,-0.048095703125,-0.963134765625,-0.16015625,-1.6768293380737305,0.12195122241973877,0.3658536672592163,6.599999904632568,-13.949999809265137,7.949999809265137,40.88798141479492,0,
 1448029,-0.0498046875,-0.967041015625,-0.161865234375,-1.402438998222351,0.12195122241973877,0.030487805604934692,6.0,-14.550000190734863,6.300000190734863,40.79213333129883,0,
 1448039,-0.05078125,-0.974853515625,-0.155029296875,-1.8902438879013062,0.4573170840740204,0.5792682766914368,4.349999904632568,-14.850000381469727,6.449999809265137,40.79213333129883,0,
 1448049,-0.046875,-0.977294921875,-0.16259765625,-2.378048896789551,0.4268292784690857,0.7012194991111755,6.599999904632568,-13.649999618530273,4.949999809265137,40.60044479370117,0,
 1448059,-0.0517578125,-0.979248046875,-0.15087890625,-2.7134146690368652,0.27439025044441223,1.0670732259750366,7.199999809265137,-14.25,7.5,40.88798141479492,0,
 1448069,-0.048828125,-0.97607421875,-0.158203125,-3.658536672592163,0.3658536672592163,1.402438998222351,7.050000190734863,-15.149999618530273,6.900000095367432,40.79213333129883,0,
 1448079,-0.046142578125,-0.965576171875,-0.15380859375,-4.2682929039001465,0.6402438879013062,1.7987805604934692,7.050000190734863,-14.399999618530273,6.449999809265137,40.74421310424805,0,
 1448089,-0.049560546875,-0.96630859375,-0.15869140625,-4.5731706619262695,0.8231707215309143,1.6158536672592163,7.050000190734863,-14.399999618530273,6.449999809265137,40.6962890625,0,
 1448099,-0.05029296875,-0.963134765625,-0.1552734375,-4.969512462615967,0.4268292784690857,1.4939024448394775,5.699999809265137,-15.300000190734863,6.300000190734863,40.79213333129883,0,
 1448109,-0.048583984375,-0.963134765625,-0.162841796875,-4.72560977935791,0.5182926654815674,1.6463414430618286,5.699999809265137,-13.350000381469727,5.25,40.6962890625,0,
 1448119,-0.05126953125,-0.9658203125,-0.16455078125,-4.207317352294922,0.4878048896789551,1.432926893234253,7.199999809265137,-13.800000190734863,7.5,40.79213333129883,0,
 1448129,-0.052490234375,-0.9716796875,-0.15966796875,-3.9634146690368652,0.4878048896789551,1.585365891456604,7.199999809265137,-13.800000190734863,7.5,40.79213333129883,0,
 1448139,-0.056396484375,-0.972412109375,-0.159423828125,-3.9634146690368652,0.6402438879013062,1.1890244483947754,6.300000190734863,-15.600000381469727,6.150000095367432,40.6962890625,0,
 1448149,-0.05224609375,-0.967529296875,-0.162841796875,-3.9634146690368652,0.5792682766914368,0.8841463327407837,4.650000095367432,-12.75,9.149999618530273,40.74421310424805,0,
 1448159,-0.042724609375,-0.96826171875,-0.164306640625,-4.2682929039001465,0.6707317233085632,0.792682945728302,7.199999809265137,-15.300000190734863,8.25,40.74421310424805,0,
 1448169,-0.04833984375,-0.963134765625,-0.166259765625,-3.5975611209869385,0.3658536672592163,0.8841463327407837,7.199999809265137,-15.300000190734863,8.25,40.79213333129883,0,
 1448179,-0.05322265625,-0.958984375,-0.16943359375,-3.1402440071105957,0.15243902802467346,0.5487805008888245,5.400000095367432,-15.149999618530273,3.9000000953674316,40.3608283996582,0,
 1448189,-0.052001953125,-0.968505859375,-0.1650390625,-2.8353660106658936,0.3353658616542816,0.21341463923454285,5.400000095367432,-14.850000381469727,7.650000095367432,40.74421310424805,0,
 1448199,-0.0498046875,-0.96875,-0.163330078125,-2.804877996444702,0.5182926654815674,-0.030487805604934692,5.099999904632568,-14.399999618530273,6.150000095367432,40.79213333129883,0,
 1448209,-0.045166015625,-0.9638671875,-0.1630859375,-3.0182926654815674,0.4268292784690857,0.3048780560493469,5.099999904632568,-14.399999618530273,6.150000095367432,40.88798141479492,0,
 1448219,-0.045654296875,-0.970703125,-0.164306640625,-3.1097562313079834,0.396341472864151,0.5792682766914368,5.25,-16.200000762939453,6.0,40.6962890625,0,
 1448229,-0.045654296875,-0.966064453125,-0.167724609375,-3.2317073345184326,0.3353658616542816,0.7621951103210449,6.599999904632568,-13.649999618530273,6.900000095367432,40.50459671020508,0,
 1448239,-0.05078125,-0.97119140625,-0.1650390625,-3.0487804412841797,0.4878048896789551,1.0365853309631348,6.300000190734863,-14.399999618530273,7.650000095367432,40.79213333129883,0,
 1448249,-0.048095703125,-0.969482421875,-0.167236328125,-2.7134146690368652,0.4573170840740204,1.432926893234253,6.300000190734863,-14.399999618530273,7.650000095367432,40.79213333129883,0,
 1448259,-0.05126953125,-0.96728515625,-0.167236328125,-2.317073106765747,0.24390244483947754,1.25,4.949999809265137,-14.25,7.050000190734863,40.88798141479492,0,
 1448269,-0.048828125,-0.96728515625,-0.1689453125,-2.1646342277526855,0.3048780560493469,0.8536585569381714,5.849999904632568,-14.850000381469727,6.900000095367432,41.0317497253418,0,
 1448279,-0.057373046875,-0.963623046875,-0.168701171875,-1.4634146690368652,0.4573170840740204,0.7621951103210449,6.449999809265137,-13.050000190734863,7.800000190734863,40.60044479370117,0,
 1448289,-0.0498046875,-0.95654296875,-0.166015625,-0.7621951103210449,0.15243902802467346,0.3353658616542816,6.599999904632568,-16.350000381469727,6.449999809265137,41.0317497253418,0,
 1448299,-0.05029296875,-0.953125,-0.175048828125,-0.15243902802467346,0.18292683362960815,0.15243902802467346,6.449999809265137,-15.300000190734863,7.5,40.79213333129883,0,
 1448309,-0.048583984375,-0.953369140625,-0.171142578125,1.097561001777649,0.060975611209869385,0.0,6.300000190734863,-16.350000381469727,6.900000095367432,40.79213333129883,0,
 1448319,-0.047119140625,-0.954345703125,-0.169677734375,2.012195110321045,-0.18292683362960815,-0.4268292784690857,7.5,-16.200000762939453,4.800000190734863,40.74421310424805,0,
 1448330,-0.048583984375,-0.959716796875,-0.1748046875,2.682926893234253,-0.27439025044441223,-0.27439025044441223,5.400000095367432,-15.149999618530273,6.449999809265137,40.552520751953125,0,
 1448340,-0.051513671875,-0.9609375,-0.166259765625,2.2865853309631348,-0.3048780560493469,-0.7012194991111755,5.400000095367432,-15.149999618530273,6.449999809265137,40.88798141479492,0,
 1448350,-0.053955078125,-0.970947265625,-0.171142578125,2.682926893234253,-0.3048780560493469,-0.6402438879013062,6.0,-15.0,6.0,40.74421310424805,0,
 1448360,-0.05419921875,-0.96728515625,-0.166748046875,2.6524391174316406,-0.060975611209869385,-0.27439025044441223,6.300000190734863,-14.850000381469727,5.699999809265137,40.88798141479492,0,
 1448370,-0.046875,-0.96875,-0.173095703125,1.920731782913208,-0.3658536672592163,-0.7012194991111755,6.0,-13.800000190734863,6.0,40.9359016418457,0,
 1448380,-0.045166015625,-0.9677734375,-0.16064453125,1.737804889678955,-0.12195122241973877,-0.4573170840740204,6.0,-13.800000190734863,6.0,40.50459671020508,0,
 1448390,-0.046630859375,-0.97412109375,-0.167236328125,1.7987805604934692,-0.21341463923454285,0.09146341681480408,6.75,-14.25,6.0,40.79213333129883,0,
 1448400,-0.053466796875,-0.97607421875,-0.159912109375,1.7987805604934692,0.09146341681480408,-0.060975611209869385,5.849999904632568,-15.149999618530273,6.150000095367432,40.74421310424805,0,
 1448410,-0.04833984375,-0.979736328125,-0.154541015625,1.0060975551605225,0.27439025044441223,0.21341463923454285,6.75,-15.300000190734863,6.75,40.74421310424805,0,
 1448420,-0.05078125,-0.9677734375,-0.164794921875,0.3353658616542816,0.24390244483947754,0.5182926654815674,6.75,-15.300000190734863,6.75,40.9359016418457,0,
 1448430,-0.05615234375,-0.97021484375,-0.165771484375,0.4573170840740204,0.18292683362960815,0.7012194991111755,7.199999809265137,-15.75,7.5,40.60044479370117,0,
 1448440,-0.04833984375,-0.964111328125,-0.166748046875,-0.030487805604934692,0.060975611209869385,0.9451219439506531,7.050000190734863,-13.949999809265137,4.650000095367432,40.79213333129883,0,
 1448450,-0.046630859375,-0.966552734375,-0.17041015625,0.7621951103210449,0.12195122241973877,0.5182926654815674,6.599999904632568,-13.649999618530273,4.199999809265137,40.9359016418457,0,
 1448460,-0.045166015625,-0.953857421875,-0.166259765625,1.25,0.0,0.7317073345184326,6.599999904632568,-13.649999618530273,4.199999809265137,40.74421310424805,0,
 1448470,-0.053955078125,-0.950927734375,-0.16796875,2.1646342277526855,-0.15243902802467346,0.3048780560493469,6.0,-14.25,6.0,40.79213333129883,0,
 1448480,-0.0517578125,-0.95703125,-0.1630859375,2.591463565826416,0.09146341681480408,0.15243902802467346,5.25,-16.950000762939453,6.75,40.6962890625,0,
 1448490,-0.056884765625,-0.968017578125,-0.1611328125,2.77439022064209,-0.18292683362960815,0.18292683362960815,6.599999904632568,-15.899999618530273,7.199999809265137,40.50459671020508,0,
 1448500,-0.0537109375,-0.965576171875,-0.162353515625,2.6524391174316406,-0.4268292784690857,-0.060975611209869385,6.599999904632568,-15.899999618530273,7.199999809265137,40.79213333129883,0,
 1448510,-0.05126953125,-0.966552734375,-0.16357421875,2.9268293380737305,-0.15243902802467346,0.060975611209869385,6.0,-14.25,5.25,40.88798141479492,0,
 1448520,-0.053466796875,-0.97021484375,-0.16162109375,2.896341562271118,-0.030487805604934692,0.15243902802467346,7.949999809265137,-14.25,3.75,40.6962890625,0,
 1448530,-0.05029296875,-0.96435546875,-0.1572265625,3.170731782913208,-0.15243902802467346,0.09146341681480408,7.050000190734863,-14.399999618530273,5.699999809265137,40.40875244140625,0,
 1448550,-0.051025390625,-0.967529296875,-0.158935546875,3.2926828861236572,-0.09146341681480408,0.24390244483947754,6.75,-14.25,5.550000190734863,40.88798141479492,0,
 1448560,-0.0517578125,-0.97021484375,-0.15869140625,3.1097562313079834,-0.21341463923454285,-0.12195122241973877,6.75,-15.75,5.25,41.0317497253418,0,
 1448570,-0.04931640625,-0.96826171875,-0.153076171875,2.987804889678955,0.09146341681480408,-0.24390244483947754,6.300000190734863,-13.949999809265137,6.449999809265137,40.6962890625,0,
 1448580,-0.044921875,-0.974365234375,-0.154541015625,2.5609755516052246,-0.15243902802467346,0.24390244483947754,6.300000190734863,-13.949999809265137,6.449999809265137,40.60044479370117,0,
 1448590,-0.050537109375,-0.973388671875,-0.15087890625,2.4390244483947754,-0.060975611209869385,0.6707317233085632,5.699999809265137,-15.300000190734863,6.75,40.74421310424805,0,
 1448600,-0.0517578125,-0.971923828125,-0.155029296875,2.2560975551605225,-0.21341463923454285,0.8841463327407837,7.050000190734863,-14.850000381469727,6.449999809265137,40.74421310424805,0,
 1448610,-0.054931640625,-0.95703125,-0.1533203125,2.103658676147461,0.3658536672592163,0.7621951103210449,5.099999904632568,-15.899999618530273,6.150000095367432,40.40875244140625,0,
 1448620,-0.052734375,-0.969970703125,-0.1513671875,2.4390244483947754,-0.27439025044441223,0.8536585569381714,6.300000190734863,-13.649999618530273,5.699999809265137,40.88798141479492,0,
 1448630,-0.046142578125,-0.966796875,-0.16064453125,2.1646342277526855,0.030487805604934692,0.792682945728302,6.300000190734863,-13.649999618530273,5.699999809265137,40.88798141479492,0,
 1448640,-0.051025390625,-0.96923828125,-0.154296875,2.5609755516052246,0.060975611209869385,0.8536585569381714,7.5,-14.550000190734863,5.550000190734863,40.6962890625,0,
 1448650,-0.04638671875,-0.966064453125,-0.1572265625,2.896341562271118,-0.18292683362960815,0.7317073345184326,7.5,-14.550000190734863,6.0,40.79213333129883,0,
 1448660,-0.05078125,-0.976806640625,-0.15283203125,3.0487804412841797,-0.12195122241973877,0.8841463327407837,7.949999809265137,-15.0,7.050000190734863,40.9359016418457,0,
 1448670,-0.05029296875,-0.968505859375,-0.148193359375,2.896341562271118,0.15243902802467346,0.7317073345184326,7.949999809265137,-15.0,7.050000190734863,40.74421310424805,0,
 1448680,-0.05078125,-0.9716796875,-0.150634765625,2.5,-0.21341463923454285,1.097561001777649,8.399999618530273,-15.0,6.75,40.9359016418457,0,
 1448690,-0.05322265625,-0.97216796875,-0.148193359375,2.2865853309631348,0.24390244483947754,0.9146341681480408,7.800000190734863,-15.149999618530273,6.150000095367432,40.74421310424805,0,
 1448700,-0.05615234375,-0.976806640625,-0.14990234375,2.317073106765747,0.030487805604934692,1.0060975551605225,6.75,-14.25,7.050000190734863,40.74421310424805,0,
 1448710,-0.05419921875,-0.974365234375,-0.148193359375,1.8292683362960815,0.030487805604934692,0.8231707215309143,6.75,-14.25,7.050000190734863,40.60044479370117,0,
 1448720,-0.0498046875,-0.96875,-0.14892578125,1.8902438879013062,0.09146341681480408,0.7012194991111755,4.349999904632568,-13.199999809265137,7.199999809265137,40.552520751953125,0,
 1448730,-0.0556640625,-0.96533203125,-0.149658203125,1.6768293380737305,-0.060975611209869385,0.6402438879013062,5.849999904632568,-15.149999618530273,5.699999809265137,40.88798141479492,0,
 1448740,-0.0546875,-0.967041015625,-0.1533203125,2.0426828861236572,-0.15243902802467346,0.396341472864151,5.400000095367432,-14.850000381469727,6.150000095367432,40.74421310424805,0,
 1448750,-0.052734375,-0.967041015625,-0.153564453125,2.4695122241973877,0.030487805604934692,0.396341472864151,5.400000095367432,-14.850000381469727,6.150000095367432,40.88798141479492,0,
 1448760,-0.051513671875,-0.9658203125,-0.15185546875,2.591463565826416,0.060975611209869385,0.5792682766914368,5.849999904632568,-13.949999809265137,6.900000095367432,40.79213333129883,0,
 1448770,-0.054443359375,-0.973876953125,-0.1416015625,2.3475611209869385,-0.060975611209869385,0.7012194991111755,3.75,-14.25,5.550000190734863,40.6962890625,0,
 1448780,-0.04736328125,-0.971435546875,-0.142822265625,1.6768293380737305,-0.12195122241973877,0.6707317233085632,7.050000190734863,-14.399999618530273,5.699999809265137,40.74421310424805,0,
 1448790,-0.054931640625,-0.973388671875,-0.140380859375,1.0060975551605225,0.3353658616542816,1.1890244483947754,7.050000190734863,-14.399999618530273,5.699999809265137,40.79213333129883,0,
 1448800,-0.0537109375,-0.972412109375,-0.14208984375,0.8841463327407837,0.27439025044441223,0.9756097793579102,7.199999809265137,-13.350000381469727,7.5,40.74421310424805,0,
 1448810,-0.0546875,-0.96826171875,-0.146484375,0.7317073345184326,0.5792682766914368,1.2804877758026123,5.099999904632568,-15.899999618530273,7.650000095367432,40.74421310424805,0,
 1448820,-0.054443359375,-0.968505859375,-0.14794921875,0.7317073345184326,0.21341463923454285,1.1585365533828735,4.949999809265137,-15.0,6.300000190734863,40.60044479370117,0,
 1448830,-0.05078125,-0.96435546875,-0.14208984375,0.5182926654815674,0.15243902802467346,1.2804877758026123,4.949999809265137,-15.0,6.300000190734863,40.79213333129883,0,
 1448840,-0.0595703125,-0.970947265625,-0.141845703125,0.7621951103210449,0.09146341681480408,0.8841463327407837,5.25,-15.0,7.050000190734863,40.74421310424805,0,
 1448850,-0.057373046875,-0.962890625,-0.146728515625,1.0670732259750366,0.18292683362960815,0.5487805008888245,6.449999809265137,-13.050000190734863,6.300000190734863,40.60044479370117,0,
 1448860,-0.0537109375,-0.96923828125,-0.14697265625,1.3109756708145142,0.0,0.6402438879013062,6.449999809265137,-15.0,4.800000190734863,40.79213333129883,0,
 1448870,-0.05029296875,-0.969970703125,-0.140625,1.097561001777649,-0.060975611209869385,0.030487805604934692,6.449999809265137,-15.0,4.800000190734863,40.60044479370117,0,
 1448880,-0.05322265625,-0.97607421875,-0.13818359375,1.3109756708145142,0.15243902802467346,0.4878048896789551,6.449999809265137,-13.050000190734863,7.050000190734863,40.9359016418457,0,
 1448890,-0.0478515625,-0.975830078125,-0.1357421875,0.8536585569381714,-0.09146341681480408,-0.3353658616542816,7.349999904632568,-14.399999618530273,6.900000095367432,41.0317497253418,0,
 1448900,-0.05126953125,-0.973388671875,-0.142578125,0.4268292784690857,0.060975611209869385,-0.030487805604934692,7.199999809265137,-14.25,6.0,40.9359016418457,0,
 1448910,-0.057861328125,-0.97509765625,-0.140625,0.12195122241973877,0.3658536672592163,0.27439025044441223,5.849999904632568,-14.850000381469727,7.650000095367432,41.0317497253418,0,
 1448920,-0.052490234375,-0.97412109375,-0.145263671875,-0.4878048896789551,0.396341472864151,-0.060975611209869385,6.75,-15.0,6.75,40.6962890625,0,
 1448930,-0.0537109375,-0.97314453125,-0.14208984375,-0.24390244483947754,0.3048780560493469,0.030487805604934692,7.050000190734863,-13.199999809265137,2.700000047683716,40.79213333129883,0,
 1448940,-0.0556640625,-0.972412109375,-0.143310546875,-0.3353658616542816,0.09146341681480408,0.030487805604934692,6.449999809265137,-15.0,6.300000190734863,40.9359016418457,0,
 1448950,-0.0498046875,-0.97509765625,-0.146484375,0.12195122241973877,0.21341463923454285,-0.060975611209869385,6.300000190734863,-14.850000381469727,5.699999809265137,40.88798141479492,0,
 1448960,-0.052490234375,-0.97509765625,-0.14111328125,-0.18292683362960815,0.18292683362960815,0.0,6.300000190734863,-14.850000381469727,5.699999809265137,40.74421310424805,0,
 1448970,-0.05126953125,-0.973876953125,-0.144287109375,0.3658536672592163,-0.12195122241973877,-0.060975611209869385,6.300000190734863,-14.399999618530273,5.400000095367432,40.60044479370117,0,
 1448980,-0.059814453125,-0.971923828125,-0.150146484375,-0.060975611209869385,0.18292683362960815,-0.12195122241973877,6.300000190734863,-14.850000381469727,6.449999809265137,40.79213333129883,0,
