timestamp,accl_x,accl_y,accl_z,gyro_x,gyro_y,gyro_z,mag_x,mag_y,mag_z,temp,emg,
 2346181,-0.09912109375,-0.949951171875,-0.244384765625,-0.3353658616542816,0.5182926654815674,0.5792682766914368,8.550000190734863,-16.350000381469727,6.900000095367432,40.88798141479492,0,
 2346191,-0.103759765625,-0.948974609375,-0.2421875,-0.4878048896789551,0.060975611209869385,0.24390244483947754,8.550000190734863,-16.350000381469727,6.900000095367432,40.88798141479492,0,
 2346201,-0.103271484375,-0.949462890625,-0.24072265625,-0.6097561120986938,0.5487805008888245,0.3353658616542816,7.5,-15.75,7.5,40.88798141479492,0,
 2346211,-0.100830078125,-0.9501953125,-0.2421875,-0.24390244483947754,0.18292683362960815,0.3353658616542816,8.699999809265137,-15.0,7.050000190734863,40.79213333129883,0,
 2346221,-0.10302734375,-0.947509765625,-0.23779296875,-0.15243902802467346,0.24390244483947754,0.3658536672592163,6.75,-16.200000762939453,7.800000190734863,41.0317497253418,0,
 2346231,-0.09716796875,-0.94775390625,-0.2421875,-0.3658536672592163,0.15243902802467346,0.396341472864151,6.75,-16.200000762939453,7.800000190734863,40.74421310424805,0,
 2346241,-0.1015625,-0.95361328125,-0.236328125,0.15243902802467346,0.3048780560493469,0.4268292784690857,7.800000190734863,-14.850000381469727,6.449999809265137,40.79213333129883,0,
 2346251,-0.1064453125,-0.947021484375,-0.236572265625,-0.15243902802467346,0.15243902802467346,0.5487805008888245,6.599999904632568,-15.600000381469727,7.199999809265137,41.0317497253418,0,
 2346261,-0.1015625,-0.947998046875,-0.244384765625,0.3658536672592163,0.4573170840740204,0.4268292784690857,7.800000190734863,-14.850000381469727,6.449999809265137,40.9359016418457,0,
 2346271,-0.10009765625,-0.950927734375,-0.242431640625,0.5182926654815674,0.4268292784690857,0.4878048896789551,7.800000190734863,-14.850000381469727,6.449999809265137,41.0317497253418,0,
 2346281,-0.1005859375,-0.949462890625,-0.23828125,0.6097561120986938,0.21341463923454285,0.4268292784690857,7.050000190734863,-15.600000381469727,7.199999809265137,41.0317497253418,0,
 2346291,-0.099609375,-0.9482421875,-0.24365234375,0.8231707215309143,0.09146341681480408,0.3353658616542816,7.5,-14.550000190734863,7.050000190734863,40.74421310424805,0,
 2346301,-0.0966796875,-0.95361328125,-0.2412109375,0.6402438879013062,0.3353658616542816,0.4878048896789551,7.800000190734863,-16.350000381469727,7.949999809265137,40.9359016418457,0,
 2346311,-0.10009765625,-0.94384765625,-0.23876953125,0.5792682766914368,0.18292683362960815,0.6097561120986938,6.300000190734863,-14.399999618530273,7.199999809265137,40.9359016418457,0,
 2346321,-0.105224609375,-0.9482421875,-0.239013671875,0.5792682766914368,0.3353658616542816,0.396341472864151,7.800000190734863,-15.899999618530273,7.199999809265137,40.88798141479492,0,
 2346331,-0.102783203125,-0.95166015625,-0.239013671875,1.0060975551605225,0.060975611209869385,0.5792682766914368,8.550000190734863,-13.949999809265137,6.449999809265137,41.0317497253418,0,
 2346341,-0.095947265625,-0.955322265625,-0.232666015625,0.7621951103210449,0.24390244483947754,0.3048780560493469,7.349999904632568,-15.149999618530273,6.449999809265137,41.0317497253418,0,
 2346351,-0.104248046875,-0.951171875,-0.23974609375,0.4878048896789551,0.21341463923454285,0.5487805008888245,8.550000190734863,-15.149999618530273,8.699999809265137,40.79213333129883,0,
 2346361,-0.102294921875,-0.957763671875,-0.23779296875,-0.3048780560493469,0.24390244483947754,0.3353658616542816,8.550000190734863,-15.149999618530273,8.699999809265137,41.127593994140625,0,
 2346371,-0.104736328125,-0.950927734375,-0.233154296875,-0.4268292784690857,0.3658536672592163,0.12195122241973877,8.399999618530273,-15.0,8.25,41.0317497253418,0,
 2346401,-0.10400390625,-0.952880859375,-0.237060546875,-0.396341472864151,0.3353658616542816,0.24390244483947754,7.199999809265137,-16.200000762939453,7.050000190734863,41.0317497253418,0,
 2346411,-0.105224609375,-0.951416015625,-0.23876953125,-0.792682945728302,0.4878048896789551,0.5487805008888245,8.699999809265137,-16.200000762939453,9.0,40.9359016418457,0,
 2346421,-0.10400390625,-0.957275390625,-0.23974609375,-1.0670732259750366,0.396341472864151,-0.09146341681480408,7.949999809265137,-16.5,7.800000190734863,41.0317497253418,0,
 2346431,-0.1064453125,-0.94775390625,-0.235595703125,-0.5182926654815674,0.4573170840740204,0.030487805604934692,7.949999809265137,-15.300000190734863,8.550000190734863,40.9359016418457,0,
 2346441,-0.103515625,-0.947021484375,-0.240478515625,-0.3658536672592163,0.396341472864151,0.24390244483947754,7.949999809265137,-15.300000190734863,8.550000190734863,41.0317497253418,0,
 2346451,-0.103515625,-0.95556640625,-0.241943359375,-0.3658536672592163,0.24390244483947754,0.3658536672592163,6.75,-16.200000762939453,8.550000190734863,41.07966995239258,0,
 2346461,-0.103515625,-0.94482421875,-0.2421875,0.0,0.27439025044441223,0.030487805604934692,8.100000381469727,-12.75,6.900000095367432,41.0317497253418,0,
 2346471,-0.09912109375,-0.948974609375,-0.23779296875,0.3658536672592163,0.4573170840740204,0.030487805604934692,10.199999809265137,-14.25,9.75,40.79213333129883,0,
 2346481,-0.101806640625,-0.947265625,-0.239013671875,0.09146341681480408,0.12195122241973877,0.15243902802467346,10.199999809265137,-14.25,9.75,40.79213333129883,0,
 2346491,-0.095458984375,-0.95263671875,-0.233154296875,0.030487805604934692,0.27439025044441223,0.030487805604934692,7.349999904632568,-16.350000381469727,6.150000095367432,40.74421310424805,0,
 2346501,-0.09912109375,-0.947998046875,-0.244140625,0.18292683362960815,0.18292683362960815,0.12195122241973877,8.550000190734863,-16.350000381469727,8.699999809265137,40.9359016418457,0,
 2346521,-0.097900390625,-0.952880859375,-0.241943359375,0.18292683362960815,0.24390244483947754,0.3048780560493469,7.949999809265137,-14.550000190734863,7.5,41.22344207763672,0,
 2346531,-0.09228515625,-0.954833984375,-0.238037109375,0.0,0.27439025044441223,0.27439025044441223,7.949999809265137,-15.300000190734863,7.5,40.74421310424805,0,
 2346541,-0.0947265625,-0.952392578125,-0.23486328125,0.030487805604934692,0.396341472864151,0.060975611209869385,8.100000381469727,-14.850000381469727,6.900000095367432,41.127593994140625,0,
 2346551,-0.098388671875,-0.953857421875,-0.240234375,0.030487805604934692,0.24390244483947754,0.396341472864151,8.550000190734863,-16.799999237060547,8.699999809265137,41.0317497253418,0,
 2346561,-0.103271484375,-0.953857421875,-0.239990234375,-0.21341463923454285,0.3658536672592163,0.24390244483947754,6.75,-15.0,6.300000190734863,40.79213333129883,0,
 2346571,-0.09765625,-0.951171875,-0.232666015625,-0.4268292784690857,0.18292683362960815,0.18292683362960815,6.75,-15.0,6.300000190734863,41.07966995239258,0,
 2346581,-0.103515625,-0.9521484375,-0.235107421875,-0.7317073345184326,0.3658536672592163,-0.27439025044441223,8.850000381469727,-13.949999809265137,7.199999809265137,40.88798141479492,0,
 2346591,-0.10498046875,-0.95458984375,-0.23486328125,-0.7012194991111755,0.15243902802467346,-0.21341463923454285,7.5,-16.200000762939453,6.75,40.88798141479492,0,
 2346601,-0.0966796875,-0.94921875,-0.23828125,-0.9146341681480408,0.4573170840740204,-0.5487805008888245,7.5,-15.75,6.300000190734863,40.9359016418457,0,
 2346621,-0.102783203125,-0.953857421875,-0.243896484375,-0.9756097793579102,0.24390244483947754,-0.3353658616542816,6.300000190734863,-15.149999618530273,6.900000095367432,41.0317497253418,0,
 2346631,-0.096923828125,-0.95556640625,-0.24267578125,-0.9451219439506531,0.5487805008888245,-0.15243902802467346,8.550000190734863,-15.899999618530273,6.449999809265137,40.6962890625,0,
 2346641,-0.0966796875,-0.9482421875,-0.24072265625,-1.3414634466171265,0.15243902802467346,-0.3658536672592163,7.349999904632568,-15.149999618530273,7.199999809265137,41.0317497253418,0,
 2346651,-0.0986328125,-0.9482421875,-0.245361328125,-1.7073171138763428,0.4268292784690857,-0.060975611209869385,7.349999904632568,-15.149999618530273,7.199999809265137,40.88798141479492,0,
 2346661,-0.097900390625,-0.94921875,-0.239990234375,-0.4878048896789551,0.4268292784690857,-0.3048780560493469,7.050000190734863,-15.600000381469727,8.399999618530273,41.0317497253418,0,
 2346671,-0.09814453125,-0.95068359375,-0.232666015625,-0.8231707215309143,0.3048780560493469,-0.3048780560493469,7.050000190734863,-15.899999618530273,6.900000095367432,41.0317497253418,0,
 2346681,-0.100341796875,-0.955322265625,-0.240966796875,-0.7317073345184326,0.3658536672592163,0.060975611209869385,6.75,-15.300000190734863,6.0,40.9359016418457,0,
 2346691,-0.099853515625,-0.958740234375,-0.23193359375,-1.4939024448394775,0.4573170840740204,-0.24390244483947754,6.75,-15.300000190734863,6.0,41.07966995239258,0,
 2346702,-0.101806640625,-0.953125,-0.237060546875,-1.25,0.396341472864151,-0.24390244483947754,7.949999809265137,-14.550000190734863,8.25,41.0317497253418,0,
 2346712,-0.094482421875,-0.952880859375,-0.238037109375,-1.5548781156539917,0.396341472864151,0.030487805604934692,7.349999904632568,-14.850000381469727,7.949999809265137,40.9359016418457,0,
 2346722,-0.09814453125,-0.94775390625,-0.244873046875,-2.103658676147461,0.3658536672592163,0.0,7.199999809265137,-13.350000381469727,7.800000190734863,41.0317497253418,0,
 2346732,-0.10498046875,-0.947265625,-0.240966796875,-1.6158536672592163,0.4573170840740204,-0.030487805604934692,7.199999809265137,-13.350000381469727,7.800000190734863,41.0317497253418,0,
 2346742,-0.096923828125,-0.94970703125,-0.239501953125,-1.3414634466171265,0.5487805008888245,0.4573170840740204,7.800000190734863,-14.850000381469727,7.199999809265137,40.9359016418457,0,
 2346752,-0.09765625,-0.951171875,-0.2421875,-1.3719512224197388,0.4878048896789551,0.4268292784690857,8.850000381469727,-14.850000381469727,7.650000095367432,40.79213333129883,0,
 2346762,-0.09716796875,-0.955322265625,-0.247314453125,-0.8536585569381714,0.5182926654815674,0.4268292784690857,6.599999904632568,-14.850000381469727,6.900000095367432,40.9359016418457,0,
 2346772,-0.0966796875,-0.950927734375,-0.246337890625,-0.8841463327407837,0.15243902802467346,0.5487805008888245,6.75,-16.200000762939453,6.300000190734863,41.0317497253418,0,
 2346782,-0.1025390625,-0.95361328125,-0.243408203125,-0.12195122241973877,0.09146341681480408,0.09146341681480408,6.75,-16.200000762939453,6.300000190734863,40.88798141479492,0,
 2346792,-0.09765625,-0.94921875,-0.23974609375,-0.15243902802467346,0.21341463923454285,0.396341472864151,7.949999809265137,-16.200000762939453,8.25,41.0317497253418,0,
 2346802,-0.09765625,-0.9501953125,-0.23486328125,-0.396341472864151,0.396341472864151,0.27439025044441223,7.5,-14.25,8.550000190734863,41.0317497253418,0,
 2346812,-0.095458984375,-0.949951171875,-0.2412109375,-0.18292683362960815,0.4573170840740204,0.6097561120986938,6.0,-15.75,7.800000190734863,40.74421310424805,0,
 2346842,-0.10302734375,-0.95556640625,-0.242431640625,-0.15243902802467346,0.5182926654815674,0.3048780560493469,7.050000190734863,-15.600000381469727,9.149999618530273,41.127593994140625,0,
 2346852,-0.099609375,-0.9541015625,-0.237060546875,0.27439025044441223,-0.12195122241973877,0.18292683362960815,8.550000190734863,-16.350000381469727,7.199999809265137,40.9359016418457,0,
 2346862,-0.09423828125,-0.949951171875,-0.2314453125,-0.4878048896789551,0.3658536672592163,0.3048780560493469,8.550000190734863,-16.350000381469727,7.199999809265137,41.0317497253418,0,
 2346892,-0.102783203125,-0.953369140625,-0.2431640625,-0.6707317233085632,0.4573170840740204,0.15243902802467346,9.899999618530273,-15.300000190734863,7.5,40.9359016418457,0,
 2346902,-0.094970703125,-0.953857421875,-0.237060546875,-0.7621951103210449,0.21341463923454285,0.4878048896789551,9.899999618530273,-15.300000190734863,7.5,40.9359016418457,0,
 2346912,-0.1005859375,-0.9560546875,-0.24365234375,-0.8536585569381714,0.4878048896789551,0.12195122241973877,7.800000190734863,-16.350000381469727,7.199999809265137,40.88798141479492,0,
 2346922,-0.09765625,-0.95166015625,-0.246337890625,-1.3414634466171265,0.5792682766914368,0.6097561120986938,7.199999809265137,-16.5,7.5,40.74421310424805,0,
 2346932,-0.10302734375,-0.946533203125,-0.246337890625,-0.9146341681480408,0.3353658616542816,0.5182926654815674,5.699999809265137,-15.300000190734863,7.800000190734863,40.9359016418457,0,
 2346952,-0.099365234375,-0.951904296875,-0.23974609375,-1.1585365533828735,0.396341472864151,0.5792682766914368,6.599999904632568,-16.350000381469727,7.650000095367432,41.0317497253418,0,
 2346962,-0.100830078125,-0.9482421875,-0.236328125,-1.737804889678955,0.3658536672592163,0.3658536672592163,8.699999809265137,-16.5,6.75,41.0317497253418,0,
 2346972,-0.10791015625,-0.95263671875,-0.234375,-2.012195110321045,0.5182926654815674,0.6097561120986938,6.449999809265137,-14.550000190734863,7.5,40.88798141479492,0,
 2346992,-0.1015625,-0.9453125,-0.239013671875,-1.5243902206420898,0.5487805008888245,0.21341463923454285,7.050000190734863,-15.149999618530273,7.199999809265137,40.9359016418457,0,
 2347012,-0.100341796875,-0.953125,-0.243408203125,-1.4634146690368652,0.396341472864151,0.3658536672592163,6.449999809265137,-15.75,8.25,40.9359016418457,0,
 2347022,-0.1025390625,-0.94970703125,-0.2412109375,-1.6158536672592163,0.3658536672592163,0.3048780560493469,7.199999809265137,-15.300000190734863,9.0,40.79213333129883,0,
 2347032,-0.1015625,-0.94873046875,-0.243408203125,-1.4634146690368652,0.5182926654815674,0.8536585569381714,7.199999809265137,-15.300000190734863,9.0,40.88798141479492,0,
 2347042,-0.097412109375,-0.94921875,-0.24267578125,-1.25,0.5182926654815674,0.6707317233085632,7.949999809265137,-16.200000762939453,8.25,41.127593994140625,0,
 2347052,-0.10107421875,-0.952880859375,-0.244384765625,-1.097561001777649,0.6402438879013062,0.6402438879013062,7.349999904632568,-14.399999618530273,6.900000095367432,41.07966995239258,0,
 2347062,-0.0986328125,-0.9482421875,-0.2431640625,-1.1890244483947754,0.6707317233085632,0.27439025044441223,7.349999904632568,-15.600000381469727,6.449999809265137,40.9359016418457,0,
 2347072,-0.104248046875,-0.940185546875,-0.24462890625,-1.097561001777649,0.24390244483947754,0.3353658616542816,7.349999904632568,-15.600000381469727,6.449999809265137,40.88798141479492,0,
 2347082,-0.1015625,-0.9453125,-0.249755859375,-0.18292683362960815,0.24390244483947754,0.5487805008888245,8.399999618530273,-15.300000190734863,7.5,41.0317497253418,0,
 2347092,-0.10302734375,-0.94677734375,-0.24365234375,0.3353658616542816,0.18292683362960815,0.3658536672592163,7.050000190734863,-15.600000381469727,7.199999809265137,41.0317497253418,0,
 2347102,-0.103515625,-0.946044921875,-0.24365234375,1.2804877758026123,-0.09146341681480408,0.9146341681480408,7.800000190734863,-15.899999618530273,7.199999809265137,40.88798141479492,0,
 2347112,-0.099853515625,-0.9541015625,-0.236083984375,1.3719512224197388,0.27439025044441223,0.6402438879013062,7.800000190734863,-15.899999618530273,7.199999809265137,41.127593994140625,0,
 2347122,-0.101318359375,-0.947265625,-0.241455078125,1.2804877758026123,0.24390244483947754,0.792682945728302,8.550000190734863,-13.949999809265137,7.949999809265137,40.60044479370117,0,
 2347132,-0.099609375,-0.955078125,-0.239013671875,1.3414634466171265,0.15243902802467346,0.6707317233085632,6.449999809265137,-15.0,9.300000190734863,41.127593994140625,0,
 2347142,-0.097900390625,-0.955322265625,-0.2392578125,1.25,0.21341463923454285,0.8231707215309143,7.5,-15.300000190734863,8.25,41.0317497253418,0,
 2347152,-0.101806640625,-0.955078125,-0.23486328125,1.3109756708145142,0.18292683362960815,1.1585365533828735,7.5,-15.300000190734863,8.25,41.0317497253418,0,
 2347162,-0.10400390625,-0.9521484375,-0.240478515625,1.0670732259750366,0.18292683362960815,0.9451219439506531,5.849999904632568,-15.600000381469727,7.650000095367432,41.0317497253418,0,
 2347172,-0.098388671875,-0.95361328125,-0.2353515625,0.7317073345184326,0.18292683362960815,1.0365853309631348,7.050000190734863,-15.600000381469727,7.199999809265137,40.9359016418457,0,
 2347182,-0.10009765625,-0.953369140625,-0.235107421875,0.21341463923454285,0.12195122241973877,0.9756097793579102,6.75,-15.0,5.550000190734863,40.9359016418457,0,
 2347192,-0.0986328125,-0.960205078125,-0.2353515625,-0.4878048896789551,0.6402438879013062,0.5792682766914368,6.75,-15.300000190734863,7.050000190734863,40.9359016418457,0,
 2347202,-0.096435546875,-0.949462890625,-0.239990234375,-0.09146341681480408,0.4268292784690857,0.9146341681480408,7.199999809265137,-14.550000190734863,7.800000190734863,41.127593994140625,0,
 2347212,-0.095947265625,-0.94677734375,-0.2392578125,-0.24390244483947754,0.4573170840740204,0.9756097793579102,7.349999904632568,-15.149999618530273,7.949999809265137,40.88798141479492,0,
 2347222,-0.100830078125,-0.947509765625,-0.23828125,-0.09146341681480408,0.18292683362960815,1.2195122241973877,8.399999618530273,-15.75,8.25,40.88798141479492,0,
 2347232,-0.10546875,-0.949462890625,-0.23876953125,0.0,0.4878048896789551,0.8841463327407837,6.0,-15.0,6.300000190734863,41.0317497253418,0,
 2347242,-0.09814453125,-0.952880859375,-0.2373046875,0.3048780560493469,0.4878048896789551,1.2195122241973877,6.0,-15.0,6.300000190734863,40.9359016418457,0,
 2347252,-0.098876953125,-0.952880859375,-0.23876953125,0.030487805604934692,0.4878048896789551,1.402438998222351,6.449999809265137,-16.5,7.800000190734863,40.88798141479492,0,
 2347262,-0.103515625,-0.951416015625,-0.238525390625,0.3048780560493469,0.3658536672592163,1.3719512224197388,6.449999809265137,-15.75,8.25,40.88798141479492,0,
 2347272,-0.102783203125,-0.955810546875,-0.232666015625,0.09146341681480408,0.396341472864151,1.432926893234253,9.300000190734863,-13.949999809265137,7.949999809265137,41.0317497253418,0,
 2347282,-0.10498046875,-0.953369140625,-0.2412109375,-0.24390244483947754,0.6402438879013062,1.1585365533828735,9.300000190734863,-13.949999809265137,7.949999809265137,41.07966995239258,0,
 2347292,-0.10546875,-0.953369140625,-0.2353515625,-0.27439025044441223,0.4573170840740204,1.0060975551605225,7.5,-15.0,8.550000190734863,40.9359016418457,0,
 2347302,-0.106689453125,-0.951416015625,-0.239990234375,-0.8536585569381714,0.18292683362960815,1.097561001777649,7.050000190734863,-14.399999618530273,7.949999809265137,41.07966995239258,0,
 2347312,-0.106201171875,-0.958740234375,-0.237060546875,-1.2195122241973877,0.7621951103210449,1.432926893234253,7.199999809265137,-16.200000762939453,6.75,40.74421310424805,0,
 2347322,-0.09765625,-0.953369140625,-0.237060546875,-1.4939024448394775,0.8536585569381714,1.2195122241973877,7.199999809265137,-16.200000762939453,6.75,41.127593994140625,0,
 2347332,-0.102294921875,-0.95361328125,-0.233642578125,-1.920731782913208,0.6707317233085632,1.2195122241973877,7.5,-15.300000190734863,7.800000190734863,40.9359016418457,0,
 2347342,-0.104248046875,-0.9521484375,-0.2333984375,-2.5,0.7012194991111755,1.2195122241973877,7.800000190734863,-16.350000381469727,7.650000095367432,40.79213333129883,0,
 2347352,-0.104248046875,-0.951171875,-0.236572265625,-2.896341562271118,0.9451219439506531,0.9756097793579102,8.100000381469727,-16.799999237060547,7.650000095367432,40.6962890625,0,
 2347362,-0.099853515625,-0.951904296875,-0.23681640625,-2.865853786468506,0.8231707215309143,1.0670732259750366,8.100000381469727,-16.799999237060547,7.650000095367432,40.79213333129883,0,
 2347372,-0.099365234375,-0.9501953125,-0.2412109375,-3.1097562313079834,1.1585365533828735,1.0365853309631348,7.199999809265137,-16.200000762939453,6.75,40.88798141479492,0,
 2347382,-0.099609375,-0.950927734375,-0.23974609375,-3.2317073345184326,0.5792682766914368,0.9146341681480408,8.850000381469727,-13.949999809265137,6.900000095367432,41.0317497253418,0,
 2347392,-0.102294921875,-0.953125,-0.23583984375,-4.207317352294922,0.8841463327407837,1.1890244483947754,8.399999618530273,-15.75,6.75,41.0317497253418,0,
 2347402,-0.1064453125,-0.9501953125,-0.239013671875,-3.841463565826416,0.792682945728302,0.9756097793579102,8.399999618530273,-15.75,6.75,41.0317497253418,0,
 2347412,-0.10595703125,-0.952880859375,-0.242919921875,-4.45121955871582,0.9451219439506531,0.9756097793579102,7.5,-15.75,9.300000190734863,40.9359016418457,0,
 2347422,-0.1103515625,-0.952880859375,-0.2412109375,-4.29878044128418,1.0670732259750366,1.0670732259750366,7.349999904632568,-15.899999618530273,7.650000095367432,40.9359016418457,0,
 2347432,-0.1025390625,-0.950927734375,-0.243896484375,-4.45121955871582,0.8231707215309143,0.3048780560493469,10.199999809265137,-14.550000190734863,9.300000190734863,41.127593994140625,0,
 2347443,-0.099365234375,-0.950927734375,-0.246826171875,-4.786585330963135,0.8841463327407837,0.8536585569381714,6.75,-16.200000762939453,8.25,41.0317497253418,0,
 2347453,-0.104736328125,-0.958251953125,-0.244873046875,-4.908536911010742,1.0670732259750366,0.8231707215309143,6.75,-16.200000762939453,8.25,41.0317497253418,0,
 2347463,-0.1083984375,-0.951416015625,-0.24560546875,-5.152439117431641,1.0365853309631348,0.8231707215309143,7.349999904632568,-16.799999237060547,6.150000095367432,40.9359016418457,0,
 2347473,-0.106201171875,-0.940185546875,-0.25146484375,-4.939024448394775,0.9756097793579102,0.9451219439506531,6.449999809265137,-15.75,7.050000190734863,41.0317497253418,0,
 2347483,-0.107666015625,-0.9443359375,-0.2529296875,-4.6646342277526855,1.3414634466171265,0.8536585569381714,8.550000190734863,-15.600000381469727,7.650000095367432,40.9359016418457,0,
 2347493,-0.108154296875,-0.94091796875,-0.254150390625,-4.481707572937012,0.9146341681480408,0.6402438879013062,8.550000190734863,-15.600000381469727,7.650000095367432,41.0317497253418,0,
 2347503,-0.10791015625,-0.94384765625,-0.25146484375,-4.0853657722473145,0.792682945728302,0.7621951103210449,5.849999904632568,-15.899999618530273,8.399999618530273,41.127593994140625,0,
 2347513,-0.10595703125,-0.94775390625,-0.251953125,-3.6890244483947754,0.792682945728302,0.6707317233085632,7.050000190734863,-15.149999618530273,6.900000095367432,40.79213333129883,0,
 2347523,-0.10888671875,-0.945556640625,-0.2529296875,-2.896341562271118,1.0670732259750366,0.7317073345184326,7.5,-16.950000762939453,7.050000190734863,40.88798141479492,0,
 2347533,-0.099853515625,-0.943115234375,-0.25048828125,-2.5304877758026123,0.5182926654815674,0.8536585569381714,7.5,-16.950000762939453,7.050000190734863,40.88798141479492,0,
 2347543,-0.10107421875,-0.9453125,-0.259033203125,-2.5304877758026123,0.6097561120986938,0.8231707215309143,8.100000381469727,-16.350000381469727,7.949999809265137,41.0317497253418,0,
 2347553,-0.1025390625,-0.948486328125,-0.2578125,-2.378048896789551,0.7012194991111755,0.7012194991111755,7.349999904632568,-14.399999618530273,6.900000095367432,41.22344207763672,0,
 2347563,-0.104248046875,-0.947998046875,-0.254638671875,-2.2865853309631348,0.5182926654815674,0.8231707215309143,7.800000190734863,-15.600000381469727,7.199999809265137,40.79213333129883,0,
 2347573,-0.111083984375,-0.943115234375,-0.25244140625,-1.6463414430618286,0.8536585569381714,0.8231707215309143,7.800000190734863,-15.600000381469727,7.199999809265137,41.0317497253418,0,
 2347583,-0.103271484375,-0.947509765625,-0.26123046875,-1.7987805604934692,0.5792682766914368,0.8231707215309143,7.949999809265137,-15.75,7.800000190734863,40.9359016418457,0,
 2347593,-0.10546875,-0.951171875,-0.25390625,-1.4939024448394775,0.5182926654815674,1.0060975551605225,8.100000381469727,-15.899999618530273,4.949999809265137,40.9359016418457,0,
 2347603,-0.10693359375,-0.9443359375,-0.25146484375,-1.402438998222351,0.5792682766914368,0.5792682766914368,6.449999809265137,-15.75,7.050000190734863,41.0317497253418,0,
 2347613,-0.10546875,-0.9443359375,-0.257080078125,-1.097561001777649,0.7012194991111755,0.6097561120986938,6.449999809265137,-15.75,7.050000190734863,40.6962890625,0,
 2347623,-0.10693359375,-0.942626953125,-0.251953125,-1.2195122241973877,0.4878048896789551,0.5792682766914368,6.449999809265137,-15.300000190734863,7.800000190734863,40.88798141479492,0,
 2347633,-0.107421875,-0.942138671875,-0.25244140625,-0.8231707215309143,0.5182926654815674,0.27439025044441223,6.75,-16.5,8.550000190734863,41.0317497253418,0,
 2347643,-0.10546875,-0.943603515625,-0.248291015625,-0.7621951103210449,0.3353658616542816,0.3353658616542816,8.399999618530273,-15.0,7.5,40.9359016418457,0,
 2347653,-0.100341796875,-0.948486328125,-0.24755859375,-0.4573170840740204,0.6097561120986938,0.0,7.949999809265137,-15.300000190734863,8.25,40.88798141479492,0,
 2347663,-0.10546875,-0.945556640625,-0.2529296875,-0.060975611209869385,0.5792682766914368,0.396341472864151,8.399999618530273,-15.0,7.5,41.0317497253418,0,
 2347673,-0.10791015625,-0.95068359375,-0.25244140625,-0.21341463923454285,0.4878048896789551,0.060975611209869385,7.349999904632568,-13.949999809265137,8.699999809265137,41.0317497253418,0,
 2347683,-0.10595703125,-0.94677734375,-0.2548828125,0.030487805604934692,0.12195122241973877,0.24390244483947754,7.050000190734863,-15.149999618530273,9.149999618530273,41.127593994140625,0,
 2347693,-0.10498046875,-0.9521484375,-0.249755859375,0.0,0.27439025044441223,0.396341472864151,9.300000190734863,-15.600000381469727,4.199999809265137,41.0317497253418,0,
 2347703,-0.114013671875,-0.95068359375,-0.252197265625,-0.4268292784690857,0.3658536672592163,0.27439025044441223,9.300000190734863,-15.600000381469727,4.199999809265137,40.88798141479492,0,
 2347713,-0.1083984375,-0.946044921875,-0.252197265625,-1.0670732259750366,0.4878048896789551,0.0,7.949999809265137,-15.300000190734863,9.0,41.0317497253418,0,
 2347723,-0.106201171875,-0.94873046875,-0.250732421875,-0.4878048896789551,0.4573170840740204,0.3353658616542816,7.5,-15.300000190734863,7.050000190734863,40.9359016418457,0,
 2347733,-0.107177734375,-0.946533203125,-0.255126953125,-0.5792682766914368,0.3353658616542816,-0.060975611209869385,8.550000190734863,-15.899999618530273,8.399999618530273,40.79213333129883,0,
 2347743,-0.103515625,-0.951904296875,-0.25341796875,-0.9756097793579102,0.4573170840740204,0.0,8.550000190734863,-15.899999618530273,8.399999618530273,40.74421310424805,0,
 2347753,-0.10302734375,-0.9482421875,-0.247802734375,-0.9756097793579102,0.3048780560493469,0.12195122241973877,6.599999904632568,-14.850000381469727,9.899999618530273,40.79213333129883,0,
 2347763,-0.107177734375,-0.9453125,-0.2568359375,-1.097561001777649,0.4268292784690857,0.12195122241973877,7.199999809265137,-16.950000762939453,7.800000190734863,40.79213333129883,0,
 2347773,-0.10595703125,-0.94482421875,-0.25390625,-0.7317073345184326,0.5182926654815674,0.060975611209869385,6.449999809265137,-16.950000762939453,7.050000190734863,40.9359016418457,0,
 2347783,-0.103271484375,-0.952880859375,-0.254150390625,-1.1890244483947754,0.5487805008888245,0.15243902802467346,6.449999809265137,-16.950000762939453,7.050000190734863,40.9359016418457,0,
 2347793,-0.109130859375,-0.94921875,-0.252197265625,-0.9146341681480408,0.18292683362960815,0.09146341681480408,9.149999618530273,-14.25,4.5,40.88798141479492,0,
 2347803,-0.1083984375,-0.94775390625,-0.2509765625,-1.6158536672592163,0.7012194991111755,0.27439025044441223,8.550000190734863,-16.350000381469727,7.650000095367432,40.79213333129883,0,
 2347813,-0.10107421875,-0.95361328125,-0.25146484375,-1.6158536672592163,0.396341472864151,0.09146341681480408,8.100000381469727,-14.850000381469727,8.399999618530273,40.79213333129883,0,
 2347823,-0.111083984375,-0.948486328125,-0.253173828125,-1.7682926654815674,0.6402438879013062,0.030487805604934692,8.100000381469727,-14.850000381469727,8.399999618530273,40.88798141479492,0,
 2347833,-0.10791015625,-0.9482421875,-0.259033203125,-1.7987805604934692,0.4573170840740204,0.0,7.800000190734863,-15.149999618530273,7.650000095367432,40.9359016418457,0,
 2347843,-0.09912109375,-0.9501953125,-0.25537109375,-1.737804889678955,0.5792682766914368,0.3658536672592163,6.75,-15.75,8.550000190734863,40.88798141479492,0,
 2347853,-0.1083984375,-0.9462890625,-0.248779296875,-1.2195122241973877,0.5182926654815674,0.24390244483947754,7.199999809265137,-15.300000190734863,8.550000190734863,40.79213333129883,0,
 2347863,-0.1025390625,-0.943359375,-0.2578125,-1.6463414430618286,0.4268292784690857,0.21341463923454285,7.199999809265137,-15.300000190734863,8.550000190734863,41.127593994140625,0,
 2347873,-0.1064453125,-0.949462890625,-0.2548828125,-1.7987805604934692,0.4268292784690857,-0.060975611209869385,7.050000190734863,-16.350000381469727,6.449999809265137,40.79213333129883,0,
 2347883,-0.1015625,-0.94873046875,-0.25244140625,-1.4634146690368652,0.5182926654815674,0.396341472864151,8.550000190734863,-15.149999618530273,7.650000095367432,41.22344207763672,0,
 2347893,-0.10107421875,-0.9482421875,-0.258544921875,-1.920731782913208,0.5792682766914368,0.3048780560493469,5.400000095367432,-15.149999618530273,6.150000095367432,41.0317497253418,0,
 2347903,-0.102294921875,-0.946533203125,-0.2568359375,-1.920731782913208,0.4268292784690857,0.4573170840740204,6.0,-16.5,7.5,40.79213333129883,0,
 2347913,-0.103515625,-0.943115234375,-0.253662109375,-1.5243902206420898,0.6402438879013062,0.4268292784690857,6.0,-16.5,7.5,40.9359016418457,0,
 2347923,-0.104736328125,-0.945556640625,-0.258544921875,-1.6768293380737305,0.7621951103210449,0.7012194991111755,7.949999809265137,-16.5,7.800000190734863,41.07966995239258,0,
 2347933,-0.10693359375,-0.94580078125,-0.26171875,-1.5243902206420898,0.4878048896789551,0.6097561120986938,7.800000190734863,-16.350000381469727,7.199999809265137,40.9359016418457,0,
 2347943,-0.10546875,-0.945068359375,-0.259033203125,-1.5243902206420898,0.5792682766914368,0.5487805008888245,8.399999618530273,-14.550000190734863,7.5,40.88798141479492,0,
 2347953,-0.104736328125,-0.9443359375,-0.2587890625,-1.402438998222351,0.8536585569381714,0.4878048896789551,8.399999618530273,-14.550000190734863,7.5,40.79213333129883,0,
 2347963,-0.102783203125,-0.949462890625,-0.259521484375,-1.25,0.4573170840740204,0.5182926654815674,7.199999809265137,-15.300000190734863,8.550000190734863,40.79213333129883,0,
 2347973,-0.100830078125,-0.943115234375,-0.261962890625,-0.9756097793579102,0.4878048896789551,0.18292683362960815,7.5,-17.399999618530273,7.800000190734863,41.127593994140625,0,
 2347983,-0.10595703125,-0.9521484375,-0.260498046875,-0.9756097793579102,0.7621951103210449,0.4573170840740204,7.949999809265137,-16.200000762939453,8.550000190734863,40.88798141479492,0,
 2347993,-0.109375,-0.944580078125,-0.25634765625,-1.1585365533828735,0.6707317233085632,0.6402438879013062,7.949999809265137,-16.200000762939453,8.550000190734863,40.79213333129883,0,
 2348003,-0.103271484375,-0.951904296875,-0.25537109375,-0.9146341681480408,0.3658536672592163,0.3353658616542816,7.050000190734863,-15.899999618530273,4.949999809265137,40.74421310424805,0,
 2348013,-0.100830078125,-0.94580078125,-0.2587890625,-0.792682945728302,0.4268292784690857,0.4268292784690857,6.75,-16.5,7.5,41.127593994140625,0,
 2348023,-0.10595703125,-0.945068359375,-0.255126953125,-0.7012194991111755,0.24390244483947754,0.4268292784690857,7.800000190734863,-15.600000381469727,7.650000095367432,41.07966995239258,0,
 2348033,-0.10986328125,-0.941650390625,-0.257568359375,-0.4268292784690857,0.3048780560493469,0.18292683362960815,7.800000190734863,-15.600000381469727,7.650000095367432,40.79213333129883,0,
 2348043,-0.10888671875,-0.9453125,-0.260498046875,-0.3658536672592163,0.3658536672592163,0.27439025044441223,6.75,-15.300000190734863,7.050000190734863,40.88798141479492,0,
 2348053,-0.10400390625,-0.944580078125,-0.257568359375,-0.4573170840740204,0.4573170840740204,0.15243902802467346,7.349999904632568,-15.600000381469727,7.650000095367432,40.9359016418457,0,
 2348063,-0.1064453125,-0.949462890625,-0.254638671875,-0.21341463923454285,0.3658536672592163,0.060975611209869385,8.100000381469727,-14.850000381469727,6.900000095367432,40.79213333129883,0,
 2348073,-0.10791015625,-0.94140625,-0.259521484375,-0.792682945728302,0.27439025044441223,0.396341472864151,8.100000381469727,-14.850000381469727,6.900000095367432,41.22344207763672,0,
 2348083,-0.10546875,-0.9482421875,-0.256103515625,-0.21341463923454285,0.09146341681480408,0.21341463923454285,8.100000381469727,-15.899999618530273,7.650000095367432,41.2713623046875,0,
 2348093,-0.106201171875,-0.9453125,-0.2578125,-0.5487805008888245,0.5182926654815674,0.0,8.550000190734863,-16.350000381469727,9.149999618530273,40.9359016418457,0,
 2348103,-0.103271484375,-0.953125,-0.254150390625,-0.5182926654815674,0.3353658616542816,0.3048780560493469,8.550000190734863,-15.899999618530273,3.450000047683716,40.79213333129883,0,
 2348113,-0.1083984375,-0.94873046875,-0.258056640625,-0.27439025044441223,0.6097561120986938,0.030487805604934692,7.199999809265137,-15.75,7.050000190734863,40.9359016418457,0,
 2348123,-0.103759765625,-0.942138671875,-0.260986328125,-0.3353658616542816,0.3658536672592163,0.3353658616542816,7.5,-16.5,8.550000190734863,40.9359016418457,0,
 2348133,-0.102783203125,-0.945068359375,-0.257080078125,-0.18292683362960815,0.21341463923454285,0.0,5.25,-13.350000381469727,7.5,41.0317497253418,0,
 2348143,-0.1044921875,-0.945556640625,-0.25830078125,-0.3658536672592163,0.24390244483947754,0.09146341681480408,7.5,-15.300000190734863,9.0,40.9359016418457,0,
 2348153,-0.10400390625,-0.9521484375,-0.254638671875,-0.7621951103210449,0.24390244483947754,-0.030487805604934692,6.75,-15.0,9.75,40.79213333129883,0,
 2348163,-0.105712890625,-0.9423828125,-0.251953125,-0.5487805008888245,0.3048780560493469,0.27439025044441223,6.75,-15.0,9.75,41.0317497253418,0,
 2348173,-0.102783203125,-0.94482421875,-0.26220703125,-0.4878048896789551,0.27439025044441223,0.18292683362960815,7.5,-16.5,8.25,40.88798141479492,0,
 2348183,-0.108154296875,-0.94482421875,-0.25732421875,-0.21341463923454285,0.12195122241973877,0.09146341681480408,7.349999904632568,-15.899999618530273,7.949999809265137,40.9359016418457,0,
 2348193,-0.103759765625,-0.947509765625,-0.256103515625,-0.15243902802467346,0.27439025044441223,0.3048780560493469,6.0,-16.200000762939453,6.300000190734863,41.07966995239258,0,
 2348203,-0.109375,-0.953857421875,-0.258056640625,-0.12195122241973877,0.3353658616542816,0.6097561120986938,6.0,-16.200000762939453,6.300000190734863,40.9359016418457,0,
 2348213,-0.109619140625,-0.948974609375,-0.25732421875,-0.4268292784690857,0.4268292784690857,-0.030487805604934692,6.599999904632568,-14.399999618530273,7.949999809265137,41.0317497253418,0,
 2348224,-0.1015625,-0.953125,-0.25537109375,-0.7621951103210449,0.3353658616542816,0.3048780560493469,8.550000190734863,-15.600000381469727,7.199999809265137,41.0317497253418,0,
 2348234,-0.112548828125,-0.948974609375,-0.25537109375,-1.0365853309631348,0.3658536672592163,0.3658536672592163,7.050000190734863,-17.549999237060547,8.399999618530273,40.9359016418457,0,
 2348244,-0.1044921875,-0.945068359375,-0.2548828125,-1.4634146690368652,0.4268292784690857,0.15243902802467346,7.050000190734863,-17.549999237060547,8.399999618530273,40.9359016418457,0,
 2348254,-0.102294921875,-0.94873046875,-0.25732421875,-1.1585365533828735,0.5792682766914368,0.3353658616542816,7.5,-15.300000190734863,8.25,41.0317497253418,0,
 2348264,-0.10107421875,-0.93994140625,-0.25537109375,-1.4939024448394775,0.7012194991111755,0.27439025044441223,8.550000190734863,-14.399999618530273,9.149999618530273,40.79213333129883,0,
 2348274,-0.106201171875,-0.950439453125,-0.262451171875,-1.3109756708145142,0.3353658616542816,0.3353658616542816,7.800000190734863,-14.399999618530273,7.199999809265137,41.127593994140625,0,
 2348284,-0.10205078125,-0.94580078125,-0.260009765625,-1.25,0.792682945728302,0.27439025044441223,7.800000190734863,-14.399999618530273,7.199999809265137,40.9359016418457,0,
 2348294,-0.105712890625,-0.943359375,-0.26025390625,-1.5548781156539917,0.7317073345184326,-0.09146341681480408,7.050000190734863,-15.149999618530273,8.399999618530273,40.60044479370117,0,
 2348304,-0.098388671875,-0.95068359375,-0.255126953125,-1.0365853309631348,0.6097561120986938,-0.030487805604934692,8.100000381469727,-13.649999618530273,6.449999809265137,41.0317497253418,0,
 2348314,-0.10546875,-0.949462890625,-0.256591796875,-0.8536585569381714,0.3353658616542816,-0.15243902802467346,8.699999809265137,-16.200000762939453,8.550000190734863,41.127593994140625,0,
 2348324,-0.103515625,-0.9453125,-0.25439453125,-0.8231707215309143,0.4268292784690857,0.15243902802467346,8.699999809265137,-16.200000762939453,8.550000190734863,40.9359016418457,0,
 2348334,-0.096435546875,-0.943359375,-0.256591796875,-0.792682945728302,0.27439025044441223,-0.09146341681480408,7.949999809265137,-15.0,7.800000190734863,41.0317497253418,0,
 2348344,-0.1025390625,-0.947509765625,-0.262451171875,-0.5792682766914368,0.3048780560493469,-0.060975611209869385,7.050000190734863,-14.850000381469727,6.900000095367432,40.6962890625,0,
 2348354,-0.10693359375,-0.947265625,-0.2626953125,-0.3658536672592163,0.21341463923454285,0.15243902802467346,6.75,-15.0,8.25,41.07966995239258,0,
 2348364,-0.106689453125,-0.947509765625,-0.260009765625,-0.6097561120986938,0.15243902802467346,0.09146341681480408,7.199999809265137,-16.200000762939453,9.300000190734863,41.07966995239258,0,
 2348374,-0.108154296875,-0.943359375,-0.256591796875,-0.5792682766914368,0.3048780560493469,0.3048780560493469,6.599999904632568,-15.149999618530273,8.399999618530273,41.0317497253418,0,
 2348384,-0.100830078125,-0.94384765625,-0.261474609375,-0.7012194991111755,0.18292683362960815,0.5182926654815674,7.050000190734863,-15.149999618530273,8.699999809265137,41.0317497253418,0,
 2348394,-0.1015625,-0.948974609375,-0.2578125,-0.8536585569381714,0.27439025044441223,0.030487805604934692,6.599999904632568,-15.149999618530273,9.149999618530273,40.88798141479492,0,
 2348404,-0.104736328125,-0.94775390625,-0.256103515625,-0.6707317233085632,0.27439025044441223,0.15243902802467346,7.349999904632568,-16.799999237060547,7.949999809265137,41.0317497253418,0,
 2348414,-0.107421875,-0.947509765625,-0.25732421875,-0.8536585569381714,0.15243902802467346,0.4268292784690857,7.349999904632568,-16.799999237060547,7.949999809265137,40.88798141479492,0,
 2348424,-0.10693359375,-0.944580078125,-0.261474609375,-0.792682945728302,0.5792682766914368,0.27439025044441223,6.599999904632568,-15.149999618530273,9.449999809265137,40.9359016418457,0,
 2348434,-0.109375,-0.9404296875,-0.261474609375,-0.9451219439506531,0.5487805008888245,0.12195122241973877,7.349999904632568,-15.600000381469727,7.949999809265137,41.0317497253418,0,
 2348444,-0.10595703125,-0.946533203125,-0.25244140625,-0.792682945728302,0.3048780560493469,0.5487805008888245,7.050000190734863,-17.100000381469727,7.949999809265137,40.60044479370117,0,
 2348454,-0.1025390625,-0.9443359375,-0.26708984375,-0.4573170840740204,0.27439025044441223,0.3658536672592163,7.050000190734863,-17.100000381469727,7.949999809265137,41.07966995239258,0,
 2348464,-0.1103515625,-0.945068359375,-0.2568359375,-0.3658536672592163,0.396341472864151,0.18292683362960815,7.050000190734863,-16.350000381469727,7.949999809265137,41.127593994140625,0,
 2348474,-0.10400390625,-0.94677734375,-0.253662109375,-0.4268292784690857,0.3048780560493469,0.5182926654815674,6.599999904632568,-12.75,8.699999809265137,40.88798141479492,0,
 2348484,-0.10009765625,-0.948486328125,-0.259765625,-0.12195122241973877,0.3048780560493469,-0.060975611209869385,7.199999809265137,-15.0,8.25,41.07966995239258,0,
 2348494,-0.10693359375,-0.955078125,-0.25732421875,0.12195122241973877,0.18292683362960815,0.3658536672592163,7.199999809265137,-15.0,8.25,41.0317497253418,0,
 2348504,-0.108154296875,-0.944091796875,-0.259033203125,-0.396341472864151,0.18292683362960815,0.4878048896789551,6.599999904632568,-16.350000381469727,9.149999618530273,40.79213333129883,0,
 2348514,-0.0986328125,-0.94482421875,-0.259521484375,0.3658536672592163,0.3048780560493469,0.4573170840740204,9.149999618530273,-16.950000762939453,4.800000190734863,40.9359016418457,0,
 2348524,-0.107177734375,-0.945068359375,-0.261474609375,-0.060975611209869385,0.21341463923454285,0.060975611209869385,7.5,-15.75,7.5,41.0317497253418,0,
 2348534,-0.105224609375,-0.946044921875,-0.253662109375,0.7012194991111755,0.27439025044441223,0.5792682766914368,7.5,-15.75,7.5,40.88798141479492,0,
 2348544,-0.102783203125,-0.946044921875,-0.257080078125,0.3658536672592163,0.396341472864151,0.396341472864151,7.5,-16.200000762939453,8.25,40.79213333129883,0,
 2348554,-0.10498046875,-0.94482421875,-0.25634765625,0.5792682766914368,0.396341472864151,0.7317073345184326,8.100000381469727,-14.399999618530273,8.699999809265137,40.74421310424805,0,
 2348564,-0.10546875,-0.946044921875,-0.258544921875,0.4878048896789551,0.18292683362960815,0.27439025044441223,8.100000381469727,-15.899999618530273,8.399999618530273,40.88798141479492,0,
 2348574,-0.105712890625,-0.946044921875,-0.262451171875,0.6707317233085632,-0.09146341681480408,0.4573170840740204,8.100000381469727,-15.899999618530273,8.399999618530273,40.9359016418457,0,
 2348584,-0.101806640625,-0.9501953125,-0.257080078125,0.792682945728302,-0.030487805604934692,0.27439025044441223,5.699999809265137,-15.75,8.25,40.9359016418457,0,
 2348594,-0.101806640625,-0.943359375,-0.260498046875,0.6402438879013062,0.15243902802467346,0.5792682766914368,7.199999809265137,-15.300000190734863,7.5,40.552520751953125,0,
 2348604,-0.101318359375,-0.946044921875,-0.25439453125,0.7012194991111755,0.030487805604934692,0.5182926654815674,8.100000381469727,-15.600000381469727,8.399999618530273,41.07966995239258,0,
 2348614,-0.10693359375,-0.954345703125,-0.259521484375,1.1280487775802612,0.15243902802467346,0.4573170840740204,7.800000190734863,-15.600000381469727,2.700000047683716,40.9359016418457,0,
 2348624,-0.103759765625,-0.950439453125,-0.262451171875,0.7317073345184326,0.3048780560493469,0.7012194991111755,7.800000190734863,-15.600000381469727,2.700000047683716,40.60044479370117,0,
 2348634,-0.1044921875,-0.943115234375,-0.261962890625,0.9756097793579102,0.24390244483947754,0.8536585569381714,8.850000381469727,-15.149999618530273,8.399999618530273,41.127593994140625,0,
 2348644,-0.10693359375,-0.947021484375,-0.257080078125,1.097561001777649,0.27439025044441223,0.8231707215309143,6.300000190734863,-15.149999618530273,7.949999809265137,40.9359016418457,0,
 2348654,-0.1103515625,-0.94677734375,-0.257568359375,1.3109756708145142,0.18292683362960815,0.9146341681480408,7.349999904632568,-16.350000381469727,7.650000095367432,41.0317497253418,0,
 2348664,-0.107177734375,-0.94921875,-0.25146484375,1.432926893234253,0.3048780560493469,0.9451219439506531,7.349999904632568,-16.350000381469727,7.650000095367432,40.9359016418457,0,
 2348674,-0.095458984375,-0.944091796875,-0.25537109375,1.7073171138763428,0.060975611209869385,0.8536585569381714,8.699999809265137,-15.300000190734863,9.0,41.0317497253418,0,
 2348684,-0.10400390625,-0.9453125,-0.254150390625,2.1341464519500732,0.18292683362960815,0.8536585569381714,7.800000190734863,-15.149999618530273,9.149999618530273,40.60044479370117,0,
 2348694,-0.10693359375,-0.94970703125,-0.255859375,2.4390244483947754,-0.060975611209869385,0.7012194991111755,6.300000190734863,-16.350000381469727,6.449999809265137,40.9359016418457,0,
 2348704,-0.108642578125,-0.94921875,-0.254638671875,2.22560977935791,0.0,1.1280487775802612,6.300000190734863,-16.350000381469727,6.449999809265137,40.79213333129883,0,
 2348714,-0.103271484375,-0.952880859375,-0.25,2.2560975551605225,0.18292683362960815,0.8536585569381714,7.050000190734863,-14.399999618530273,6.150000095367432,41.07966995239258,0,
 2348724,-0.113525390625,-0.9541015625,-0.25732421875,1.6158536672592163,0.18292683362960815,0.9451219439506531,8.100000381469727,-14.850000381469727,8.399999618530273,40.9359016418457,0,
 2348734,-0.1103515625,-0.953125,-0.2509765625,1.737804889678955,0.12195122241973877,1.1280487775802612,7.199999809265137,-16.200000762939453,6.75,40.74421310424805,0,
 2348744,-0.1103515625,-0.9560546875,-0.24658203125,0.7621951103210449,0.396341472864151,0.6707317233085632,7.199999809265137,-16.200000762939453,6.75,41.0317497253418,0,
 2348754,-0.10888671875,-0.951904296875,-0.25341796875,0.6707317233085632,0.27439025044441223,0.8841463327407837,8.699999809265137,-15.75,7.050000190734863,40.9359016418457,0,
 2348764,-0.10986328125,-0.953369140625,-0.245361328125,0.12195122241973877,0.5182926654815674,0.9451219439506531,5.699999809265137,-15.75,6.75,40.79213333129883,0,
 2348774,-0.10546875,-0.94580078125,-0.248779296875,-0.3658536672592163,0.4268292784690857,0.7317073345184326,7.349999904632568,-15.149999618530273,7.199999809265137,41.0317497253418,0,
 2348784,-0.1103515625,-0.955322265625,-0.25048828125,-0.7012194991111755,0.24390244483947754,0.5487805008888245,7.349999904632568,-15.149999618530273,7.199999809265137,40.79213333129883,0,
 2348794,-0.109130859375,-0.954345703125,-0.24755859375,-0.9146341681480408,0.18292683362960815,0.4268292784690857,7.949999809265137,-15.75,8.25,40.9359016418457,0,
 2348804,-0.108154296875,-0.95556640625,-0.248779296875,-1.8902438879013062,0.396341472864151,0.6707317233085632,8.399999618530273,-14.550000190734863,8.550000190734863,40.88798141479492,0,
 2348814,-0.107666015625,-0.965576171875,-0.251220703125,-2.5304877758026123,0.9756097793579102,0.7317073345184326,6.300000190734863,-15.899999618530273,7.199999809265137,40.9359016418457,0,
 2348824,-0.113525390625,-0.963134765625,-0.25439453125,-3.4146342277526855,1.25,1.4634146690368652,7.800000190734863,-17.549999237060547,5.400000095367432,40.9359016418457,0,
 2348834,-0.107666015625,-0.965576171875,-0.26025390625,-3.9939024448394775,1.4634146690368652,2.408536672592163,7.800000190734863,-15.899999618530273,7.199999809265137,40.79213333129883,0,
 2348844,-0.1015625,-0.978759765625,-0.241943359375,-4.6646342277526855,2.0426828861236572,4.054878234863281,7.5,-15.75,8.550000190734863,41.0317497253418,0,
 2348854,-0.071044921875,-1.003173828125,-0.271240234375,-5.365853786468506,3.3231709003448486,7.286585330963135,7.5,-16.200000762939453,8.550000190734863,40.9359016418457,0,
 2348864,-0.122802734375,-1.008544921875,-0.243408203125,-5.70121955871582,2.8353660106658936,9.29878044128418,6.599999904632568,-15.899999618530273,6.900000095367432,40.79213333129883,0,
 2348874,-0.093017578125,-0.961181640625,-0.252685546875,-12.34756088256836,5.182927131652832,12.22560977935791,6.599999904632568,-15.899999618530273,6.900000095367432,41.127593994140625,0,
 2348884,-0.1162109375,-1.03271484375,-0.245361328125,-12.286585807800293,3.353658676147461,16.280488967895508,6.599999904632568,-15.149999618530273,8.699999809265137,40.9359016418457,0,
 2348894,-0.119873046875,-1.0439453125,-0.2431640625,-16.981708526611328,3.658536672592163,22.98780632019043,8.550000190734863,-18.299999237060547,6.449999809265137,41.07966995239258,0,
 2348904,-0.132568359375,-1.041015625,-0.233642578125,-22.439023971557617,2.9268293380737305,29.93902587890625,7.349999904632568,-15.600000381469727,6.900000095367432,40.88798141479492,0,
 2348914,-0.112548828125,-1.103271484375,-0.2392578125,-26.280488967895508,2.6219513416290283,40.0,7.349999904632568,-15.600000381469727,6.900000095367432,40.9359016418457,0,
 2348924,-0.10888671875,-1.111572265625,-0.270751953125,-35.51829528808594,0.6402438879013062,50.79268264770508,7.5,-16.950000762939453,4.800000190734863,40.88798141479492,0,
 2348934,-0.12841796875,-1.083984375,-0.299072265625,-39.35975646972656,-1.5243902206420898,62.95731735229492,8.100000381469727,-13.949999809265137,4.949999809265137,40.74421310424805,0,
 2348944,-0.115478515625,-1.057861328125,-0.325927734375,-43.414634704589844,-4.878048896789551,75.70121765136719,9.300000190734863,-17.549999237060547,7.199999809265137,40.79213333129883,0,
 2348954,-0.1181640625,-1.054443359375,-0.3759765625,-44.72561264038086,-10.243902206420898,90.42683410644531,9.300000190734863,-17.549999237060547,7.199999809265137,40.9359016418457,0,
 2348964,-0.141845703125,-1.01416015625,-0.3857421875,-44.78658676147461,-15.213415145874023,103.4756088256836,7.949999809265137,-14.550000190734863,7.800000190734863,41.07966995239258,0,
 2348974,-0.19384765625,-0.97607421875,-0.387939453125,-40.213417053222656,-18.20121955871582,115.03048706054688,8.399999618530273,-16.5,9.300000190734863,40.88798141479492,0,
 2348984,-0.152587890625,-1.0302734375,-0.41650390625,-31.73780632019043,-20.975610733032227,122.46951293945312,9.600000381469727,-15.600000381469727,8.399999618530273,40.60044479370117,0,
 2348994,-0.217041015625,-1.077392578125,-0.43310546875,-25.731708526611328,-26.219512939453125,130.73170471191406,9.600000381469727,-15.600000381469727,8.399999618530273,41.0317497253418,0,
 2349004,-0.2763671875,-1.0390625,-0.372314453125,-24.268293380737305,-27.042682647705078,134.8780517578125,8.100000381469727,-16.350000381469727,9.149999618530273,40.9359016418457,0,
 2349014,-0.31494140625,-0.9970703125,-0.35595703125,-24.481708526611328,-27.164634704589844,137.0426788330078,8.850000381469727,-18.75,9.149999618530273,41.0317497253418,0,
 2349024,-0.448486328125,-0.9521484375,-0.329345703125,-19.817073822021484,-28.44512176513672,140.03048706054688,10.649999618530273,-17.399999618530273,6.75,40.9359016418457,0,
 2349035,-0.37646484375,-0.973876953125,-0.33349609375,-16.4939022064209,-26.463415145874023,138.75,11.25,-18.0,9.449999809265137,40.79213333129883,0,
 2349045,-0.449951171875,-0.962646484375,-0.328369140625,-15.335366249084473,-25.091463088989258,134.8780517578125,9.149999618530273,-16.5,9.75,40.79213333129883,0,
 2349055,-0.44970703125,-0.896728515625,-0.34765625,-14.603658676147461,-22.7439022064209,130.97561645507812,9.449999809265137,-16.950000762939453,9.300000190734863,40.88798141479492,0,
 2349065,-0.9873046875,-0.76220703125,-0.3310546875,-11.768293380737305,-19.7560977935791,126.82926940917969,10.949999809265137,-16.5,12.300000190734863,40.88798141479492,0,
 2349075,-0.57080078125,-0.637451171875,-0.277099609375,-4.237804889678955,-17.317073822021484,123.9024429321289,9.149999618530273,-16.950000762939453,10.050000190734863,41.0317497253418,0,
 2349085,-0.54345703125,-0.73583984375,-0.332763671875,8.384146690368652,-14.115854263305664,116.92073822021484,9.149999618530273,-16.950000762939453,10.050000190734863,40.79213333129883,0,
 2349095,-0.55419921875,-0.77294921875,-0.3310546875,14.085366249084473,-11.09756088256836,104.96951293945312,9.899999618530273,-17.700000762939453,11.25,41.07966995239258,0,
 2349105,-0.514404296875,-0.75048828125,-0.34228515625,14.542683601379395,-4.634146213531494,83.9024429321289,10.199999809265137,-16.5,9.75,40.88798141479492,0,
 2349115,-0.641357421875,-0.883056640625,-0.4287109375,29.115854263305664,-5.640244007110596,49.908538818359375,8.550000190734863,-15.899999618530273,10.199999809265137,40.79213333129883,0,
 2349125,-0.67333984375,-1.32568359375,-0.644775390625,47.530487060546875,3.7804877758026123,-17.530488967895508,8.550000190734863,-15.899999618530273,10.199999809265137,40.552520751953125,0,
 2349135,-0.48486328125,-1.44580078125,-0.509033203125,37.256099700927734,10.15243911743164,-236.4329376220703,7.800000190734863,-15.899999618530273,9.449999809265137,41.2713623046875,0,
 2349145,-0.639404296875,-0.83984375,-0.141357421875,7.896341800689697,18.140243530273438,-261.8902587890625,5.400000095367432,-17.100000381469727,10.649999618530273,40.9359016418457,0,
 2349155,-0.638427734375,-0.000732421875,-0.006591796875,0.3048780560493469,57.68292999267578,-260.94512939453125,6.300000190734863,-15.600000381469727,10.649999618530273,41.22344207763672,0,
 2349165,-0.2724609375,0.344970703125,0.083984375,26.371952056884766,40.182926177978516,-201.73780822753906,6.300000190734863,-15.600000381469727,10.649999618530273,40.9359016418457,0,
 2349175,0.1533203125,0.48583984375,0.1171875,24.05487823486328,8.59756088256836,-138.41464233398438,5.099999904632568,-17.100000381469727,10.199999809265137,40.79213333129883,0,
 2349185,-0.099609375,0.526611328125,0.231201171875,-1.6463414430618286,41.310977935791016,-116.58536529541016,3.5999999046325684,-18.0,9.149999618530273,40.88798141479492,0,
 2349195,0.418212890625,0.39794921875,0.145751953125,5.0,26.40243911743164,-89.93902587890625,2.4000000953674316,-18.299999237060547,8.699999809265137,41.0317497253418,0,
 2349205,0.989990234375,0.473388671875,0.326171875,21.859756469726562,-5.70121955871582,-87.01219940185547,2.4000000953674316,-18.299999237060547,8.699999809265137,41.07966995239258,0,
 2349215,1.232666015625,0.316162109375,0.32763671875,35.94512176513672,-33.353660583496094,-73.68902587890625,3.0,-18.149999618530273,8.25,41.22344207763672,0,
 2349225,1.088623046875,-0.07470703125,0.138671875,19.05487823486328,-25.579269409179688,-74.7256088256836,3.5999999046325684,-17.549999237060547,7.949999809265137,40.9359016418457,0,
 2349235,0.552978515625,-0.194091796875,-0.30712890625,-15.670732498168945,48.871952056884766,-37.560977935791016,5.099999904632568,-17.100000381469727,7.650000095367432,41.0317497253418,0,
 2349245,1.041015625,-3.770751953125,-1.60205078125,0.030487805604934692,58.38414764404297,-196.52439880371094,5.099999904632568,-17.100000381469727,7.650000095367432,41.07966995239258,0,
 2349255,-1.67333984375,0.32666015625,0.042236328125,48.44512176513672,72.6524429321289,-368.9634094238281,5.849999904632568,-16.350000381469727,8.399999618530273,40.9359016418457,0,
 2349265,0.17041015625,2.68603515625,1.40185546875,162.22561645507812,-133.41464233398438,-164.39024353027344,7.349999904632568,-13.949999809265137,7.650000095367432,40.88798141479492,0,
 2349275,1.78759765625,-2.10986328125,-4.192626953125,258.2926940917969,-121.1280517578125,122.2256088256836,9.149999618530273,-15.0,6.75,40.88798141479492,0,
 2349285,0.013916015625,-4.726318359375,-2.192138671875,-106.5243911743164,-107.53048706054688,-30.030488967895508,10.199999809265137,-12.600000381469727,7.050000190734863,40.9359016418457,0,
 2349295,0.472412109375,-1.507568359375,-0.968994140625,-136.85975646972656,-5.9146342277526855,-85.12195587158203,10.199999809265137,-12.600000381469727,7.050000190734863,41.0317497253418,0,
 2349305,0.119384765625,-1.394775390625,-0.812255859375,-37.256099700927734,41.7378044128418,140.03048706054688,10.5,-14.399999618530273,7.199999809265137,40.9359016418457,0,
 2349315,0.0927734375,-0.254150390625,0.54833984375,-72.56097412109375,86.58536529541016,144.4207305908203,9.449999809265137,-14.25,7.800000190734863,41.0317497253418,0,
 2349325,-0.089599609375,-1.220458984375,0.465576171875,-5.060975551605225,0.15243902802467346,47.13414764404297,7.800000190734863,-15.149999618530273,8.399999618530273,40.74421310424805,0,
 2349335,-0.354248046875,-0.3291015625,-0.364501953125,-57.713417053222656,-24.420732498168945,23.963415145874023,7.800000190734863,-15.149999618530273,8.399999618530273,40.74421310424805,0,
 2349345,0.0029296875,-0.44091796875,-0.270751953125,-40.15243911743164,6.7682929039001465,38.628047943115234,9.149999618530273,-13.350000381469727,9.0,41.22344207763672,0,
 2349355,-0.28515625,-0.99853515625,-0.182861328125,6.067073345184326,-7.713414669036865,18.292682647705078,8.850000381469727,-15.600000381469727,9.449999809265137,40.79213333129883,0,
 2349365,-0.220947265625,-0.862060546875,-0.138916015625,-10.945121765136719,5.091463565826416,-11.25,8.399999618530273,-14.25,7.5,41.07966995239258,0,
 2349375,-0.376953125,-0.836181640625,-0.290771484375,-15.853658676147461,7.560975551605225,-21.310976028442383,8.399999618530273,-14.25,7.5,40.79213333129883,0,
 2349385,-0.020263671875,-0.423583984375,-0.255615234375,-15.182927131652832,13.90243911743164,-48.84146499633789,7.199999809265137,-15.0,8.550000190734863,41.127593994140625,0,
 2349395,-0.10498046875,-0.839599609375,-0.32568359375,18.231708526611328,-7.743902683258057,-52.3780517578125,8.850000381469727,-14.399999618530273,8.399999618530273,41.0317497253418,0,
 2349405,0.00732421875,-0.83203125,-0.355224609375,20.2439022064209,0.15243902802467346,-49.20731735229492,8.399999618530273,-14.550000190734863,8.25,41.0317497253418,0,
 2349415,-0.02392578125,-1.00732421875,-0.283935546875,42.5,-8.20121955871582,-47.95731735229492,8.399999618530273,-14.550000190734863,8.25,40.9359016418457,0,
 2349425,-0.073974609375,-1.275390625,-0.33349609375,35.51829528808594,-10.914634704589844,-29.05487823486328,9.149999618530273,-15.300000190734863,9.0,40.9359016418457,0,
 2349435,-0.12451171875,-1.376953125,-0.3427734375,18.536584854125977,-4.908536911010742,-3.841463565826416,9.300000190734863,-14.850000381469727,3.1500000953674316,40.74421310424805,0,
 2349445,-0.091552734375,-1.041748046875,-0.289306640625,-7.134146690368652,6.128048896789551,5.640244007110596,8.850000381469727,-14.850000381469727,7.949999809265137,40.79213333129883,0,
 2349455,-0.11083984375,-0.97412109375,-0.26513671875,-13.841464042663574,6.95121955871582,15.335366249084473,8.850000381469727,-14.850000381469727,7.949999809265137,40.9359016418457,0,
 2349465,-0.108642578125,-0.88037109375,-0.292724609375,-18.44512176513672,8.170731544494629,18.35365867614746,7.349999904632568,-13.949999809265137,6.900000095367432,40.9359016418457,0,
 2349475,-0.124755859375,-0.896484375,-0.26611328125,-13.689024925231934,8.04878044128418,13.87195110321045,7.800000190734863,-15.149999618530273,7.199999809265137,40.6962890625,0,
 2349485,-0.078857421875,-0.89794921875,-0.274169921875,-10.914634704589844,6.402439117431641,16.128049850463867,8.699999809265137,-15.0,8.25,40.88798141479492,0,
 2349495,-0.10498046875,-0.938232421875,-0.266357421875,-7.5,5.0,13.353658676147461,7.800000190734863,-14.850000381469727,7.650000095367432,40.74421310424805,0,
 2349505,-0.08837890625,-0.917724609375,-0.28564453125,-8.506097793579102,3.5975611209869385,10.15243911743164,7.050000190734863,-15.600000381469727,7.949999809265137,40.9359016418457,0,
 2349515,-0.080810546875,-0.87255859375,-0.289794921875,-7.621951580047607,2.1341464519500732,6.615853786468506,8.550000190734863,-14.399999618530273,7.199999809265137,41.0317497253418,0,
 2349525,-0.08447265625,-0.889892578125,-0.316650390625,-2.591463565826416,0.12195122241973877,2.408536672592163,8.699999809265137,-15.0,7.800000190734863,40.88798141479492,0,
 2349535,-0.099853515625,-0.88720703125,-0.313720703125,1.3414634466171265,-0.3048780560493469,-0.6707317233085632,11.399999618530273,-14.550000190734863,5.25,40.9359016418457,0,
 2349545,-0.11279296875,-0.9296875,-0.314697265625,6.8597564697265625,-2.103658676147461,-3.0487804412841797,11.399999618530273,-14.550000190734863,5.25,41.0317497253418,0,
 2349555,-0.108154296875,-0.934326171875,-0.294189453125,9.359756469726562,-2.2865853309631348,-6.79878044128418,9.300000190734863,-14.850000381469727,8.699999809265137,40.6962890625,0,
 2349565,-0.11376953125,-0.962646484375,-0.271484375,11.189024925231934,-2.103658676147461,-9.207317352294922,9.300000190734863,-14.399999618530273,7.949999809265137,41.07966995239258,0,
 2349575,-0.1064453125,-0.98779296875,-0.267333984375,10.335366249084473,-2.2865853309631348,-9.237805366516113,8.699999809265137,-15.0,8.550000190734863,41.0317497253418,0,
 2349585,-0.098876953125,-1.010009765625,-0.255859375,9.237805366516113,-2.0731706619262695,-7.469512462615967,8.699999809265137,-15.0,8.550000190734863,41.0317497253418,0,
 2349595,-0.082275390625,-1.030029296875,-0.240478515625,1.5548781156539917,-0.12195122241973877,-0.396341472864151,7.5,-16.5,8.550000190734863,40.6962890625,0,
 2349605,-0.10302734375,-1.056640625,-0.233642578125,-5.640244007110596,1.5548781156539917,2.6524391174316406,8.850000381469727,-14.399999618530273,9.149999618530273,41.0317497253418,0,
 2349615,-0.097412109375,-1.009033203125,-0.235595703125,-9.45121955871582,3.079268455505371,4.908536911010742,8.699999809265137,-14.550000190734863,7.5,40.79213333129883,0,
 2349625,-0.095947265625,-0.9677734375,-0.248779296875,-11.006097793579102,3.5365853309631348,5.97560977935791,8.699999809265137,-14.550000190734863,7.5,40.88798141479492,0,
 2349635,-0.08837890625,-0.9208984375,-0.263916015625,-9.359756469726562,2.8353660106658936,6.6768293380737305,7.800000190734863,-13.649999618530273,6.900000095367432,40.79213333129883,0,
 2349645,-0.0185546875,-0.935302734375,-0.323486328125,-7.0731706619262695,2.408536672592163,5.9146342277526855,8.699999809265137,-14.550000190734863,7.5,40.9359016418457,0,
 2349655,-0.06884765625,-0.89111328125,-0.277587890625,-4.756097793579102,1.585365891456604,4.420732021331787,8.850000381469727,-15.149999618530273,7.949999809265137,40.79213333129883,0,
 2349665,-0.0927734375,-0.884521484375,-0.286376953125,-1.5243902206420898,0.792682945728302,3.170731782913208,8.850000381469727,-15.149999618530273,7.949999809265137,40.74421310424805,0,
 2349675,-0.094970703125,-0.89453125,-0.275634765625,1.1280487775802612,0.060975611209869385,1.6768293380737305,8.550000190734863,-15.149999618530273,8.399999618530273,41.0317497253418,0,
 2349685,-0.084716796875,-0.9052734375,-0.276611328125,2.8353660106658936,-0.6707317233085632,0.4268292784690857,8.550000190734863,-13.949999809265137,8.699999809265137,40.9359016418457,0,
 2349695,-0.095458984375,-0.912109375,-0.264404296875,3.932926893234253,-0.6707317233085632,-0.15243902802467346,9.300000190734863,-15.149999618530273,8.699999809265137,41.127593994140625,0,
 2349705,-0.094482421875,-0.923828125,-0.263916015625,3.628048896789551,-1.3414634466171265,-1.2195122241973877,8.550000190734863,-15.149999618530273,7.949999809265137,41.0317497253418,0,
 2349715,-0.10009765625,-0.93896484375,-0.27001953125,3.658536672592163,-0.7317073345184326,-1.7987805604934692,7.5,-13.800000190734863,9.0,40.79213333129883,0,
 2349725,-0.1044921875,-0.9404296875,-0.278076171875,3.5060975551605225,-0.8231707215309143,-1.9512195587158203,8.550000190734863,-16.799999237060547,9.449999809265137,41.0317497253418,0,
 2349735,-0.10498046875,-0.945068359375,-0.277587890625,3.3841464519500732,-0.4573170840740204,-1.4634146690368652,8.699999809265137,-15.75,7.800000190734863,40.74421310424805,0,
 2349745,-0.10302734375,-0.947265625,-0.28369140625,2.6219513416290283,-0.4268292784690857,-0.6402438879013062,8.550000190734863,-16.350000381469727,8.399999618530273,41.127593994140625,0,
 2349755,-0.1025390625,-0.963623046875,-0.278564453125,1.25,0.27439025044441223,0.27439025044441223,8.550000190734863,-16.350000381469727,8.399999618530273,41.127593994140625,0,
 2349765,-0.110595703125,-0.964111328125,-0.291748046875,0.3048780560493469,0.7317073345184326,1.0060975551605225,8.399999618530273,-13.800000190734863,9.0,40.74421310424805,0,
 2349775,-0.099365234375,-0.955322265625,-0.2978515625,-1.1890244483947754,1.25,1.5548781156539917,8.399999618530273,-13.350000381469727,7.800000190734863,41.0317497253418,0,
 2349785,-0.093017578125,-0.947998046875,-0.2822265625,-1.4939024448394775,1.1890244483947754,1.7987805604934692,8.100000381469727,-14.850000381469727,9.899999618530273,40.9359016418457,0,
 2349795,-0.09521484375,-0.9404296875,-0.2822265625,-1.5243902206420898,0.9146341681480408,2.408536672592163,8.100000381469727,-14.850000381469727,9.899999618530273,40.79213333129883,0,
 2349805,-0.0966796875,-0.941162109375,-0.278564453125,-1.4939024448394775,0.8536585569381714,2.5304877758026123,8.550000190734863,-14.399999618530273,9.449999809265137,41.0317497253418,0,
 2349815,-0.21435546875,-0.90673828125,-0.265380859375,-1.097561001777649,0.7317073345184326,2.1341464519500732,8.699999809265137,-15.0,8.550000190734863,40.9359016418457,0,
 2349825,-0.08984375,-0.944580078125,-0.26953125,1.2195122241973877,-1.7682926654815674,2.804877996444702,8.550000190734863,-13.199999809265137,8.699999809265137,40.88798141479492,0,
 2349835,-0.093994140625,-0.931640625,-0.29638671875,0.060975611209869385,0.5182926654815674,1.3414634466171265,8.550000190734863,-13.199999809265137,8.699999809265137,40.9359016418457,0,
 2349845,-0.100830078125,-0.942626953125,-0.281982421875,1.0670732259750366,0.0,0.5487805008888245,10.800000190734863,-15.149999618530273,5.699999809265137,40.9359016418457,0,
 2349855,-0.10595703125,-0.9423828125,-0.28125,1.6158536672592163,-0.09146341681480408,0.396341472864151,8.100000381469727,-13.949999809265137,6.150000095367432,41.0317497253418,0,
 2349866,-0.106689453125,-0.95556640625,-0.278076171875,2.5,-0.21341463923454285,0.18292683362960815,9.899999618530273,-15.0,9.75,40.74421310424805,0,
 2349876,-0.1064453125,-0.96435546875,-0.270751953125,1.432926893234253,0.18292683362960815,-0.060975611209869385,9.899999618530273,-15.0,9.75,40.79213333129883,0,
 2349886,-0.10595703125,-0.95556640625,-0.2724609375,0.6707317233085632,0.24390244483947754,0.09146341681480408,8.699999809265137,-15.75,6.75,40.88798141479492,0,
 2349896,-0.101806640625,-0.96044921875,-0.26904296875,-0.3658536672592163,0.4878048896789551,0.3048780560493469,7.800000190734863,-13.949999809265137,10.649999618530273,41.0317497253418,0,
 2349906,-0.101806640625,-0.954345703125,-0.262939453125,-1.2195122241973877,0.4268292784690857,0.7317073345184326,9.300000190734863,-15.149999618530273,6.900000095367432,41.07966995239258,0,
 2349916,-0.1025390625,-0.9541015625,-0.271728515625,-2.103658676147461,0.6707317233085632,0.5792682766914368,9.300000190734863,-15.149999618530273,6.900000095367432,40.79213333129883,0,
 2349926,-0.1015625,-0.9501953125,-0.267333984375,-2.2865853309631348,0.8231707215309143,1.2195122241973877,7.5,-15.300000190734863,7.5,41.127593994140625,0,
 2349936,-0.101806640625,-0.94140625,-0.27392578125,-2.9268293380737305,0.9451219439506531,1.2804877758026123,9.899999618530273,-15.0,8.550000190734863,41.0317497253418,0,
 2349946,-0.096923828125,-0.93505859375,-0.2705078125,-2.682926893234253,1.1585365533828735,1.2804877758026123,9.899999618530273,-16.200000762939453,6.0,41.0317497253418,0,
 2349956,-0.100341796875,-0.933837890625,-0.270751953125,-1.6463414430618286,0.9451219439506531,0.9451219439506531,8.399999618530273,-15.0,9.0,40.9359016418457,0,
 2349966,-0.098876953125,-0.930908203125,-0.274658203125,-1.5548781156539917,0.6097561120986938,1.0365853309631348,8.399999618530273,-15.0,9.0,40.60044479370117,0,
 2349976,-0.100830078125,-0.933349609375,-0.277099609375,-0.8841463327407837,0.6402438879013062,0.3353658616542816,7.800000190734863,-14.850000381469727,7.650000095367432,41.07966995239258,0,
 2349986,-0.095947265625,-0.9375,-0.272216796875,-0.18292683362960815,0.3353658616542816,-0.18292683362960815,9.600000381469727,-15.149999618530273,8.699999809265137,41.0317497253418,0,
 2349996,-0.097412109375,-0.939208984375,-0.265869140625,0.21341463923454285,0.030487805604934692,-0.3353658616542816,8.550000190734863,-14.399999618530273,8.399999618530273,40.74421310424805,0,
 2350006,-0.10498046875,-0.944580078125,-0.271484375,0.15243902802467346,0.0,-0.3658536672592163,8.550000190734863,-14.399999618530273,8.399999618530273,41.127593994140625,0,
 2350016,-0.095458984375,-0.948974609375,-0.270751953125,0.0,0.15243902802467346,-0.5182926654815674,9.149999618530273,-15.0,8.550000190734863,41.127593994140625,0,
 2350026,-0.098876953125,-0.947265625,-0.2705078125,-0.21341463923454285,0.27439025044441223,-0.3353658616542816,7.199999809265137,-14.550000190734863,8.25,41.127593994140625,0,
 2350036,-0.09912109375,-0.9404296875,-0.27783203125,-1.0365853309631348,0.3658536672592163,-0.27439025044441223,7.5,-14.25,9.0,40.9359016418457,0,
 2350046,-0.099609375,-0.947509765625,-0.27783203125,-1.2804877758026123,0.24390244483947754,0.0,7.5,-14.25,9.0,41.07966995239258,0,
 2350056,-0.09912109375,-0.940673828125,-0.27197265625,-1.3109756708145142,0.27439025044441223,-0.060975611209869385,8.699999809265137,-15.0,9.0,40.79213333129883,0,
 2350066,-0.092529296875,-0.93701171875,-0.280517578125,-1.3109756708145142,0.5182926654815674,0.18292683362960815,9.449999809265137,-13.800000190734863,7.800000190734863,41.0317497253418,0,
 2350076,-0.098876953125,-0.933349609375,-0.279052734375,-1.25,0.3658536672592163,-0.060975611209869385,8.699999809265137,-14.550000190734863,9.300000190734863,40.9359016418457,0,
 2350086,-0.096923828125,-0.9326171875,-0.28466796875,-0.4878048896789551,0.4573170840740204,0.15243902802467346,8.699999809265137,-14.550000190734863,9.300000190734863,41.07966995239258,0,
 2350096,-0.100341796875,-0.939208984375,-0.27978515625,-0.24390244483947754,0.5487805008888245,0.21341463923454285,7.949999809265137,-15.300000190734863,7.050000190734863,40.9359016418457,0,
 2350106,-0.09375,-0.936279296875,-0.277587890625,0.0,0.0,0.15243902802467346,7.800000190734863,-14.850000381469727,8.399999618530273,40.74421310424805,0,
 2350116,-0.1025390625,-0.940673828125,-0.275390625,0.24390244483947754,0.09146341681480408,0.0,7.199999809265137,-16.200000762939453,8.550000190734863,40.79213333129883,0,
 2350126,-0.104248046875,-0.940185546875,-0.279541015625,-0.15243902802467346,0.4573170840740204,0.18292683362960815,7.199999809265137,-16.200000762939453,8.550000190734863,40.9359016418457,0,
 2350136,-0.10009765625,-0.942626953125,-0.2802734375,-0.18292683362960815,0.4573170840740204,0.21341463923454285,6.75,-13.800000190734863,6.300000190734863,41.07966995239258,0,
 2350146,-0.103759765625,-0.937255859375,-0.2822265625,0.3353658616542816,0.4268292784690857,0.3658536672592163,7.949999809265137,-12.600000381469727,6.75,41.0317497253418,0,
 2350156,-0.1064453125,-0.9404296875,-0.278076171875,-0.21341463923454285,0.4573170840740204,0.27439025044441223,8.100000381469727,-14.850000381469727,7.949999809265137,40.88798141479492,0,
 2350166,-0.098388671875,-0.9521484375,-0.279296875,-0.27439025044441223,0.21341463923454285,0.3353658616542816,7.349999904632568,-13.649999618530273,7.650000095367432,41.31928634643555,0,
 2350176,-0.103515625,-0.949462890625,-0.279541015625,-0.7317073345184326,0.4268292784690857,0.21341463923454285,7.349999904632568,-13.649999618530273,7.650000095367432,40.88798141479492,0,
 2350186,-0.097412109375,-0.945068359375,-0.277587890625,-0.8536585569381714,0.3048780560493469,0.7621951103210449,8.850000381469727,-15.600000381469727,7.650000095367432,41.0317497253418,0,
 2350196,-0.103271484375,-0.946044921875,-0.28515625,-0.4268292784690857,0.4878048896789551,0.7012194991111755,9.449999809265137,-14.25,8.25,40.79213333129883,0,
 2350206,-0.099853515625,-0.942138671875,-0.27978515625,-0.4573170840740204,0.5182926654815674,0.5792682766914368,7.349999904632568,-13.649999618530273,7.949999809265137,40.6962890625,0,
 2350216,-0.104736328125,-0.943359375,-0.2822265625,-0.8231707215309143,0.5487805008888245,0.3658536672592163,7.349999904632568,-13.649999618530273,7.949999809265137,41.0317497253418,0,
 2350226,-0.099609375,-0.944091796875,-0.269287109375,-0.7317073345184326,0.3353658616542816,0.6097561120986938,7.949999809265137,-15.300000190734863,8.25,41.0317497253418,0,
 2350236,-0.103271484375,-0.94677734375,-0.27685546875,-0.8231707215309143,0.24390244483947754,0.9451219439506531,8.699999809265137,-15.75,7.5,40.74421310424805,0,
 2350246,-0.104248046875,-0.94384765625,-0.276611328125,-0.4878048896789551,0.4268292784690857,0.4878048896789551,7.800000190734863,-15.899999618530273,6.900000095367432,41.0317497253418,0,
 2350256,-0.097900390625,-0.9423828125,-0.272705078125,-0.396341472864151,0.3048780560493469,0.4268292784690857,7.800000190734863,-15.899999618530273,6.900000095367432,40.74421310424805,0,
 2350266,-0.100830078125,-0.947021484375,-0.276123046875,-0.21341463923454285,0.5792682766914368,0.8536585569381714,7.349999904632568,-14.399999618530273,7.949999809265137,40.88798141479492,0,
 2350286,-0.095703125,-0.94384765625,-0.273681640625,-0.060975611209869385,0.3658536672592163,0.396341472864151,9.300000190734863,-15.899999618530273,7.949999809265137,41.127593994140625,0,
 2350296,-0.101806640625,-0.9453125,-0.278076171875,-0.4573170840740204,0.4573170840740204,0.18292683362960815,9.300000190734863,-15.899999618530273,7.949999809265137,40.9359016418457,0,
 2350306,-0.104248046875,-0.94384765625,-0.2734375,-0.18292683362960815,0.15243902802467346,0.4268292784690857,8.399999618530273,-14.550000190734863,7.800000190734863,40.88798141479492,0,
 2350316,-0.094970703125,-0.941650390625,-0.275634765625,-0.060975611209869385,0.4878048896789551,0.4573170840740204,8.100000381469727,-12.449999809265137,8.699999809265137,40.88798141479492,0,
 2350326,-0.10107421875,-0.94091796875,-0.2763671875,-0.4878048896789551,0.3353658616542816,0.5182926654815674,9.149999618530273,-15.300000190734863,7.5,41.0317497253418,0,
 2350336,-0.10107421875,-0.944580078125,-0.2724609375,-0.18292683362960815,0.18292683362960815,0.3048780560493469,9.149999618530273,-15.300000190734863,7.5,41.0317497253418,0,
 2350346,-0.106689453125,-0.94091796875,-0.2744140625,-0.4268292784690857,0.24390244483947754,0.396341472864151,9.300000190734863,-15.149999618530273,7.199999809265137,41.07966995239258,0,
 2350356,-0.1015625,-0.9375,-0.275634765625,-0.24390244483947754,0.3353658616542816,0.4878048896789551,8.850000381469727,-16.799999237060547,5.699999809265137,40.74421310424805,0,
 2350366,-0.09716796875,-0.943603515625,-0.27294921875,-0.15243902802467346,0.0,0.21341463923454285,8.850000381469727,-16.350000381469727,7.949999809265137,41.127593994140625,0,
 2350376,-0.10400390625,-0.942626953125,-0.2734375,-0.5487805008888245,0.3353658616542816,0.15243902802467346,8.850000381469727,-15.149999618530273,7.650000095367432,41.0317497253418,0,
 2350386,-0.104736328125,-0.944091796875,-0.276611328125,-0.030487805604934692,0.396341472864151,0.5182926654815674,9.449999809265137,-15.300000190734863,7.5,40.79213333129883,0,
 2350396,-0.099365234375,-0.9384765625,-0.275390625,-0.12195122241973877,0.3353658616542816,0.0,7.949999809265137,-13.800000190734863,6.75,41.07966995239258,0,
 2350406,-0.100830078125,-0.94384765625,-0.275390625,-0.27439025044441223,0.09146341681480408,0.060975611209869385,8.850000381469727,-14.399999618530273,9.149999618530273,40.9359016418457,0,
 2350416,-0.102783203125,-0.94189453125,-0.278564453125,-0.060975611209869385,0.15243902802467346,-0.24390244483947754,7.949999809265137,-14.550000190734863,7.800000190734863,40.88798141479492,0,
 2350426,-0.097412109375,-0.943603515625,-0.280029296875,-0.060975611209869385,0.21341463923454285,0.12195122241973877,7.949999809265137,-14.550000190734863,7.800000190734863,41.0317497253418,0,
 2350436,-0.10107421875,-0.9423828125,-0.280517578125,0.18292683362960815,0.4878048896789551,0.18292683362960815,8.399999618530273,-15.0,10.050000190734863,40.9359016418457,0,
 2350446,-0.10400390625,-0.947021484375,-0.2841796875,0.6097561120986938,0.24390244483947754,-0.12195122241973877,8.699999809265137,-15.300000190734863,7.5,41.0317497253418,0,
 2350456,-0.1005859375,-0.946044921875,-0.28173828125,0.5487805008888245,0.3658536672592163,0.21341463923454285,10.199999809265137,-14.25,5.550000190734863,40.79213333129883,0,
 2350466,-0.099609375,-0.943359375,-0.27880859375,0.9451219439506531,0.060975611209869385,0.3353658616542816,10.199999809265137,-14.25,5.550000190734863,40.88798141479492,0,
 2350476,-0.097412109375,-0.93798828125,-0.27880859375,0.7317073345184326,0.0,0.060975611209869385,7.349999904632568,-14.399999618530273,7.650000095367432,40.9359016418457,0,
 2350486,-0.099365234375,-0.945556640625,-0.277587890625,0.8536585569381714,0.4268292784690857,0.12195122241973877,7.800000190734863,-14.850000381469727,7.199999809265137,40.74421310424805,0,
 2350496,-0.097412109375,-0.945068359375,-0.27880859375,1.0060975551605225,0.09146341681480408,0.24390244483947754,8.850000381469727,-14.850000381469727,9.149999618530273,40.79213333129883,0,
 2350506,-0.10009765625,-0.940673828125,-0.269775390625,1.0670732259750366,0.12195122241973877,0.4573170840740204,8.850000381469727,-14.850000381469727,9.149999618530273,40.74421310424805,0,
 2350516,-0.098388671875,-0.9482421875,-0.273681640625,0.8536585569381714,0.030487805604934692,0.3048780560493469,9.149999618530273,-15.300000190734863,8.25,41.0317497253418,0,
 2350526,-0.101806640625,-0.94677734375,-0.270751953125,1.1890244483947754,0.09146341681480408,0.030487805604934692,6.599999904632568,-14.850000381469727,8.699999809265137,40.9359016418457,0,
 2350536,-0.097412109375,-0.947021484375,-0.272216796875,1.4634146690368652,0.3048780560493469,0.18292683362960815,8.550000190734863,-15.149999618530273,9.149999618530273,41.07966995239258,0,
 2350546,-0.099853515625,-0.9404296875,-0.283203125,1.1890244483947754,0.21341463923454285,-0.030487805604934692,8.550000190734863,-15.149999618530273,9.149999618530273,40.60044479370117,0,
 2350556,-0.103271484375,-0.945068359375,-0.276611328125,1.0060975551605225,0.15243902802467346,-0.15243902802467346,8.699999809265137,-13.350000381469727,7.800000190734863,41.0317497253418,0,
 2350566,-0.10107421875,-0.948486328125,-0.270263671875,0.9451219439506531,0.6402438879013062,0.18292683362960815,7.349999904632568,-14.850000381469727,9.149999618530273,40.9359016418457,0,
 2350576,-0.109130859375,-0.942626953125,-0.27734375,1.3719512224197388,0.3353658616542816,-0.030487805604934692,8.399999618530273,-15.0,9.300000190734863,41.0317497253418,0,
 2350586,-0.0947265625,-0.932861328125,-0.27294921875,1.920731782913208,0.030487805604934692,0.18292683362960815,9.300000190734863,-13.949999809265137,8.399999618530273,40.9359016418457,0,
 2350596,-0.099853515625,-0.94580078125,-0.27099609375,1.585365891456604,-0.15243902802467346,-0.18292683362960815,9.149999618530273,-14.550000190734863,8.550000190734863,41.0317497253418,0,
 2350606,-0.09912109375,-0.93310546875,-0.27197265625,2.5,0.09146341681480408,0.4573170840740204,9.300000190734863,-15.149999618530273,7.650000095367432,41.0317497253418,0,
 2350616,-0.098388671875,-0.939453125,-0.274658203125,2.77439022064209,0.09146341681480408,0.09146341681480408,8.550000190734863,-13.199999809265137,8.399999618530273,40.9359016418457,0,
 2350626,-0.095703125,-0.923828125,-0.27880859375,4.695122241973877,0.060975611209869385,0.5792682766914368,7.949999809265137,-15.300000190734863,7.050000190734863,41.0317497253418,0,
 2350636,-0.100830078125,-0.903564453125,-0.30224609375,6.95121955871582,0.09146341681480408,1.402438998222351,7.949999809265137,-15.300000190734863,7.050000190734863,40.74421310424805,0,
 2350646,-0.11279296875,-0.919189453125,-0.314697265625,10.213415145874023,0.27439025044441223,1.6158536672592163,8.550000190734863,-14.850000381469727,7.199999809265137,40.79213333129883,0,
 2350657,-0.10888671875,-0.93359375,-0.291259765625,11.12804889678955,0.396341472864151,0.8536585569381714,10.050000190734863,-14.399999618530273,8.399999618530273,41.07966995239258,0,
 2350667,-0.09423828125,-0.958251953125,-0.265625,16.25,-2.2865853309631348,2.22560977935791,8.850000381469727,-17.100000381469727,6.150000095367432,40.9359016418457,0,
 2350677,-0.092529296875,-0.956298828125,-0.243896484375,12.92682933807373,-1.097561001777649,1.9512195587158203,8.850000381469727,-17.100000381469727,6.150000095367432,40.88798141479492,0,
 2350687,-0.1015625,-0.96435546875,-0.240234375,11.52439022064209,-1.1280487775802612,1.2195122241973877,7.800000190734863,-14.399999618530273,7.949999809265137,41.07966995239258,0,
 2350697,-0.0966796875,-0.958251953125,-0.237060546875,9.420731544494629,-0.792682945728302,0.09146341681480408,8.550000190734863,-15.149999618530273,7.949999809265137,40.79213333129883,0,
 2350707,-0.100830078125,-0.967529296875,-0.237548828125,8.140244483947754,-1.0060975551605225,-0.6707317233085632,8.699999809265137,-15.300000190734863,7.800000190734863,41.0317497253418,0,
 2350717,-0.0927734375,-0.96142578125,-0.226806640625,6.371951580047607,-0.9756097793579102,-0.9451219439506531,8.699999809265137,-15.300000190734863,7.800000190734863,41.127593994140625,0,
 2350727,-0.101318359375,-0.956787109375,-0.244140625,4.5731706619262695,-0.9451219439506531,-1.6463414430618286,9.149999618530273,-14.550000190734863,7.5,40.79213333129883,0,
 2350737,-0.10302734375,-0.9599609375,-0.24365234375,3.8109757900238037,-0.7317073345184326,-1.737804889678955,8.699999809265137,-14.25,7.050000190734863,40.88798141479492,0,
 2350747,-0.099853515625,-0.9619140625,-0.240478515625,2.1341464519500732,-0.09146341681480408,-1.8902438879013062,7.5,-14.550000190734863,7.5,40.9359016418457,0,
 2350757,-0.1015625,-0.95458984375,-0.240966796875,0.8231707215309143,-0.060975611209869385,-2.408536672592163,7.5,-14.550000190734863,7.5,41.0317497253418,0,
 2350767,-0.10009765625,-0.962158203125,-0.243896484375,-0.9146341681480408,-0.21341463923454285,-2.4390244483947754,10.050000190734863,-15.149999618530273,5.400000095367432,40.79213333129883,0,
 2350777,-0.09814453125,-0.9541015625,-0.255615234375,-2.1646342277526855,0.12195122241973877,-1.5243902206420898,7.349999904632568,-15.899999618530273,7.199999809265137,41.22344207763672,0,
 2350787,-0.105224609375,-0.958984375,-0.2529296875,-2.2865853309631348,0.396341472864151,-1.2195122241973877,8.850000381469727,-13.949999809265137,7.650000095367432,41.0317497253418,0,
 2350797,-0.100830078125,-0.95751953125,-0.25341796875,-2.408536672592163,0.7317073345184326,-0.6707317233085632,8.850000381469727,-13.949999809265137,7.650000095367432,40.79213333129883,0,
 2350807,-0.092529296875,-0.95361328125,-0.25439453125,-3.1097562313079834,0.6097561120986938,-0.15243902802467346,7.5,-15.75,7.800000190734863,41.0317497253418,0,
 2350817,-0.102294921875,-0.953125,-0.251708984375,-3.2317073345184326,0.9756097793579102,-0.3048780560493469,7.199999809265137,-14.550000190734863,6.75,41.0317497253418,0,
 2350827,-0.105224609375,-0.95166015625,-0.256591796875,-2.9268293380737305,0.8231707215309143,0.15243902802467346,8.100000381469727,-13.649999618530273,9.449999809265137,41.0317497253418,0,
 2350837,-0.095947265625,-0.949462890625,-0.260009765625,-2.6219513416290283,0.8231707215309143,0.0,10.050000190734863,-15.600000381469727,7.199999809265137,41.0317497253418,0,
 2350847,-0.1064453125,-0.947998046875,-0.25732421875,-2.5,0.7317073345184326,-0.21341463923454285,10.050000190734863,-15.600000381469727,7.199999809265137,40.74421310424805,0,
 2350857,-0.102783203125,-0.94580078125,-0.25048828125,-2.591463565826416,0.9756097793579102,-0.060975611209869385,9.300000190734863,-15.149999618530273,9.149999618530273,40.88798141479492,0,
 2350867,-0.10107421875,-0.949951171875,-0.25390625,-2.591463565826416,1.097561001777649,0.12195122241973877,9.149999618530273,-14.550000190734863,6.300000190734863,41.0317497253418,0,
 2350877,-0.09912109375,-0.947021484375,-0.259521484375,-1.9512195587158203,0.6402438879013062,-0.09146341681480408,7.5,-10.949999809265137,7.5,41.07966995239258,0,
 2350887,-0.102783203125,-0.938232421875,-0.262939453125,-1.7682926654815674,0.7317073345184326,-0.12195122241973877,7.5,-10.949999809265137,7.5,40.9359016418457,0,
 2350897,-0.0966796875,-0.942138671875,-0.2626953125,-1.1585365533828735,0.24390244483947754,-0.12195122241973877,8.550000190734863,-13.649999618530273,8.399999618530273,40.88798141479492,0,
 2350907,-0.099609375,-0.9375,-0.264404296875,-0.21341463923454285,0.4573170840740204,0.0,9.300000190734863,-14.850000381469727,8.399999618530273,40.6962890625,0,
 2350917,-0.09375,-0.936767578125,-0.259521484375,0.8536585569381714,0.24390244483947754,-0.4878048896789551,9.899999618530273,-13.800000190734863,8.25,41.0317497253418,0,
 2350927,-0.095458984375,-0.945556640625,-0.265625,1.585365891456604,-0.060975611209869385,-0.030487805604934692,9.899999618530273,-13.800000190734863,8.25,40.6962890625,0,
 2350937,-0.096923828125,-0.941162109375,-0.261474609375,1.9817073345184326,0.24390244483947754,-0.18292683362960815,9.149999618530273,-15.0,8.25,40.79213333129883,0,
 2350947,-0.094482421875,-0.949951171875,-0.254150390625,2.5,0.060975611209869385,-0.030487805604934692,8.699999809265137,-14.25,7.050000190734863,41.07966995239258,0,
 2350957,-0.0966796875,-0.946044921875,-0.251953125,2.378048896789551,0.09146341681480408,0.18292683362960815,7.349999904632568,-15.149999618530273,7.949999809265137,41.07966995239258,0,
 2350967,-0.094970703125,-0.947265625,-0.25634765625,2.9573171138763428,-0.030487805604934692,0.12195122241973877,7.349999904632568,-15.149999618530273,7.949999809265137,41.0317497253418,0,
 2350977,-0.09912109375,-0.94775390625,-0.25048828125,2.865853786468506,0.030487805604934692,0.24390244483947754,6.75,-13.350000381469727,7.800000190734863,40.9359016418457,0,
 2350987,-0.099365234375,-0.947265625,-0.244873046875,2.591463565826416,-0.15243902802467346,0.4268292784690857,9.300000190734863,-14.399999618530273,7.199999809265137,40.88798141479492,0,
 2350997,-0.1015625,-0.945068359375,-0.248291015625,2.591463565826416,-0.24390244483947754,0.792682945728302,8.850000381469727,-15.600000381469727,7.199999809265137,40.79213333129883,0,
 2351007,-0.098388671875,-0.950927734375,-0.250732421875,2.195122003555298,0.0,0.7012194991111755,7.5,-15.0,7.5,41.2713623046875,0,
 2351017,-0.09912109375,-0.951904296875,-0.24658203125,2.3475611209869385,-0.12195122241973877,0.5182926654815674,8.100000381469727,-13.649999618530273,8.399999618530273,41.0317497253418,0,
 2351027,-0.099365234375,-0.953857421875,-0.24609375,1.7682926654815674,0.060975611209869385,0.8841463327407837,8.399999618530273,-13.350000381469727,9.0,40.74421310424805,0,
 2351037,-0.09521484375,-0.954833984375,-0.243896484375,1.6158536672592163,0.060975611209869385,1.0365853309631348,8.699999809265137,-14.25,9.0,40.9359016418457,0,
 2351047,-0.097412109375,-0.95361328125,-0.244384765625,0.792682945728302,0.18292683362960815,0.8841463327407837,9.300000190734863,-13.199999809265137,8.699999809265137,40.88798141479492,0,
 2351057,-0.099609375,-0.9560546875,-0.243408203125,-0.060975611209869385,0.27439025044441223,0.9146341681480408,9.300000190734863,-13.199999809265137,8.699999809265137,41.2713623046875,0,
 2351067,-0.093505859375,-0.948486328125,-0.2431640625,-0.7621951103210449,0.396341472864151,1.097561001777649,7.800000190734863,-14.399999618530273,7.650000095367432,40.9359016418457,0,
 2351077,-0.10107421875,-0.9501953125,-0.23583984375,-1.0365853309631348,0.4573170840740204,1.1585365533828735,8.100000381469727,-14.399999618530273,6.150000095367432,41.0317497253418,0,
 2351087,-0.10205078125,-0.956298828125,-0.244140625,-1.5548781156539917,0.6402438879013062,1.1280487775802612,8.699999809265137,-14.25,7.800000190734863,40.6962890625,0,
 2351097,-0.1015625,-0.94970703125,-0.2490234375,-1.8902438879013062,0.4268292784690857,1.6768293380737305,8.699999809265137,-14.25,7.800000190734863,41.0317497253418,0,
 2351107,-0.10302734375,-0.958984375,-0.2509765625,-2.317073106765747,0.6707317233085632,1.4939024448394775,10.649999618530273,-15.75,9.0,40.79213333129883,0,
 2351117,-0.1015625,-0.95556640625,-0.24755859375,-2.012195110321045,0.6402438879013062,1.6768293380737305,9.300000190734863,-13.949999809265137,7.199999809265137,41.0317497253418,0,
 2351127,-0.1015625,-0.949951171875,-0.242431640625,-2.3475611209869385,0.8231707215309143,1.4634146690368652,9.300000190734863,-15.149999618530273,7.650000095367432,40.79213333129883,0,
 2351137,-0.1005859375,-0.943115234375,-0.2509765625,-2.5304877758026123,0.8841463327407837,1.737804889678955,9.300000190734863,-15.149999618530273,7.650000095367432,40.79213333129883,0,
 2351147,-0.100341796875,-0.943359375,-0.255126953125,-1.737804889678955,0.4878048896789551,1.3414634466171265,8.850000381469727,-14.850000381469727,8.399999618530273,40.9359016418457,0,
 2351157,-0.10595703125,-0.943359375,-0.252685546875,-1.3414634466171265,0.8231707215309143,1.2804877758026123,7.949999809265137,-14.25,8.25,41.0317497253418,0,
 2351167,-0.09814453125,-0.943603515625,-0.257080078125,-0.8231707215309143,0.5792682766914368,1.0365853309631348,9.300000190734863,-14.850000381469727,7.199999809265137,41.0317497253418,0,
 2351177,-0.096923828125,-0.946044921875,-0.253662109375,-0.792682945728302,0.3658536672592163,1.1280487775802612,9.300000190734863,-14.850000381469727,7.199999809265137,40.9359016418457,0,
 2351187,-0.100341796875,-0.94677734375,-0.254150390625,-0.18292683362960815,0.396341472864151,0.3353658616542816,9.149999618530273,-13.800000190734863,7.800000190734863,40.88798141479492,0,
 2351197,-0.10009765625,-0.94580078125,-0.2490234375,-0.24390244483947754,0.3048780560493469,0.4573170840740204,7.050000190734863,-14.399999618530273,7.650000095367432,40.9359016418457,0,
 2351207,-0.102783203125,-0.947021484375,-0.250244140625,-0.5792682766914368,0.15243902802467346,0.4878048896789551,8.399999618530273,-15.0,7.050000190734863,40.88798141479492,0,
 2351217,-0.10302734375,-0.94677734375,-0.248291015625,-0.4268292784690857,0.3658536672592163,-0.12195122241973877,7.949999809265137,-16.200000762939453,8.25,41.0317497253418,0,
 2351227,-0.102783203125,-0.95361328125,-0.246826171875,-0.5487805008888245,0.24390244483947754,0.6097561120986938,8.850000381469727,-15.149999618530273,8.399999618530273,41.0317497253418,0,
 2351237,-0.096923828125,-0.9443359375,-0.24755859375,-0.6097561120986938,0.4878048896789551,0.5182926654815674,8.550000190734863,-13.949999809265137,7.650000095367432,40.552520751953125,0,
 2351247,-0.097412109375,-0.94970703125,-0.251953125,-0.6402438879013062,0.27439025044441223,0.5182926654815674,7.949999809265137,-15.300000190734863,7.050000190734863,41.0317497253418,0,
 2351257,-0.100830078125,-0.94677734375,-0.255615234375,-0.9756097793579102,0.24390244483947754,0.4573170840740204,8.550000190734863,-14.399999618530273,7.949999809265137,41.07966995239258,0,
 2351267,-0.101318359375,-0.945556640625,-0.255859375,-0.8841463327407837,0.3048780560493469,0.24390244483947754,8.550000190734863,-14.399999618530273,7.949999809265137,40.9359016418457,0,
 2351277,-0.102294921875,-0.9443359375,-0.25146484375,-0.4878048896789551,0.3658536672592163,0.12195122241973877,7.949999809265137,-14.550000190734863,4.5,41.07966995239258,0,
 2351287,-0.096435546875,-0.9482421875,-0.2490234375,-0.4878048896789551,0.3658536672592163,-0.12195122241973877,10.949999809265137,-14.25,8.25,40.79213333129883,0,
 2351297,-0.10400390625,-0.946533203125,-0.25390625,-0.5792682766914368,0.24390244483947754,0.060975611209869385,9.449999809265137,-15.300000190734863,7.050000190734863,40.88798141479492,0,
 2351307,-0.10400390625,-0.955322265625,-0.250244140625,-0.396341472864151,0.3353658616542816,0.15243902802467346,9.449999809265137,-15.300000190734863,7.050000190734863,40.9359016418457,0,
 2351317,-0.099609375,-0.955322265625,-0.25146484375,-1.0060975551605225,0.7012194991111755,-0.27439025044441223,8.550000190734863,-14.399999618530273,6.900000095367432,40.9359016418457,0,
 2351327,-0.093505859375,-0.94970703125,-0.246826171875,-1.3719512224197388,0.396341472864151,0.27439025044441223,8.550000190734863,-15.149999618530273,5.699999809265137,41.0317497253418,0,
 2351337,-0.102294921875,-0.952392578125,-0.248046875,-1.9512195587158203,0.4573170840740204,0.09146341681480408,9.149999618530273,-13.350000381469727,7.5,40.74421310424805,0,
 2351347,-0.095947265625,-0.947998046875,-0.248046875,-1.6158536672592163,0.4573170840740204,0.24390244483947754,9.149999618530273,-13.350000381469727,7.5,41.0317497253418,0,
 2351357,-0.10400390625,-0.946533203125,-0.25244140625,-1.6158536672592163,0.5182926654815674,0.3658536672592163,8.850000381469727,-15.149999618530273,7.650000095367432,40.74421310424805,0,
 2351367,-0.0966796875,-0.939208984375,-0.258056640625,-1.402438998222351,0.5182926654815674,-0.030487805604934692,8.699999809265137,-14.550000190734863,9.0,40.88798141479492,0,
 2351377,-0.104248046875,-0.94677734375,-0.24951171875,-1.3109756708145142,0.4878048896789551,0.18292683362960815,8.699999809265137,-12.149999618530273,6.300000190734863,40.74421310424805,0,
 2351387,-0.099609375,-0.94091796875,-0.25439453125,-1.585365891456604,0.5792682766914368,0.060975611209869385,8.699999809265137,-12.149999618530273,6.300000190734863,40.79213333129883,0,
 2351397,-0.095947265625,-0.952392578125,-0.254638671875,-0.4268292784690857,0.3353658616542816,-0.3048780560493469,8.550000190734863,-14.399999618530273,7.949999809265137,41.07966995239258,0,
 2351407,-0.09765625,-0.947265625,-0.253662109375,-0.09146341681480408,0.396341472864151,-0.030487805604934692,7.949999809265137,-14.550000190734863,8.25,41.0317497253418,0,
 2351417,-0.10400390625,-0.947265625,-0.257568359375,-0.4573170840740204,0.12195122241973877,0.0,8.699999809265137,-13.800000190734863,8.550000190734863,40.79213333129883,0,
 2351427,-0.099609375,-0.9443359375,-0.253173828125,0.09146341681480408,0.3353658616542816,-0.030487805604934692,8.699999809265137,-13.800000190734863,8.550000190734863,40.88798141479492,0,
 2351437,-0.1025390625,-0.946533203125,-0.256103515625,0.5487805008888245,-0.060975611209869385,-0.27439025044441223,8.550000190734863,-13.949999809265137,8.699999809265137,40.6962890625,0,
 2351447,-0.101318359375,-0.947265625,-0.249267578125,0.3658536672592163,0.3658536672592163,0.060975611209869385,7.800000190734863,-14.850000381469727,7.199999809265137,41.127593994140625,0,
 2351457,-0.099365234375,-0.9423828125,-0.258056640625,0.7012194991111755,0.060975611209869385,0.12195122241973877,8.699999809265137,-12.149999618530273,6.75,40.88798141479492,0,
 2351467,-0.09912109375,-0.951904296875,-0.248779296875,1.0060975551605225,-0.060975611209869385,-0.030487805604934692,8.850000381469727,-15.149999618530273,8.699999809265137,40.88798141479492,0,
 2351477,-0.098876953125,-0.94580078125,-0.250244140625,1.1585365533828735,0.18292683362960815,-0.4268292784690857,8.850000381469727,-15.149999618530273,8.699999809265137,40.74421310424805,0,
 2351488,-0.09814453125,-0.946533203125,-0.25390625,1.4939024448394775,-0.12195122241973877,-0.21341463923454285,7.349999904632568,-15.600000381469727,6.900000095367432,40.9359016418457,0,
 2351498,-0.10546875,-0.943359375,-0.260009765625,2.012195110321045,-0.18292683362960815,-0.24390244483947754,10.5,-15.149999618530273,7.650000095367432,40.88798141479492,0,
 2351508,-0.09521484375,-0.935546875,-0.255859375,3.2317073345184326,-0.24390244483947754,-0.4878048896789551,8.100000381469727,-14.850000381469727,7.949999809265137,40.9359016418457,0,
 2351518,-0.099609375,-0.93896484375,-0.254638671875,3.75,-0.3658536672592163,-0.4573170840740204,8.100000381469727,-14.850000381469727,7.949999809265137,41.07966995239258,0,
 2351528,-0.096435546875,-0.943115234375,-0.247802734375,3.8109757900238037,-0.6402438879013062,-0.3353658616542816,7.199999809265137,-13.350000381469727,7.5,40.6962890625,0,
 2351538,-0.1005859375,-0.94287109375,-0.249755859375,3.9939024448394775,-0.4573170840740204,-0.3353658616542816,8.399999618530273,-15.75,8.25,41.127593994140625,0,
 2351548,-0.099609375,-0.946044921875,-0.243896484375,3.9024391174316406,-0.3353658616542816,-0.5182926654815674,9.149999618530273,-13.350000381469727,8.550000190734863,41.0317497253418,0,
 2351558,-0.101806640625,-0.94580078125,-0.24462890625,3.75,-0.4268292784690857,-0.7012194991111755,9.149999618530273,-13.350000381469727,8.550000190734863,40.74421310424805,0,
 2351568,-0.105224609375,-0.94189453125,-0.25,3.8719513416290283,-0.15243902802467346,-0.8231707215309143,8.699999809265137,-14.25,7.800000190734863,41.0317497253418,0,
 2351578,-0.103759765625,-0.94580078125,-0.25048828125,3.841463565826416,-0.4573170840740204,-0.9146341681480408,8.699999809265137,-12.600000381469727,7.5,40.79213333129883,0,
 2351588,-0.105224609375,-0.947509765625,-0.24853515625,3.7195122241973877,-0.3658536672592163,-1.3109756708145142,9.300000190734863,-15.149999618530273,5.699999809265137,40.88798141479492,0,
 2351598,-0.102783203125,-0.94140625,-0.246337890625,4.054878234863281,-0.7012194991111755,-1.432926893234253,9.300000190734863,-15.149999618530273,5.699999809265137,40.88798141479492,0,
 2351608,-0.020263671875,-0.97607421875,-0.2900390625,3.8719513416290283,-0.7317073345184326,-1.585365891456604,11.25,-13.199999809265137,9.149999618530273,40.9359016418457,0,
 2351618,-0.0751953125,-0.92822265625,-0.2470703125,4.603658676147461,-1.25,-1.8902438879013062,8.699999809265137,-14.550000190734863,6.300000190734863,40.79213333129883,0,
 2351628,-0.095458984375,-0.9443359375,-0.244384765625,4.908536911010742,-0.3658536672592163,-1.7682926654815674,9.449999809265137,-12.600000381469727,7.800000190734863,40.88798141479492,0,
 2351638,-0.103515625,-0.957275390625,-0.23388671875,4.542683124542236,0.0,-1.097561001777649,9.449999809265137,-12.600000381469727,7.800000190734863,40.9359016418457,0,
 2351648,-0.421875,-0.944580078125,-0.32373046875,4.237804889678955,0.12195122241973877,-1.0365853309631348,8.550000190734863,-13.199999809265137,7.650000095367432,40.9359016418457,0,
 2351658,-0.2861328125,-1.1162109375,-0.209228515625,6.554878234863281,1.585365891456604,-3.0182926654815674,9.449999809265137,-13.800000190734863,6.75,41.0317497253418,0,
 2351668,-0.2158203125,-1.06640625,-0.232666015625,0.4573170840740204,4.969512462615967,-1.7987805604934692,8.550000190734863,-13.199999809265137,8.399999618530273,41.0317497253418,0,
 2351678,-0.054931640625,-0.902099609375,-0.237548828125,0.4878048896789551,2.6219513416290283,0.3048780560493469,9.449999809265137,-13.050000190734863,9.0,40.60044479370117,0,
 2351688,-0.031494140625,-0.943603515625,-0.2509765625,3.5365853309631348,2.22560977935791,0.4878048896789551,10.949999809265137,-15.300000190734863,5.550000190734863,40.9359016418457,0,
 2351698,-0.0478515625,-0.9521484375,-0.2333984375,4.1768293380737305,1.4939024448394775,-0.24390244483947754,8.550000190734863,-13.949999809265137,8.699999809265137,41.07966995239258,0,
 2351718,-0.081298828125,-0.962646484375,-0.23291015625,4.481707572937012,0.5182926654815674,-0.4268292784690857,9.300000190734863,-15.149999618530273,8.399999618530273,40.9359016418457,0,
 2351728,-0.08837890625,-0.960205078125,-0.22705078125,4.146341323852539,-0.09146341681480408,0.12195122241973877,9.300000190734863,-15.149999618530273,8.399999618530273,40.9359016418457,0,
 2351738,-0.095947265625,-0.95654296875,-0.235107421875,3.8109757900238037,0.15243902802467346,-0.030487805604934692,8.399999618530273,-15.0,7.5,41.0317497253418,0,
 2351748,-0.09716796875,-0.9423828125,-0.234375,4.054878234863281,-0.24390244483947754,0.3658536672592163,9.300000190734863,-13.649999618530273,7.650000095367432,41.0317497253418,0,
 2351758,-0.10009765625,-0.94775390625,-0.237060546875,5.121951103210449,-0.18292683362960815,0.18292683362960815,8.399999618530273,-12.600000381469727,7.050000190734863,41.0317497253418,0,
 2351768,-0.0986328125,-0.9462890625,-0.236572265625,5.97560977935791,-0.030487805604934692,0.24390244483947754,8.399999618530273,-12.600000381469727,7.050000190734863,40.9359016418457,0,
 2351778,-0.0986328125,-0.949951171875,-0.231201171875,6.432927131652832,-0.15243902802467346,0.4878048896789551,9.149999618530273,-12.600000381469727,7.5,40.79213333129883,0,
 2351788,-0.10595703125,-0.957763671875,-0.2265625,6.341463565826416,-0.030487805604934692,0.5792682766914368,8.850000381469727,-14.399999618530273,6.900000095367432,40.9359016418457,0,
 2351798,-0.1162109375,-0.957763671875,-0.22265625,6.432927131652832,-0.3658536672592163,0.7012194991111755,9.149999618530273,-13.350000381469727,9.0,41.07966995239258,0,
 2351808,-0.34228515625,-0.834228515625,-0.306396484375,5.304878234863281,0.4268292784690857,0.5792682766914368,9.149999618530273,-13.350000381469727,9.0,41.0317497253418,0,
 2351818,-0.200439453125,-1.003173828125,-0.195556640625,8.75,-1.585365891456604,3.262195110321045,8.850000381469727,-14.399999618530273,6.449999809265137,40.9359016418457,0,
 2351828,-0.135009765625,-0.97705078125,-0.202880859375,3.932926893234253,2.7439024448394775,-0.9146341681480408,8.699999809265137,-14.550000190734863,8.25,41.127593994140625,0,
 2351838,-0.04833984375,-0.97412109375,-0.207275390625,3.8719513416290283,1.9817073345184326,0.8231707215309143,7.050000190734863,-13.199999809265137,7.949999809265137,41.127593994140625,0,
 2351848,-0.03955078125,-0.9765625,-0.202392578125,4.02439022064209,1.097561001777649,-1.0060975551605225,7.050000190734863,-13.199999809265137,7.949999809265137,41.0317497253418,0,
 2351858,-0.03662109375,-0.986083984375,-0.193603515625,3.353658676147461,0.18292683362960815,-1.4939024448394775,7.349999904632568,-14.399999618530273,7.650000095367432,40.6962890625,0,
 2351868,-0.068603515625,-0.990966796875,-0.202880859375,1.6158536672592163,-0.09146341681480408,-1.0670732259750366,10.050000190734863,-14.850000381469727,7.949999809265137,40.88798141479492,0,
 2351878,-0.0810546875,-0.968994140625,-0.22021484375,-0.3353658616542816,-0.3658536672592163,-1.2195122241973877,9.449999809265137,-13.800000190734863,8.25,41.0317497253418,0,
 2351888,-0.092529296875,-0.9658203125,-0.217529296875,-1.6768293380737305,-0.12195122241973877,-0.5487805008888245,7.199999809265137,-11.399999618530273,5.550000190734863,40.79213333129883,0,
 2351898,-0.094482421875,-0.9609375,-0.224609375,-1.9512195587158203,0.3048780560493469,-0.5182926654815674,9.600000381469727,-15.149999618530273,6.900000095367432,41.0317497253418,0,
 2351908,-0.095947265625,-0.956298828125,-0.224853515625,-2.2560975551605225,0.12195122241973877,0.0,9.149999618530273,-14.550000190734863,6.0,40.79213333129883,0,
 2351918,-0.094970703125,-0.95556640625,-0.22021484375,-2.4695122241973877,0.4268292784690857,-0.24390244483947754,8.100000381469727,-15.899999618530273,7.650000095367432,40.88798141479492,0,
 2351928,-0.096435546875,-0.9560546875,-0.220947265625,-2.408536672592163,0.5487805008888245,-0.030487805604934692,9.300000190734863,-13.949999809265137,6.449999809265137,41.0317497253418,0,
 2351938,-0.103271484375,-0.957763671875,-0.218994140625,-2.7439024448394775,0.7317073345184326,-0.21341463923454285,9.300000190734863,-13.949999809265137,6.449999809265137,40.9359016418457,0,
 2351948,-0.09326171875,-0.959228515625,-0.2197265625,-3.0487804412841797,0.8231707215309143,-0.24390244483947754,9.449999809265137,-13.350000381469727,7.800000190734863,40.9359016418457,0,
 2351958,-0.08935546875,-0.958984375,-0.221923828125,-3.7195122241973877,0.8536585569381714,-0.4573170840740204,7.949999809265137,-13.350000381469727,7.050000190734863,41.0317497253418,0,
 2351968,-0.09716796875,-0.95751953125,-0.218017578125,-3.9634146690368652,0.9146341681480408,-0.396341472864151,9.600000381469727,-15.149999618530273,6.900000095367432,40.9359016418457,0,
 2351978,-0.09814453125,-0.957275390625,-0.22265625,-4.359755992889404,0.6402438879013062,-0.21341463923454285,9.600000381469727,-15.149999618530273,6.900000095367432,40.9359016418457,0,
 2351988,-0.09326171875,-0.95654296875,-0.224609375,-4.420732021331787,0.9146341681480408,-0.24390244483947754,8.100000381469727,-13.949999809265137,7.949999809265137,41.0317497253418,0,
 2351998,-0.09521484375,-0.953125,-0.228271484375,-4.0853657722473145,0.6402438879013062,-0.27439025044441223,7.949999809265137,-15.300000190734863,5.25,40.88798141479492,0,
 2352008,-0.09619140625,-0.947998046875,-0.22705078125,-3.841463565826416,1.0060975551605225,0.18292683362960815,10.050000190734863,-14.850000381469727,7.949999809265137,41.07966995239258,0,
 2352018,-0.0947265625,-0.95458984375,-0.228271484375,-3.262195110321045,1.0670732259750366,-0.060975611209869385,10.050000190734863,-14.850000381469727,7.949999809265137,40.74421310424805,0,
 2352028,-0.095947265625,-0.952392578125,-0.227783203125,-3.628048896789551,1.1280487775802612,0.27439025044441223,8.550000190734863,-15.149999618530273,7.949999809265137,40.9359016418457,0,
 2352038,-0.095947265625,-0.951904296875,-0.228515625,-3.7195122241973877,1.1890244483947754,0.4878048896789551,7.5,-15.0,7.5,40.88798141479492,0,
 2352048,-0.098388671875,-0.95654296875,-0.22412109375,-3.841463565826416,1.2804877758026123,0.3658536672592163,9.449999809265137,-14.25,9.0,40.79213333129883,0,
 2352058,-0.091064453125,-0.950927734375,-0.22607421875,-3.841463565826416,0.9451219439506531,0.18292683362960815,9.449999809265137,-14.25,9.0,40.9359016418457,0,
 2352068,-0.094970703125,-0.9521484375,-0.235107421875,-3.5060975551605225,1.0365853309631348,0.09146341681480408,7.199999809265137,-14.550000190734863,6.75,40.79213333129883,0,
 2352078,-0.097412109375,-0.951904296875,-0.22998046875,-3.5975611209869385,0.9451219439506531,-0.15243902802467346,7.5,-13.350000381469727,7.800000190734863,40.79213333129883,0,
 2352088,-0.095947265625,-0.947998046875,-0.235595703125,-3.2926828861236572,0.792682945728302,-0.030487805604934692,7.199999809265137,-16.200000762939453,6.300000190734863,41.0317497253418,0,
 2352098,-0.08984375,-0.955078125,-0.23291015625,-3.353658676147461,0.6097561120986938,0.09146341681480408,7.199999809265137,-16.200000762939453,6.300000190734863,40.9359016418457,0,
 2352108,-0.09619140625,-0.95166015625,-0.22900390625,-3.1097562313079834,0.792682945728302,0.060975611209869385,7.949999809265137,-14.25,8.550000190734863,41.127593994140625,0,
 2352118,-0.1015625,-0.9521484375,-0.235107421875,-3.1097562313079834,0.9756097793579102,0.396341472864151,10.050000190734863,-13.949999809265137,8.699999809265137,41.0317497253418,0,
 2352128,-0.096435546875,-0.945068359375,-0.238525390625,-3.1097562313079834,0.8231707215309143,0.4268292784690857,7.800000190734863,-13.649999618530273,7.650000095367432,40.9359016418457,0,
 2352138,-0.09423828125,-0.94921875,-0.2392578125,-2.7134146690368652,0.7012194991111755,0.15243902802467346,8.850000381469727,-15.149999618530273,7.949999809265137,40.88798141479492,0,
 2352148,-0.0947265625,-0.949462890625,-0.238525390625,-2.4390244483947754,0.8536585569381714,0.396341472864151,8.850000381469727,-15.149999618530273,7.949999809265137,41.0317497253418,0,
 2352158,-0.1015625,-0.9453125,-0.230712890625,-1.737804889678955,0.7621951103210449,0.3658536672592163,7.949999809265137,-15.300000190734863,7.5,40.88798141479492,0,
 2352168,-0.0927734375,-0.947998046875,-0.231201171875,-1.6158536672592163,0.8231707215309143,0.15243902802467346,8.100000381469727,-15.899999618530273,7.650000095367432,40.79213333129883,0,
 2352178,-0.091796875,-0.948974609375,-0.234375,-1.5243902206420898,0.3658536672592163,0.24390244483947754,10.199999809265137,-15.0,6.75,40.88798141479492,0,
 2352188,-0.094482421875,-0.9453125,-0.240966796875,-1.402438998222351,0.6707317233085632,0.5792682766914368,10.199999809265137,-15.0,6.75,41.0317497253418,0,
 2352198,-0.0966796875,-0.951904296875,-0.2392578125,-0.5792682766914368,0.4268292784690857,0.5182926654815674,10.199999809265137,-15.0,3.299999952316284,40.79213333129883,0,
 2352218,-0.0947265625,-0.95361328125,-0.24072265625,-0.6097561120986938,0.3353658616542816,0.5182926654815674,7.5,-13.800000190734863,8.25,40.88798141479492,0,
 2352228,-0.093994140625,-0.95849609375,-0.23486328125,-0.24390244483947754,0.3048780560493469,0.3658536672592163,7.5,-13.800000190734863,8.25,40.9359016418457,0,
 2352238,-0.094970703125,-0.956787109375,-0.237548828125,-0.3353658616542816,0.3658536672592163,0.5792682766914368,8.399999618530273,-15.75,8.550000190734863,40.79213333129883,0,
 2352248,-0.094970703125,-0.952880859375,-0.238037109375,-0.6097561120986938,0.5792682766914368,0.7621951103210449,8.699999809265137,-14.550000190734863,8.25,40.9359016418457,0,
 2352258,-0.09423828125,-0.949462890625,-0.241455078125,-0.6707317233085632,0.5182926654815674,0.6097561120986938,8.100000381469727,-15.149999618530273,8.399999618530273,40.9359016418457,0,
 2352268,-0.091064453125,-0.950439453125,-0.22998046875,-0.3658536672592163,0.5792682766914368,0.6402438879013062,8.100000381469727,-15.149999618530273,8.399999618530273,40.74421310424805,0,
 2352279,-0.09912109375,-0.94287109375,-0.2373046875,-0.8231707215309143,0.5487805008888245,0.3353658616542816,8.100000381469727,-13.949999809265137,8.399999618530273,41.0317497253418,0,
 2352289,-0.091796875,-0.946533203125,-0.23486328125,-0.5487805008888245,0.6097561120986938,0.09146341681480408,9.149999618530273,-13.050000190734863,8.550000190734863,40.9359016418457,0,
 2352299,-0.096435546875,-0.9501953125,-0.23828125,-0.5487805008888245,0.6097561120986938,0.4878048896789551,8.550000190734863,-13.649999618530273,5.400000095367432,40.60044479370117,0,
 2352309,-0.09375,-0.95263671875,-0.240478515625,-0.12195122241973877,0.4268292784690857,0.4268292784690857,8.550000190734863,-13.649999618530273,5.400000095367432,41.0317497253418,0,
 2352319,-0.095703125,-0.956298828125,-0.236328125,-0.030487805604934692,0.4878048896789551,0.18292683362960815,7.949999809265137,-13.350000381469727,8.25,40.79213333129883,0,
 2352329,-0.09619140625,-0.959716796875,-0.234619140625,0.18292683362960815,0.396341472864151,0.3048780560493469,9.300000190734863,-13.649999618530273,7.199999809265137,40.74421310424805,0,
 2352339,-0.08984375,-0.954345703125,-0.23291015625,-0.4878048896789551,0.9146341681480408,0.3658536672592163,8.550000190734863,-14.399999618530273,8.699999809265137,40.6962890625,0,
 2352349,-0.093505859375,-0.957275390625,-0.23583984375,-1.0670732259750366,0.4878048896789551,0.4268292784690857,9.149999618530273,-14.550000190734863,9.0,40.74421310424805,0,
 2352359,-0.0947265625,-0.954345703125,-0.23193359375,-1.097561001777649,0.7012194991111755,0.5487805008888245,7.5,-14.25,6.75,40.6962890625,0,
 2352369,-0.0927734375,-0.95068359375,-0.2353515625,-1.402438998222351,0.6707317233085632,0.3048780560493469,9.300000190734863,-15.149999618530273,8.399999618530273,41.0317497253418,0,
 2352379,-0.095458984375,-0.95458984375,-0.233642578125,-1.3109756708145142,0.5792682766914368,0.27439025044441223,9.149999618530273,-13.800000190734863,7.5,40.79213333129883,0,
 2352389,-0.09423828125,-0.949462890625,-0.237548828125,-1.6158536672592163,0.7317073345184326,0.21341463923454285,9.149999618530273,-15.0,9.75,41.07966995239258,0,
 2352399,-0.101318359375,-0.952392578125,-0.240234375,-1.5243902206420898,0.5182926654815674,0.27439025044441223,9.149999618530273,-15.0,9.75,41.0317497253418,0,
 2352409,-0.091552734375,-0.951904296875,-0.233642578125,-1.1890244483947754,0.6097561120986938,0.3658536672592163,9.300000190734863,-15.600000381469727,7.650000095367432,40.74421310424805,0,
 2352419,-0.09033203125,-0.95166015625,-0.24267578125,-1.1280487775802612,0.4878048896789551,0.12195122241973877,8.850000381469727,-13.949999809265137,7.949999809265137,40.9359016418457,0,
 2352429,-0.094970703125,-0.953125,-0.23583984375,-1.4634146690368652,0.7621951103210449,0.3048780560493469,10.949999809265137,-13.350000381469727,7.050000190734863,41.127593994140625,0,
 2352439,-0.09326171875,-0.94970703125,-0.238525390625,-1.402438998222351,0.6097561120986938,0.5182926654815674,10.949999809265137,-13.350000381469727,7.050000190734863,41.07966995239258,0,
 2352449,-0.091796875,-0.952392578125,-0.235107421875,-1.5243902206420898,0.5792682766914368,0.3658536672592163,9.600000381469727,-14.399999618530273,8.699999809265137,41.0317497253418,0,
 2352459,-0.097412109375,-0.95068359375,-0.239990234375,-1.1585365533828735,0.7621951103210449,0.5487805008888245,8.550000190734863,-14.399999618530273,8.399999618530273,40.74421310424805,0,
 2352469,-0.09326171875,-0.9541015625,-0.236083984375,-1.7073171138763428,0.7317073345184326,0.24390244483947754,8.699999809265137,-13.800000190734863,7.050000190734863,40.9359016418457,0,
 2352479,-0.09619140625,-0.955078125,-0.235107421875,-1.25,0.6707317233085632,0.030487805604934692,8.699999809265137,-13.800000190734863,7.050000190734863,41.22344207763672,0,
 2352489,-0.09912109375,-0.942626953125,-0.238525390625,-1.3109756708145142,0.5792682766914368,0.5487805008888245,7.800000190734863,-12.75,9.149999618530273,40.88798141479492,0,
 2352499,-0.09423828125,-0.94482421875,-0.239501953125,-0.6097561120986938,0.396341472864151,0.3048780560493469,8.699999809265137,-14.550000190734863,8.550000190734863,40.88798141479492,0,
 2352509,-0.093017578125,-0.9541015625,-0.239990234375,-0.7621951103210449,0.27439025044441223,0.3048780560493469,9.300000190734863,-15.149999618530273,4.650000095367432,40.79213333129883,0,
 2352519,-0.096435546875,-0.951171875,-0.239990234375,-0.8231707215309143,0.3353658616542816,0.09146341681480408,9.300000190734863,-15.149999618530273,4.650000095367432,40.9359016418457,0,
 2352529,-0.09619140625,-0.948974609375,-0.239013671875,-0.3353658616542816,0.18292683362960815,-0.09146341681480408,8.550000190734863,-15.149999618530273,8.399999618530273,40.9359016418457,0,
 2352539,-0.0947265625,-0.947021484375,-0.2431640625,-0.4573170840740204,0.4573170840740204,0.3658536672592163,8.399999618530273,-13.050000190734863,9.0,40.88798141479492,0,
 2352549,-0.09326171875,-0.948486328125,-0.237548828125,-0.09146341681480408,0.3353658616542816,0.21341463923454285,8.100000381469727,-13.649999618530273,9.149999618530273,41.0317497253418,0,
 2352559,-0.0966796875,-0.94775390625,-0.232177734375,0.060975611209869385,0.5792682766914368,0.5792682766914368,8.399999618530273,-14.25,7.800000190734863,40.552520751953125,0,
 2352569,-0.097900390625,-0.955078125,-0.238037109375,-0.396341472864151,0.5182926654815674,0.5182926654815674,8.699999809265137,-13.350000381469727,7.800000190734863,40.9359016418457,0,
 2352579,-0.093017578125,-0.953369140625,-0.2294921875,-0.030487805604934692,0.5182926654815674,0.3353658616542816,8.699999809265137,-12.600000381469727,6.75,40.79213333129883,0,
 2352589,-0.100830078125,-0.955078125,-0.2333984375,-0.396341472864151,0.6097561120986938,0.5182926654815674,6.75,-14.550000190734863,7.050000190734863,41.127593994140625,0,
 2352599,-0.096923828125,-0.95458984375,-0.23583984375,-0.4878048896789551,0.5182926654815674,0.27439025044441223,9.300000190734863,-15.899999618530273,6.900000095367432,41.2713623046875,0,
 2352609,-0.094970703125,-0.950439453125,-0.2353515625,-0.5792682766914368,0.3658536672592163,0.030487805604934692,9.300000190734863,-15.899999618530273,6.900000095367432,40.79213333129883,0,
 2352619,-0.093505859375,-0.955810546875,-0.235107421875,-0.8536585569381714,0.4878048896789551,0.18292683362960815,9.300000190734863,-13.949999809265137,9.149999618530273,41.0317497253418,0,
 2352629,-0.091796875,-0.952392578125,-0.235595703125,-0.9146341681480408,0.4573170840740204,0.060975611209869385,8.699999809265137,-13.350000381469727,7.5,40.79213333129883,0,
 2352639,-0.093017578125,-0.955810546875,-0.236328125,-1.0060975551605225,0.6707317233085632,0.030487805604934692,9.300000190734863,-15.899999618530273,7.949999809265137,41.0317497253418,0,
 2352649,-0.09521484375,-0.955078125,-0.2353515625,-1.0060975551605225,0.6707317233085632,0.27439025044441223,9.300000190734863,-15.899999618530273,7.949999809265137,40.9359016418457,0,
 2352659,-0.09130859375,-0.9501953125,-0.228515625,-1.0670732259750366,0.8536585569381714,0.15243902802467346,8.699999809265137,-13.800000190734863,6.75,40.60044479370117,0,
 2352669,-0.094970703125,-0.95458984375,-0.2333984375,-1.0365853309631348,0.5792682766914368,0.18292683362960815,8.850000381469727,-13.199999809265137,6.900000095367432,40.88798141479492,0,
 2352679,-0.09619140625,-0.95556640625,-0.23583984375,-1.0060975551605225,0.18292683362960815,0.18292683362960815,6.599999904632568,-13.199999809265137,9.149999618530273,41.0317497253418,0,
 2352689,-0.095947265625,-0.943603515625,-0.244384765625,-1.2195122241973877,0.7621951103210449,-0.030487805604934692,6.599999904632568,-13.199999809265137,9.149999618530273,41.07966995239258,0,
 2352699,-0.093994140625,-0.95556640625,-0.236328125,-0.7317073345184326,0.6097561120986938,-0.060975611209869385,9.149999618530273,-14.25,7.5,40.88798141479492,0,
 2352709,-0.09375,-0.95458984375,-0.24072265625,-1.0365853309631348,0.396341472864151,0.3048780560493469,9.300000190734863,-12.75,6.900000095367432,40.74421310424805,0,
 2352719,-0.090576171875,-0.9482421875,-0.23974609375,-1.0670732259750366,0.7621951103210449,0.3353658616542816,8.850000381469727,-13.649999618530273,7.949999809265137,41.07966995239258,0,
 2352729,-0.094970703125,-0.94970703125,-0.241943359375,-1.0365853309631348,0.4268292784690857,-0.030487805604934692,8.850000381469727,-13.649999618530273,7.949999809265137,41.0317497253418,0,
 2352739,-0.098876953125,-0.96875,-0.238037109375,-0.7621951103210449,0.7317073345184326,0.3658536672592163,7.949999809265137,-14.550000190734863,9.300000190734863,40.79213333129883,0,
 2352749,-0.09326171875,-0.94677734375,-0.245361328125,-1.1280487775802612,0.5487805008888245,0.27439025044441223,8.850000381469727,-16.350000381469727,7.949999809265137,41.127593994140625,0,
 2352759,-0.0966796875,-0.9453125,-0.242919921875,-0.9146341681480408,0.7012194991111755,0.15243902802467346,8.100000381469727,-15.149999618530273,7.650000095367432,40.88798141479492,0,
 2352769,-0.095703125,-0.950927734375,-0.243408203125,-0.5487805008888245,0.3658536672592163,0.24390244483947754,8.100000381469727,-15.149999618530273,7.650000095367432,41.0317497253418,0,
 2352779,-0.096923828125,-0.948974609375,-0.2373046875,-0.060975611209869385,0.3658536672592163,0.396341472864151,8.850000381469727,-13.649999618530273,7.650000095367432,40.9359016418457,0,
 2352789,-0.091064453125,-0.95458984375,-0.238037109375,0.060975611209869385,0.3658536672592163,0.3658536672592163,9.149999618530273,-15.300000190734863,9.0,41.0317497253418,0,
 2352799,-0.096923828125,-0.9453125,-0.236083984375,-0.09146341681480408,0.5182926654815674,0.3048780560493469,8.399999618530273,-15.300000190734863,8.25,40.9359016418457,0,
 2352809,-0.09716796875,-0.9521484375,-0.242919921875,-0.6097561120986938,0.6402438879013062,0.3353658616542816,6.599999904632568,-12.0,5.699999809265137,40.79213333129883,0,
 2352819,-0.098388671875,-0.95068359375,-0.23828125,-0.4878048896789551,0.3353658616542816,0.12195122241973877,6.599999904632568,-12.0,5.699999809265137,40.79213333129883,0,
 2352829,-0.093017578125,-0.955078125,-0.237548828125,-0.7317073345184326,0.5182926654815674,0.24390244483947754,7.349999904632568,-13.949999809265137,7.650000095367432,41.07966995239258,0,
 2352839,-0.096435546875,-0.949462890625,-0.24267578125,-0.24390244483947754,0.3658536672592163,0.3658536672592163,10.5,-13.949999809265137,9.149999618530273,41.127593994140625,0,
 2352849,-0.09130859375,-0.949462890625,-0.244384765625,-0.18292683362960815,0.3048780560493469,0.7012194991111755,7.949999809265137,-14.25,8.25,40.60044479370117,0,
 2352859,-0.092529296875,-0.95703125,-0.23388671875,-0.396341472864151,0.5792682766914368,0.3658536672592163,7.949999809265137,-14.25,8.25,41.07966995239258,0,
 2352869,-0.09228515625,-0.949462890625,-0.2392578125,-0.5792682766914368,0.4573170840740204,0.060975611209869385,9.149999618530273,-15.0,7.800000190734863,41.0317497253418,0,
 2352879,-0.09326171875,-0.951904296875,-0.239013671875,-0.4878048896789551,0.396341472864151,0.09146341681480408,8.100000381469727,-13.199999809265137,7.949999809265137,40.88798141479492,0,
 2352889,-0.097900390625,-0.9541015625,-0.238525390625,-0.6707317233085632,0.4878048896789551,0.15243902802467346,8.699999809265137,-13.350000381469727,8.25,41.07966995239258,0,
 2352899,-0.1015625,-0.954833984375,-0.239013671875,-0.6097561120986938,0.7317073345184326,0.24390244483947754,8.699999809265137,-13.350000381469727,8.25,40.74421310424805,0,
 2352909,-0.095703125,-0.957763671875,-0.236328125,-0.396341472864151,0.18292683362960815,0.396341472864151,7.800000190734863,-14.850000381469727,9.149999618530273,40.88798141479492,0,
 2352919,-0.095458984375,-0.950927734375,-0.240234375,-0.4573170840740204,0.3048780560493469,0.27439025044441223,8.550000190734863,-17.549999237060547,5.400000095367432,41.0317497253418,0,
 2352929,-0.095703125,-0.954833984375,-0.24267578125,-0.8231707215309143,0.3048780560493469,0.3048780560493469,7.5,-13.800000190734863,7.5,40.79213333129883,0,
 2352939,-0.094482421875,-0.95166015625,-0.24169921875,-0.4878048896789551,0.4573170840740204,0.3658536672592163,7.5,-13.800000190734863,7.5,40.9359016418457,0,
 2352949,-0.094970703125,-0.951171875,-0.239013671875,-0.5792682766914368,0.4878048896789551,0.4268292784690857,8.850000381469727,-14.850000381469727,7.650000095367432,40.79213333129883,0,
 2352959,-0.094970703125,-0.952880859375,-0.241943359375,-0.5487805008888245,0.24390244483947754,0.21341463923454285,8.699999809265137,-14.25,8.550000190734863,40.74421310424805,0,
 2352969,-0.092529296875,-0.955078125,-0.239501953125,-0.9146341681480408,0.5792682766914368,0.3048780560493469,7.199999809265137,-16.200000762939453,8.25,40.9359016418457,0,
 2352979,-0.091796875,-0.953369140625,-0.2392578125,-0.792682945728302,0.4878048896789551,0.3048780560493469,7.199999809265137,-16.200000762939453,8.25,41.127593994140625,0,
