timestamp,accl_x,accl_y,accl_z,gyro_x,gyro_y,gyro_z,mag_x,mag_y,mag_z,temp,emg,
 345641,-0.11572265625,-0.9541015625,-0.227294921875,-0.3658536672592163,0.24390244483947754,0.3658536672592163,0.15000000596046448,-21.149999618530273,5.400000095367432,40.07329177856445,0,
 345651,-0.110107421875,-0.950927734375,-0.23291015625,-0.7317073345184326,0.4268292784690857,0.396341472864151,-1.2000000476837158,-19.5,4.199999809265137,39.737831115722656,0,
 345661,-0.10546875,-0.947509765625,-0.233154296875,-0.7012194991111755,0.4878048896789551,0.3048780560493469,-0.75,-19.799999237060547,7.050000190734863,39.88159942626953,0,
 345681,-0.10205078125,-0.95263671875,-0.236083984375,-0.792682945728302,0.3658536672592163,0.4573170840740204,-1.2000000476837158,-20.25,5.400000095367432,39.689910888671875,0,
 345691,-0.105224609375,-0.947509765625,-0.239990234375,-0.4878048896789551,0.3048780560493469,0.24390244483947754,-1.649999976158142,-19.5,4.650000095367432,39.977447509765625,0,
 345701,-0.106689453125,-0.9501953125,-0.231689453125,-0.5182926654815674,0.4573170840740204,0.24390244483947754,-1.7999999523162842,-20.850000381469727,6.0,39.737831115722656,0,
 345711,-0.109375,-0.94873046875,-0.236328125,-0.6707317233085632,-0.030487805604934692,0.396341472864151,-0.8999999761581421,-19.950000762939453,6.900000095367432,39.83367919921875,0,
 345721,-0.108154296875,-0.953125,-0.23828125,-0.6707317233085632,0.18292683362960815,0.396341472864151,-2.0999999046325684,-22.649999618530273,6.900000095367432,40.025367736816406,0,
 345731,-0.104248046875,-0.951416015625,-0.233642578125,-0.3353658616542816,0.18292683362960815,0.7621951103210449,-1.5,-19.799999237060547,6.0,39.64198684692383,0,
 345741,-0.110595703125,-0.955322265625,-0.23583984375,-0.21341463923454285,0.24390244483947754,0.3658536672592163,-1.649999976158142,-19.950000762939453,6.449999809265137,39.977447509765625,0,
 345751,-0.109375,-0.949462890625,-0.232666015625,-0.6097561120986938,0.4878048896789551,0.5792682766914368,-1.2000000476837158,-22.350000381469727,6.449999809265137,39.88159942626953,0,
 345761,-0.10400390625,-0.951171875,-0.236083984375,-0.4573170840740204,0.396341472864151,0.5182926654815674,-1.2000000476837158,-22.350000381469727,6.449999809265137,39.83367919921875,0,
 345771,-0.108642578125,-0.95166015625,-0.234619140625,-0.030487805604934692,0.396341472864151,-0.060975611209869385,-1.2000000476837158,-20.700000762939453,4.650000095367432,39.83367919921875,0,
 345781,-0.105712890625,-0.951904296875,-0.2294921875,-0.27439025044441223,0.12195122241973877,0.396341472864151,-0.44999998807907104,-19.950000762939453,6.449999809265137,39.977447509765625,0,
 345791,-0.10791015625,-0.955078125,-0.234375,-0.09146341681480408,0.4268292784690857,0.15243902802467346,-2.25,-19.799999237060547,6.0,40.07329177856445,0,
 345801,-0.107177734375,-0.95068359375,-0.23046875,-0.24390244483947754,0.12195122241973877,0.3353658616542816,-2.25,-19.799999237060547,6.0,39.64198684692383,0,
 345811,-0.10986328125,-0.9521484375,-0.231689453125,0.060975611209869385,0.4573170840740204,0.060975611209869385,0.44999998807907104,-20.25,6.150000095367432,39.83367919921875,0,
 345821,-0.10791015625,-0.95458984375,-0.227783203125,0.3048780560493469,0.396341472864151,0.0,-1.7999999523162842,-20.850000381469727,6.300000190734863,39.977447509765625,0,
 345831,-0.109130859375,-0.95751953125,-0.240234375,-0.21341463923454285,0.24390244483947754,0.27439025044441223,-2.4000000953674316,-19.200000762939453,6.449999809265137,39.83367919921875,0,
 345841,-0.10693359375,-0.948486328125,-0.22705078125,-0.27439025044441223,0.5487805008888245,-0.12195122241973877,-2.4000000953674316,-19.200000762939453,6.449999809265137,40.16913604736328,0,
 345851,-0.10498046875,-0.952880859375,-0.23876953125,-0.6097561120986938,0.3658536672592163,0.24390244483947754,-2.25,-20.549999237060547,6.300000190734863,39.737831115722656,0,
 345861,-0.106689453125,-0.949951171875,-0.2314453125,-0.15243902802467346,0.12195122241973877,0.15243902802467346,-0.30000001192092896,-19.350000381469727,6.75,39.737831115722656,0,
 345871,-0.108154296875,-0.9501953125,-0.23193359375,-0.5182926654815674,0.030487805604934692,0.27439025044441223,-1.2000000476837158,-22.649999618530273,6.449999809265137,39.88159942626953,0,
 345881,-0.109375,-0.950927734375,-0.229736328125,-0.5182926654815674,0.3658536672592163,0.3658536672592163,0.15000000596046448,-19.5,6.150000095367432,39.977447509765625,0,
 345891,-0.1064453125,-0.95751953125,-0.227783203125,-0.7621951103210449,0.7012194991111755,0.7012194991111755,-0.44999998807907104,-20.25,6.150000095367432,40.07329177856445,0,
 345901,-0.108154296875,-0.95263671875,-0.229736328125,-0.7012194991111755,0.4878048896789551,0.7317073345184326,-0.75,-22.049999237060547,1.5,39.977447509765625,0,
 345911,-0.110107421875,-0.953369140625,-0.230712890625,-1.0060975551605225,0.24390244483947754,0.7012194991111755,0.15000000596046448,-22.649999618530273,6.449999809265137,39.83367919921875,0,
 345921,-0.10595703125,-0.95166015625,-0.232421875,-1.0365853309631348,0.4268292784690857,0.4573170840740204,-3.0,-22.049999237060547,6.300000190734863,39.737831115722656,0,
 345931,-0.110107421875,-0.953857421875,-0.233154296875,-1.4939024448394775,0.18292683362960815,0.5487805008888245,-3.0,-22.049999237060547,6.300000190734863,39.88159942626953,0,
 345941,-0.106689453125,-0.951904296875,-0.232421875,-0.9756097793579102,0.3658536672592163,0.7012194991111755,-1.5,-20.549999237060547,5.550000190734863,39.88159942626953,0,
 345951,-0.102294921875,-0.950439453125,-0.232177734375,-1.097561001777649,0.5792682766914368,0.7621951103210449,-1.2000000476837158,-20.700000762939453,6.449999809265137,39.737831115722656,0,
 345961,-0.103515625,-0.947021484375,-0.235107421875,-0.9146341681480408,0.6707317233085632,0.6097561120986938,-1.649999976158142,-21.450000762939453,7.199999809265137,40.07329177856445,0,
 345971,-0.10546875,-0.945068359375,-0.233642578125,-0.792682945728302,0.27439025044441223,0.3048780560493469,-1.649999976158142,-21.450000762939453,7.199999809265137,39.977447509765625,0,
 345981,-0.107177734375,-0.947509765625,-0.23974609375,-0.6402438879013062,0.060975611209869385,0.15243902802467346,-0.30000001192092896,-20.100000381469727,7.5,39.737831115722656,0,
 345991,-0.10302734375,-0.947509765625,-0.232421875,-0.7621951103210449,0.4878048896789551,0.3353658616542816,0.15000000596046448,-19.200000762939453,4.949999809265137,39.977447509765625,0,
 346001,-0.107666015625,-0.947998046875,-0.234619140625,-0.9451219439506531,0.5792682766914368,0.0,-1.0499999523162842,-20.549999237060547,4.050000190734863,39.64198684692383,0,
 346011,-0.108154296875,-0.949951171875,-0.23486328125,-0.6707317233085632,0.4268292784690857,0.4268292784690857,-1.0499999523162842,-20.549999237060547,4.050000190734863,39.88159942626953,0,
 346021,-0.108154296875,-0.94921875,-0.2333984375,-0.4268292784690857,0.3658536672592163,0.4573170840740204,-1.5,-21.299999237060547,4.800000190734863,40.07329177856445,0,
 346031,-0.108642578125,-0.94970703125,-0.234619140625,-0.792682945728302,0.4878048896789551,0.24390244483947754,-0.30000001192092896,-19.799999237060547,6.75,39.83367919921875,0,
 346041,-0.10595703125,-0.948486328125,-0.229736328125,-0.6707317233085632,0.3353658616542816,0.060975611209869385,0.0,-20.549999237060547,4.5,39.977447509765625,0,
 346051,-0.107666015625,-0.94873046875,-0.232421875,-0.4268292784690857,0.4878048896789551,0.5487805008888245,0.30000001192092896,-20.549999237060547,6.300000190734863,39.88159942626953,0,
 346061,-0.104736328125,-0.95458984375,-0.230712890625,-0.5182926654815674,0.27439025044441223,0.5487805008888245,-1.5,-19.350000381469727,5.25,40.07329177856445,0,
 346071,-0.10888671875,-0.947265625,-0.23486328125,-0.3353658616542816,0.15243902802467346,0.3658536672592163,-1.7999999523162842,-20.549999237060547,5.25,39.737831115722656,0,
 346081,-0.102783203125,-0.949951171875,-0.23388671875,-0.27439025044441223,0.3048780560493469,0.12195122241973877,0.0,-20.100000381469727,6.0,39.83367919921875,0,
 346101,-0.107177734375,-0.94580078125,-0.232421875,-0.4573170840740204,0.15243902802467346,0.15243902802467346,-0.75,-19.350000381469727,6.0,40.07329177856445,0,
 346111,-0.1103515625,-0.95458984375,-0.23046875,-0.5487805008888245,0.3353658616542816,0.3658536672592163,-0.75,-18.600000381469727,7.5,40.07329177856445,0,
 346121,-0.10595703125,-0.950439453125,-0.238525390625,-0.3048780560493469,0.3353658616542816,0.18292683362960815,-2.0999999046325684,-20.700000762939453,6.150000095367432,39.977447509765625,0,
 346131,-0.10498046875,-0.953369140625,-0.233642578125,0.030487805604934692,0.24390244483947754,0.18292683362960815,-0.30000001192092896,-19.799999237060547,6.0,39.88159942626953,0,
 346141,-0.107177734375,-0.947509765625,-0.234619140625,-0.5487805008888245,0.24390244483947754,0.15243902802467346,-0.30000001192092896,-19.799999237060547,6.0,39.737831115722656,0,
 346152,-0.10693359375,-0.947509765625,-0.23095703125,-0.5182926654815674,0.4878048896789551,0.24390244483947754,-0.44999998807907104,-20.25,5.699999809265137,39.977447509765625,0,
 346162,-0.1083984375,-0.95654296875,-0.226318359375,-0.27439025044441223,0.18292683362960815,0.15243902802467346,-1.0499999523162842,-19.350000381469727,6.300000190734863,40.16913604736328,0,
 346172,-0.10498046875,-0.950927734375,-0.228759765625,-0.4573170840740204,0.18292683362960815,0.3048780560493469,-1.5,-20.100000381469727,5.550000190734863,40.21706008911133,0,
 346182,-0.10595703125,-0.951904296875,-0.231689453125,-0.4573170840740204,0.24390244483947754,0.030487805604934692,-1.5,-20.100000381469727,5.550000190734863,39.977447509765625,0,
 346192,-0.1103515625,-0.950927734375,-0.228515625,-0.15243902802467346,0.21341463923454285,0.7012194991111755,-0.8999999761581421,-21.149999618530273,6.150000095367432,39.83367919921875,0,
 346202,-0.1044921875,-0.951416015625,-0.22900390625,-0.27439025044441223,0.0,0.12195122241973877,-1.649999976158142,-20.700000762939453,4.199999809265137,40.025367736816406,0,
 346212,-0.102294921875,-0.952392578125,-0.236328125,-0.4268292784690857,0.27439025044441223,0.3353658616542816,-0.15000000596046448,-19.5,4.949999809265137,39.737831115722656,0,
 346222,-0.102783203125,-0.949462890625,-0.232421875,-0.6097561120986938,0.060975611209869385,0.3353658616542816,0.0,-20.850000381469727,6.0,40.025367736816406,0,
 346232,-0.109375,-0.948974609375,-0.232666015625,-0.396341472864151,0.3658536672592163,0.030487805604934692,-1.2000000476837158,-21.899999618530273,5.699999809265137,39.88159942626953,0,
 346242,-0.10009765625,-0.952880859375,-0.23291015625,-0.7621951103210449,0.18292683362960815,0.3048780560493469,0.75,-20.549999237060547,7.050000190734863,39.689910888671875,0,
 346252,-0.107177734375,-0.94775390625,-0.23583984375,-0.5792682766914368,0.3658536672592163,0.15243902802467346,-0.44999998807907104,-20.25,5.699999809265137,39.88159942626953,0,
 346262,-0.10986328125,-0.94921875,-0.23193359375,-0.5487805008888245,0.3658536672592163,0.18292683362960815,-1.649999976158142,-18.75,6.449999809265137,39.83367919921875,0,
 346272,-0.111328125,-0.94970703125,-0.232666015625,-0.6097561120986938,0.18292683362960815,0.24390244483947754,-1.649999976158142,-18.75,6.449999809265137,39.83367919921875,0,
 346282,-0.10595703125,-0.95361328125,-0.23388671875,-0.396341472864151,0.3658536672592163,0.060975611209869385,-0.8999999761581421,-19.950000762939453,5.699999809265137,39.977447509765625,0,
 346292,-0.10888671875,-0.948974609375,-0.231201171875,-0.3048780560493469,0.3353658616542816,0.18292683362960815,-1.2000000476837158,-21.149999618530273,6.150000095367432,39.689910888671875,0,
 346302,-0.106201171875,-0.954833984375,-0.230712890625,-0.6707317233085632,0.396341472864151,0.4268292784690857,-1.0499999523162842,-20.549999237060547,5.25,39.737831115722656,0,
 346312,-0.104248046875,-0.95361328125,-0.235595703125,-0.3048780560493469,0.0,0.15243902802467346,-1.0499999523162842,-20.549999237060547,5.25,40.025367736816406,0,
 346322,-0.11083984375,-0.953369140625,-0.231201171875,-0.3353658616542816,0.24390244483947754,0.3353658616542816,-1.0499999523162842,-20.850000381469727,4.800000190734863,40.07329177856445,0,
 346332,-0.109130859375,-0.95068359375,-0.2314453125,-0.5182926654815674,0.4268292784690857,0.3658536672592163,0.0,-20.549999237060547,6.0,39.977447509765625,0,
 346342,-0.103271484375,-0.955810546875,-0.234130859375,-0.27439025044441223,0.3048780560493469,0.24390244483947754,-1.649999976158142,-21.450000762939453,6.900000095367432,39.83367919921875,0,
 346352,-0.1025390625,-0.95751953125,-0.22998046875,-0.6097561120986938,0.3048780560493469,0.21341463923454285,-1.649999976158142,-21.450000762939453,6.900000095367432,39.977447509765625,0,
 346362,-0.105224609375,-0.95263671875,-0.228271484375,-0.7012194991111755,0.5487805008888245,0.15243902802467346,0.0,-19.350000381469727,5.25,39.977447509765625,0,
 346372,-0.10546875,-0.950439453125,-0.23388671875,-0.3048780560493469,0.3048780560493469,0.396341472864151,-2.25,-22.5,6.75,39.88159942626953,0,
 346382,-0.105224609375,-0.9560546875,-0.236328125,-0.4573170840740204,0.3048780560493469,0.18292683362960815,-1.5,-21.299999237060547,7.050000190734863,40.025367736816406,0,
 346392,-0.105712890625,-0.950927734375,-0.23095703125,-0.6402438879013062,0.4878048896789551,-0.030487805604934692,0.0,-20.100000381469727,7.050000190734863,39.689910888671875,0,
 346402,-0.10546875,-0.9560546875,-0.23046875,-0.4268292784690857,0.27439025044441223,0.12195122241973877,0.0,-20.100000381469727,7.050000190734863,39.689910888671875,0,
 346412,-0.10693359375,-0.947265625,-0.231689453125,-0.5792682766914368,0.4268292784690857,-0.09146341681480408,-0.30000001192092896,-19.799999237060547,3.0,39.88159942626953,0,
 346422,-0.105712890625,-0.946533203125,-0.23388671875,-0.9451219439506531,0.3658536672592163,0.21341463923454285,-0.8999999761581421,-19.950000762939453,5.699999809265137,39.88159942626953,0,
 346432,-0.106201171875,-0.94873046875,-0.232666015625,-0.792682945728302,0.4878048896789551,0.0,-1.2000000476837158,-20.700000762939453,5.699999809265137,40.07329177856445,0,
 346442,-0.103515625,-0.953857421875,-0.230712890625,-0.5487805008888245,0.4878048896789551,0.030487805604934692,-1.2000000476837158,-20.700000762939453,5.699999809265137,39.64198684692383,0,
 346452,-0.106201171875,-0.9482421875,-0.233642578125,-0.6402438879013062,0.4268292784690857,0.060975611209869385,-1.2000000476837158,-21.450000762939453,6.150000095367432,39.88159942626953,0,
 346462,-0.10302734375,-0.94970703125,-0.235107421875,-0.9146341681480408,0.3048780560493469,0.12195122241973877,-0.75,-21.299999237060547,4.800000190734863,40.07329177856445,0,
 346472,-0.107177734375,-0.94921875,-0.233642578125,-0.5182926654815674,0.21341463923454285,0.3658536672592163,-0.8999999761581421,-19.200000762939453,5.699999809265137,40.025367736816406,0,
 346482,-0.10791015625,-0.94921875,-0.2275390625,-0.7317073345184326,0.060975611209869385,0.09146341681480408,-0.8999999761581421,-19.200000762939453,5.699999809265137,39.977447509765625,0,
 346492,-0.110595703125,-0.957275390625,-0.236328125,-0.5792682766914368,0.3048780560493469,-0.24390244483947754,-0.30000001192092896,-20.549999237060547,5.550000190734863,39.737831115722656,0,
 346502,-0.1064453125,-0.951416015625,-0.23193359375,-0.9146341681480408,0.4268292784690857,0.21341463923454285,-0.30000001192092896,-19.350000381469727,5.550000190734863,39.977447509765625,0,
 346512,-0.103759765625,-0.951416015625,-0.232666015625,-0.8231707215309143,0.24390244483947754,-0.24390244483947754,0.0,-18.600000381469727,5.25,39.977447509765625,0,
 346522,-0.101806640625,-0.94482421875,-0.225341796875,-1.0670732259750366,0.4268292784690857,-0.15243902802467346,0.0,-18.600000381469727,5.25,40.07329177856445,0,
 346532,-0.104736328125,-0.945068359375,-0.227294921875,-0.7317073345184326,0.3353658616542816,-0.09146341681480408,-0.8999999761581421,-19.5,5.699999809265137,39.977447509765625,0,
 346542,-0.103759765625,-0.950439453125,-0.234375,-1.1280487775802612,0.12195122241973877,-0.030487805604934692,-1.5,-21.299999237060547,8.25,39.88159942626953,0,
 346552,-0.10693359375,-0.950927734375,-0.2353515625,-1.25,0.24390244483947754,-0.396341472864151,-1.0499999523162842,-20.850000381469727,6.300000190734863,39.88159942626953,0,
 346562,-0.101806640625,-0.94970703125,-0.22802734375,-1.6463414430618286,0.4573170840740204,-0.21341463923454285,-2.0999999046325684,-21.149999618530273,6.900000095367432,39.88159942626953,0,
 346572,-0.103271484375,-0.951904296875,-0.229736328125,-2.22560977935791,0.7317073345184326,-0.3353658616542816,-2.0999999046325684,-21.149999618530273,6.900000095367432,40.07329177856445,0,
 346582,-0.110595703125,-0.943603515625,-0.233642578125,-2.7134146690368652,0.6707317233085632,-0.396341472864151,0.75,-21.299999237060547,5.550000190734863,39.88159942626953,0,
 346592,-0.105712890625,-0.950439453125,-0.231689453125,-2.4390244483947754,0.792682945728302,-0.12195122241973877,-1.5,-20.100000381469727,5.550000190734863,39.737831115722656,0,
 346602,-0.100341796875,-0.944091796875,-0.234375,-2.0731706619262695,1.0060975551605225,-0.5487805008888245,0.44999998807907104,-21.149999618530273,5.400000095367432,39.977447509765625,0,
 346612,-0.106689453125,-0.941162109375,-0.239013671875,-1.3719512224197388,0.7317073345184326,-0.8536585569381714,0.44999998807907104,-21.149999618530273,5.400000095367432,39.977447509765625,0,
 346622,-0.1025390625,-0.940185546875,-0.237060546875,-0.9756097793579102,0.6402438879013062,-1.4634146690368652,0.30000001192092896,-20.100000381469727,5.550000190734863,39.88159942626953,0,
 346632,-0.1015625,-0.946533203125,-0.2353515625,-1.0670732259750366,0.6402438879013062,-1.402438998222351,-1.2000000476837158,-19.950000762939453,6.449999809265137,40.025367736816406,0,
 346642,-0.100341796875,-0.94384765625,-0.228515625,-1.1585365533828735,0.8536585569381714,-1.585365891456604,-2.25,-21.299999237060547,7.050000190734863,40.16913604736328,0,
 346652,-0.105224609375,-0.9462890625,-0.233154296875,-1.1280487775802612,0.5487805008888245,-1.8292683362960815,-2.25,-21.299999237060547,7.050000190734863,39.83367919921875,0,
 346662,-0.108154296875,-0.954345703125,-0.232177734375,-0.7317073345184326,0.6402438879013062,-2.1646342277526855,-1.5,-20.549999237060547,6.0,39.977447509765625,0,
 346672,-0.09912109375,-0.944091796875,-0.230712890625,-0.7317073345184326,0.6097561120986938,-2.2560975551605225,-1.0499999523162842,-19.350000381469727,6.0,39.88159942626953,0,
 346682,-0.102783203125,-0.938720703125,-0.239990234375,-0.060975611209869385,0.5487805008888245,-2.591463565826416,-0.44999998807907104,-19.5,7.650000095367432,39.64198684692383,0,
 346692,-0.10302734375,-0.963623046875,-0.232177734375,-0.9451219439506531,0.8536585569381714,-2.804877996444702,-0.44999998807907104,-19.5,7.650000095367432,40.07329177856445,0,
 346702,-0.1025390625,-0.95751953125,-0.225830078125,-1.432926893234253,0.9756097793579102,-2.2865853309631348,-0.30000001192092896,-21.75,6.300000190734863,39.977447509765625,0,
 346712,-0.0986328125,-0.95751953125,-0.231689453125,-3.1097562313079834,1.4939024448394775,-2.3475611209869385,-1.7999999523162842,-19.799999237060547,6.75,39.83367919921875,0,
 346722,-0.10302734375,-0.961669921875,-0.225830078125,-3.5975611209869385,1.3719512224197388,-1.7682926654815674,-1.0499999523162842,-20.850000381469727,3.0,39.737831115722656,0,
 346732,-0.099609375,-0.96142578125,-0.234130859375,-4.29878044128418,1.2804877758026123,-1.6158536672592163,-1.0499999523162842,-20.100000381469727,6.75,39.88159942626953,0,
 346742,-0.095947265625,-0.95361328125,-0.235595703125,-4.878048896789551,1.25,-1.1890244483947754,-1.0499999523162842,-20.100000381469727,6.75,39.737831115722656,0,
 346752,-0.092041015625,-0.955078125,-0.242919921875,-4.481707572937012,1.0365853309631348,-0.8841463327407837,-0.75,-21.299999237060547,6.75,39.977447509765625,0,
 346762,-0.091064453125,-0.95068359375,-0.236328125,-4.542683124542236,0.6402438879013062,-0.5487805008888245,-0.44999998807907104,-21.899999618530273,6.150000095367432,40.025367736816406,0,
 346772,-0.0966796875,-0.9482421875,-0.239013671875,-4.207317352294922,0.24390244483947754,0.18292683362960815,-0.30000001192092896,-19.350000381469727,6.75,40.025367736816406,0,
 346782,-0.093017578125,-0.961669921875,-0.236328125,-3.8719513416290283,0.3658536672592163,0.15243902802467346,-0.30000001192092896,-19.350000381469727,6.75,39.689910888671875,0,
 346792,-0.10107421875,-0.95361328125,-0.23779296875,-4.146341323852539,0.4573170840740204,0.6402438879013062,-1.5,-20.100000381469727,5.550000190734863,39.88159942626953,0,
 346802,-0.09912109375,-0.955322265625,-0.239501953125,-4.969512462615967,0.6402438879013062,0.4878048896789551,-0.15000000596046448,-21.450000762939453,6.449999809265137,39.83367919921875,0,
 346812,-0.105224609375,-0.954833984375,-0.23779296875,-5.152439117431641,0.7621951103210449,0.4878048896789551,-1.7999999523162842,-20.100000381469727,6.300000190734863,39.88159942626953,0,
 346822,-0.091796875,-0.95263671875,-0.240234375,-5.609755992889404,0.8841463327407837,0.5182926654815674,-1.7999999523162842,-20.100000381469727,6.300000190734863,40.025367736816406,0,
 346832,-0.099609375,-0.949462890625,-0.240478515625,-6.128048896789551,1.1280487775802612,-0.4268292784690857,0.0,-21.299999237060547,7.050000190734863,39.737831115722656,0,
 346842,-0.1064453125,-0.943603515625,-0.247314453125,-6.310975551605225,1.5548781156539917,-0.396341472864151,0.44999998807907104,-21.149999618530273,5.699999809265137,39.88159942626953,0,
 346852,-0.104736328125,-0.947509765625,-0.242919921875,-6.189024448394775,1.7987805604934692,-1.0365853309631348,-0.75,-21.75,6.300000190734863,39.737831115722656,0,
 346862,-0.094970703125,-0.94970703125,-0.24853515625,-6.128048896789551,1.7987805604934692,-1.5548781156539917,-0.75,-21.75,6.300000190734863,39.977447509765625,0,
 346872,-0.09423828125,-0.939453125,-0.252685546875,-6.219512462615967,1.6158536672592163,-1.8597561120986938,-1.5,-21.75,6.300000190734863,39.977447509765625,0,
 346882,-0.094970703125,-0.942626953125,-0.25146484375,-5.670732021331787,1.7682926654815674,-1.4939024448394775,1.2000000476837158,-21.149999618530273,6.900000095367432,39.977447509765625,0,
 346892,-0.094482421875,-0.942138671875,-0.254638671875,-5.3353657722473145,1.3414634466171265,-1.9512195587158203,-0.15000000596046448,-22.649999618530273,3.9000000953674316,39.977447509765625,0,
 346903,-0.097900390625,-0.942626953125,-0.25537109375,-4.45121955871582,1.3414634466171265,-1.6158536672592163,-3.5999999046325684,-21.149999618530273,5.400000095367432,39.977447509765625,0,
 346913,-0.0908203125,-0.939697265625,-0.25390625,-3.628048896789551,1.0365853309631348,-1.6158536672592163,-3.5999999046325684,-21.149999618530273,5.400000095367432,39.83367919921875,0,
 346923,-0.090576171875,-0.939208984375,-0.256103515625,-2.7134146690368652,0.9451219439506531,-1.6768293380737305,0.44999998807907104,-19.950000762939453,4.949999809265137,39.88159942626953,0,
 346933,-0.095703125,-0.943115234375,-0.2529296875,-2.5,0.7012194991111755,-1.585365891456604,-1.2000000476837158,-22.350000381469727,7.199999809265137,39.88159942626953,0,
 346943,-0.09814453125,-0.941650390625,-0.25244140625,-2.1646342277526855,0.9146341681480408,-1.8292683362960815,-2.4000000953674316,-20.25,5.699999809265137,39.83367919921875,0,
 346953,-0.095458984375,-0.9443359375,-0.255126953125,-2.012195110321045,0.7621951103210449,-1.737804889678955,-2.4000000953674316,-20.25,5.699999809265137,39.737831115722656,0,
 346963,-0.093994140625,-0.94189453125,-0.253173828125,-1.3109756708145142,0.6402438879013062,-2.0731706619262695,-0.75,-18.899999618530273,5.550000190734863,39.977447509765625,0,
 346973,-0.0908203125,-0.946044921875,-0.250244140625,-1.0365853309631348,0.4268292784690857,-2.4390244483947754,-3.5999999046325684,-21.899999618530273,6.900000095367432,39.977447509765625,0,
 346983,-0.09130859375,-0.942138671875,-0.255126953125,-0.8231707215309143,0.3658536672592163,-2.103658676147461,-2.4000000953674316,-20.700000762939453,6.150000095367432,40.025367736816406,0,
 346993,-0.0986328125,-0.938720703125,-0.25,0.4268292784690857,0.27439025044441223,-2.1341464519500732,-2.4000000953674316,-20.700000762939453,6.150000095367432,39.88159942626953,0,
 347003,-0.09033203125,-0.950439453125,-0.25244140625,0.8536585569381714,-0.060975611209869385,-2.0731706619262695,-2.549999952316284,-19.799999237060547,6.75,39.88159942626953,0,
 347013,-0.087890625,-0.954833984375,-0.2509765625,0.4268292784690857,0.09146341681480408,-2.6524391174316406,-1.0499999523162842,-20.549999237060547,7.5,40.07329177856445,0,
 347023,-0.091552734375,-0.9443359375,-0.256591796875,-0.15243902802467346,0.060975611209869385,-2.2560975551605225,-2.549999952316284,-20.100000381469727,4.050000190734863,39.689910888671875,0,
 347033,-0.08984375,-0.948486328125,-0.249755859375,0.12195122241973877,0.09146341681480408,-2.77439022064209,-2.549999952316284,-20.100000381469727,4.050000190734863,39.83367919921875,0,
 347043,-0.090087890625,-0.94970703125,-0.25146484375,-0.21341463923454285,-0.12195122241973877,-2.3475611209869385,-2.549999952316284,-20.549999237060547,7.800000190734863,39.977447509765625,0,
 347053,-0.08740234375,-0.946044921875,-0.245361328125,0.21341463923454285,-0.24390244483947754,-2.6524391174316406,-2.4000000953674316,-21.149999618530273,5.699999809265137,39.737831115722656,0,
 347063,-0.090576171875,-0.940673828125,-0.254150390625,0.8536585569381714,-0.7012194991111755,-2.8353660106658936,-2.8499999046325684,-21.149999618530273,7.650000095367432,39.83367919921875,0,
 347073,-0.08642578125,-0.942626953125,-0.248779296875,1.5243902206420898,-0.8536585569381714,-2.5609755516052246,-1.2000000476837158,-19.950000762939453,5.400000095367432,39.546142578125,0,
 347083,-0.08251953125,-0.94921875,-0.2490234375,1.1280487775802612,-1.0365853309631348,-2.378048896789551,-1.2000000476837158,-19.950000762939453,5.400000095367432,39.977447509765625,0,
 347093,-0.0869140625,-0.950439453125,-0.248779296875,0.8231707215309143,-0.9756097793579102,-2.2560975551605225,-0.8999999761581421,-18.75,6.900000095367432,39.83367919921875,0,
 347103,-0.090576171875,-0.956787109375,-0.24560546875,0.21341463923454285,-0.7621951103210449,-2.103658676147461,-1.2000000476837158,-22.350000381469727,7.650000095367432,39.88159942626953,0,
 347113,-0.08935546875,-0.95947265625,-0.245849609375,-0.9451219439506531,-0.09146341681480408,-2.1341464519500732,-1.649999976158142,-20.25,6.900000095367432,39.88159942626953,0,
 347123,-0.089599609375,-0.958740234375,-0.247802734375,-1.1280487775802612,0.21341463923454285,-1.920731782913208,-1.649999976158142,-20.25,6.900000095367432,39.737831115722656,0,
 347133,-0.082763671875,-0.952880859375,-0.2470703125,-1.432926893234253,0.060975611209869385,-1.1280487775802612,-1.0499999523162842,-20.549999237060547,7.050000190734863,39.977447509765625,0,
 347143,-0.083740234375,-0.947265625,-0.2529296875,-1.0670732259750366,-0.12195122241973877,-0.8231707215309143,-2.549999952316284,-20.850000381469727,6.75,40.025367736816406,0,
 347153,-0.07763671875,-0.947021484375,-0.248291015625,-0.6402438879013062,-0.3353658616542816,-0.3048780560493469,0.30000001192092896,-22.049999237060547,6.0,39.977447509765625,0,
 347163,-0.08349609375,-0.9482421875,-0.253662109375,-0.4573170840740204,-0.6097561120986938,0.18292683362960815,0.30000001192092896,-22.049999237060547,6.0,39.977447509765625,0,
 347173,-0.07958984375,-0.946533203125,-0.2509765625,0.5182926654815674,-1.0365853309631348,0.6097561120986938,-2.549999952316284,-22.049999237060547,6.75,39.64198684692383,0,
 347183,-0.08447265625,-0.94775390625,-0.250244140625,0.18292683362960815,-1.25,0.9756097793579102,-2.0999999046325684,-21.149999618530273,6.449999809265137,39.977447509765625,0,
 347193,-0.082275390625,-0.95166015625,-0.240478515625,0.4573170840740204,-1.1280487775802612,0.4878048896789551,-1.7999999523162842,-20.549999237060547,6.0,39.977447509765625,0,
 347203,-0.095703125,-0.9482421875,-0.242919921875,-0.12195122241973877,-1.585365891456604,-0.3048780560493469,-1.7999999523162842,-20.549999237060547,6.0,39.88159942626953,0,
 347213,-0.10205078125,-0.957763671875,-0.25048828125,-0.12195122241973877,-1.097561001777649,-1.1890244483947754,0.0,-21.299999237060547,5.550000190734863,39.83367919921875,0,
 347223,-0.08837890625,-0.96044921875,-0.23974609375,-1.1890244483947754,-0.3353658616542816,-1.5243902206420898,-2.4000000953674316,-22.350000381469727,4.949999809265137,39.88159942626953,0,
 347233,-0.08740234375,-0.961669921875,-0.236328125,-1.7682926654815674,0.24390244483947754,-1.25,-0.44999998807907104,-22.649999618530273,4.650000095367432,39.88159942626953,0,
 347243,-0.0908203125,-0.94775390625,-0.247314453125,-2.9268293380737305,0.4878048896789551,-0.7621951103210449,-3.5999999046325684,-21.149999618530273,4.199999809265137,39.977447509765625,0,
 347253,-0.07861328125,-0.93603515625,-0.261474609375,-3.0182926654815674,0.4878048896789551,-0.4573170840740204,-3.5999999046325684,-21.149999618530273,4.199999809265137,39.977447509765625,0,
 347263,-0.080078125,-0.93359375,-0.255615234375,-2.0731706619262695,0.27439025044441223,-0.6097561120986938,-1.5,-19.799999237060547,7.800000190734863,40.16913604736328,0,
 347273,-0.084228515625,-0.93359375,-0.265380859375,-0.4878048896789551,-0.060975611209869385,-0.030487805604934692,-1.7999999523162842,-21.75,6.75,39.689910888671875,0,
 347283,-0.078857421875,-0.93896484375,-0.25439453125,1.0365853309631348,-0.9146341681480408,-0.396341472864151,-1.2000000476837158,-21.149999618530273,7.949999809265137,39.88159942626953,0,
 347293,-0.08251953125,-0.942626953125,-0.2578125,2.195122003555298,-1.5243902206420898,-0.3353658616542816,-1.2000000476837158,-21.149999618530273,7.949999809265137,39.737831115722656,0,
 347303,-0.08349609375,-0.9501953125,-0.24658203125,2.7134146690368652,-1.7682926654815674,-0.5487805008888245,-1.649999976158142,-21.899999618530273,6.900000095367432,40.025367736816406,0,
 347313,-0.08203125,-0.9560546875,-0.248291015625,2.378048896789551,-2.103658676147461,-0.7621951103210449,-0.8999999761581421,-21.149999618530273,5.699999809265137,39.977447509765625,0,
 347323,-0.08544921875,-0.953369140625,-0.245361328125,1.7987805604934692,-1.920731782913208,-0.8231707215309143,-2.25,-20.549999237060547,6.0,39.689910888671875,0,
 347333,-0.083984375,-0.961181640625,-0.242431640625,0.9756097793579102,-1.5243902206420898,-0.5792682766914368,-2.25,-20.549999237060547,6.0,40.025367736816406,0,
 347343,-0.08642578125,-0.95068359375,-0.241943359375,0.6097561120986938,-1.5243902206420898,-0.8231707215309143,-2.549999952316284,-20.549999237060547,6.300000190734863,40.07329177856445,0,
 347353,-0.09033203125,-0.95361328125,-0.25,0.060975611209869385,-1.1890244483947754,-0.792682945728302,-1.0499999523162842,-21.299999237060547,7.050000190734863,39.977447509765625,0,
 347363,-0.086669921875,-0.94921875,-0.245849609375,-0.24390244483947754,-1.0060975551605225,-0.396341472864151,-2.25,-22.049999237060547,6.75,39.977447509765625,0,
 347373,-0.0830078125,-0.94921875,-0.24755859375,-0.15243902802467346,-0.7012194991111755,0.12195122241973877,-2.25,-22.049999237060547,6.75,39.737831115722656,0,
 347383,-0.089599609375,-0.947998046875,-0.248291015625,-0.4573170840740204,-0.6707317233085632,0.15243902802467346,-0.44999998807907104,-20.25,5.699999809265137,39.977447509765625,0,
 347393,-0.086669921875,-0.950439453125,-0.24658203125,-0.3658536672592163,-0.5182926654815674,0.8231707215309143,-1.649999976158142,-20.700000762939453,6.150000095367432,39.977447509765625,0,
 347403,-0.089599609375,-0.94970703125,-0.2421875,-0.09146341681480408,-0.09146341681480408,0.9451219439506531,0.75,-20.850000381469727,5.550000190734863,39.83367919921875,0,
 347413,-0.084716796875,-0.9521484375,-0.24853515625,-0.4878048896789551,0.030487805604934692,1.0670732259750366,0.0,-20.100000381469727,7.050000190734863,39.977447509765625,0,
 347423,-0.080810546875,-0.94921875,-0.253173828125,-0.5792682766914368,-0.030487805604934692,1.6158536672592163,0.0,-20.100000381469727,7.050000190734863,39.88159942626953,0,
 347433,-0.079833984375,-0.94091796875,-0.250244140625,-0.4573170840740204,-0.030487805604934692,1.6158536672592163,-3.9000000953674316,-19.200000762939453,5.699999809265137,40.07329177856445,0,
 347443,-0.084228515625,-0.944580078125,-0.24365234375,0.3353658616542816,-0.3353658616542816,2.5609755516052246,-2.0999999046325684,-21.450000762939453,6.150000095367432,39.737831115722656,0,
 347453,-0.08349609375,-0.949951171875,-0.246337890625,0.3048780560493469,-0.15243902802467346,3.2926828861236572,-0.8999999761581421,-21.149999618530273,6.449999809265137,39.977447509765625,0,
 347463,-0.088623046875,-0.958984375,-0.245361328125,0.27439025044441223,-0.396341472864151,3.9939024448394775,-0.8999999761581421,-21.149999618530273,6.449999809265137,39.977447509765625,0,
 347473,-0.083984375,-0.957275390625,-0.24267578125,-0.27439025044441223,-0.3048780560493469,4.5731706619262695,-0.44999998807907104,-22.350000381469727,6.900000095367432,39.88159942626953,0,
 347483,-0.086669921875,-0.958740234375,-0.245849609375,-0.21341463923454285,-0.5182926654815674,5.853658676147461,-1.5,-20.850000381469727,7.050000190734863,39.977447509765625,0,
 347493,-0.090087890625,-0.958984375,-0.243896484375,-0.3048780560493469,-0.5182926654815674,6.79878044128418,-1.5,-19.350000381469727,7.050000190734863,39.88159942626953,0,
 347503,-0.0869140625,-0.95751953125,-0.242919921875,-0.21341463923454285,-0.6097561120986938,7.439024448394775,-1.5,-19.350000381469727,7.050000190734863,39.737831115722656,0,
 347513,-0.08642578125,-0.95166015625,-0.24755859375,-0.24390244483947754,-0.9756097793579102,8.414634704589844,-0.8999999761581421,-19.950000762939453,5.400000095367432,39.83367919921875,0,
 347523,-0.085693359375,-0.955322265625,-0.246337890625,-0.396341472864151,-0.792682945728302,9.207317352294922,-2.25,-20.850000381469727,5.550000190734863,39.83367919921875,0,
 347533,-0.089599609375,-0.95654296875,-0.241943359375,0.15243902802467346,-1.0365853309631348,9.512195587158203,-1.649999976158142,-19.950000762939453,8.699999809265137,39.88159942626953,0,
 347543,-0.093994140625,-0.957763671875,-0.243408203125,-0.5792682766914368,-0.9756097793579102,10.27439022064209,-1.0499999523162842,-22.049999237060547,4.5,40.07329177856445,0,
 347553,-0.096435546875,-0.939453125,-0.253662109375,-0.12195122241973877,-1.1280487775802612,10.182927131652832,-1.649999976158142,-21.450000762939453,7.199999809265137,40.025367736816406,0,
 347563,-0.0966796875,-0.94482421875,-0.253173828125,0.5487805008888245,-1.3109756708145142,10.640244483947754,-2.0999999046325684,-20.700000762939453,7.199999809265137,39.64198684692383,0,
 347573,-0.10009765625,-0.935546875,-0.254150390625,1.6158536672592163,-1.6463414430618286,10.518293380737305,-1.7999999523162842,-21.75,5.25,39.88159942626953,0,
 347584,-0.09716796875,-0.940185546875,-0.248291015625,2.378048896789551,-1.8292683362960815,10.182927131652832,-0.15000000596046448,-19.950000762939453,5.699999809265137,40.025367736816406,0,
 347594,-0.103271484375,-0.9384765625,-0.24658203125,3.353658676147461,-2.0426828861236572,9.603658676147461,-0.15000000596046448,-19.950000762939453,5.699999809265137,39.689910888671875,0,
 347604,-0.10791015625,-0.942138671875,-0.244384765625,3.5060975551605225,-2.2560975551605225,9.17682933807373,-1.649999976158142,-21.149999618530273,6.900000095367432,40.025367736816406,0,
 347614,-0.11083984375,-0.946044921875,-0.240478515625,4.512195110321045,-2.5304877758026123,9.359756469726562,-1.649999976158142,-20.25,4.949999809265137,39.737831115722656,0,
 347624,-0.109619140625,-0.9443359375,-0.2421875,4.512195110321045,-2.7134146690368652,9.17682933807373,-2.8499999046325684,-22.350000381469727,4.650000095367432,39.88159942626953,0,
 347634,-0.109375,-0.93994140625,-0.248779296875,4.756097793579102,-2.865853786468506,8.719511985778809,-2.8499999046325684,-22.350000381469727,4.650000095367432,39.88159942626953,0,
 347644,-0.108154296875,-0.9375,-0.2470703125,5.579268455505371,-3.262195110321045,8.90243911743164,-2.4000000953674316,-19.5,5.699999809265137,39.64198684692383,0,
 347654,-0.113525390625,-0.94140625,-0.23974609375,6.493902683258057,-3.3231709003448486,8.90243911743164,-2.0999999046325684,-20.700000762939453,6.900000095367432,39.88159942626953,0,
 347664,-0.11181640625,-0.94140625,-0.239013671875,7.743902683258057,-3.5365853309631348,8.87195110321045,-0.8999999761581421,-21.450000762939453,6.449999809265137,39.64198684692383,0,
 347674,-0.120361328125,-0.947998046875,-0.2353515625,7.621951580047607,-3.47560977935791,8.90243911743164,-0.8999999761581421,-21.450000762939453,6.449999809265137,40.16913604736328,0,
 347684,-0.1201171875,-0.9521484375,-0.22900390625,7.77439022064209,-3.658536672592163,8.689024925231934,-0.30000001192092896,-19.799999237060547,5.550000190734863,39.737831115722656,0,
 347704,-0.127685546875,-0.953125,-0.229248046875,6.707317352294922,-3.75,8.810976028442383,0.0,-22.049999237060547,6.0,39.977447509765625,0,
 347714,-0.129150390625,-0.95703125,-0.228759765625,6.280488014221191,-3.7195122241973877,8.719511985778809,-1.2000000476837158,-21.450000762939453,6.150000095367432,39.689910888671875,0,
 347724,-0.134521484375,-0.949951171875,-0.223876953125,5.884146690368652,-3.5060975551605225,8.506097793579102,-0.75,-20.100000381469727,5.550000190734863,40.025367736816406,0,
 347734,-0.130859375,-0.9541015625,-0.221435546875,5.27439022064209,-3.6890244483947754,8.59756088256836,-0.44999998807907104,-20.25,6.900000095367432,39.689910888671875,0,
 347744,-0.127685546875,-0.956298828125,-0.225341796875,4.542683124542236,-3.5975611209869385,7.9268293380737305,1.2000000476837158,-19.5,1.9500000476837158,39.88159942626953,0,
 347754,-0.137451171875,-0.954833984375,-0.224365234375,3.47560977935791,-3.0182926654815674,7.804878234863281,-1.0499999523162842,-21.75,7.800000190734863,40.025367736816406,0,
 347764,-0.137939453125,-0.94873046875,-0.223876953125,3.353658676147461,-2.22560977935791,7.560975551605225,-1.0499999523162842,-21.75,7.800000190734863,39.689910888671875,0,
 347774,-0.13427734375,-0.95556640625,-0.224609375,2.7134146690368652,-2.0731706619262695,7.286585330963135,-0.75,-20.549999237060547,6.0,39.977447509765625,0,
 347784,-0.136474609375,-0.9501953125,-0.2197265625,2.77439022064209,-1.737804889678955,6.707317352294922,-0.44999998807907104,-19.950000762939453,6.150000095367432,39.977447509765625,0,
 347794,-0.138671875,-0.949462890625,-0.221435546875,1.920731782913208,-1.737804889678955,6.493902683258057,-1.0499999523162842,-20.549999237060547,6.300000190734863,39.88159942626953,0,
 347804,-0.14111328125,-0.9482421875,-0.218017578125,1.097561001777649,-1.402438998222351,5.9146342277526855,-1.0499999523162842,-20.549999237060547,6.300000190734863,39.88159942626953,0,
 347814,-0.142333984375,-0.939453125,-0.22412109375,0.6707317233085632,-1.3109756708145142,5.27439022064209,0.0,-21.299999237060547,5.550000190734863,39.64198684692383,0,
 347824,-0.1416015625,-0.942138671875,-0.223388671875,0.5792682766914368,-0.9756097793579102,4.2682929039001465,1.0499999523162842,-21.75,7.050000190734863,40.025367736816406,0,
 347834,-0.14794921875,-0.937744140625,-0.220703125,0.6707317233085632,-1.0365853309631348,3.567073345184326,0.0,-18.899999618530273,7.5,40.025367736816406,0,
 347854,-0.147216796875,-0.9443359375,-0.214111328125,0.4878048896789551,0.0,1.3414634466171265,-0.8999999761581421,-21.899999618530273,5.699999809265137,39.88159942626953,0,
 347864,-0.1474609375,-0.949951171875,-0.216552734375,-0.060975611209869385,0.18292683362960815,0.4878048896789551,-1.2000000476837158,-19.5,5.699999809265137,39.737831115722656,0,
 347874,-0.144775390625,-0.94580078125,-0.21484375,-0.060975611209869385,0.6402438879013062,-0.4878048896789551,-0.8999999761581421,-20.25,5.699999809265137,39.83367919921875,0,
 347884,-0.152099609375,-0.951416015625,-0.219970703125,-0.4268292784690857,1.1585365533828735,-1.3719512224197388,-0.8999999761581421,-20.25,5.699999809265137,39.88159942626953,0,
 347894,-0.146484375,-0.9453125,-0.222412109375,-1.5548781156539917,1.585365891456604,-2.4390244483947754,-0.44999998807907104,-18.75,6.150000095367432,39.977447509765625,0,
 347904,-0.144775390625,-0.940185546875,-0.221923828125,-2.4695122241973877,2.103658676147461,-4.695122241973877,0.30000001192092896,-21.299999237060547,5.550000190734863,39.88159942626953,0,
 347914,-0.1396484375,-0.939453125,-0.220703125,-2.682926893234253,2.7439024448394775,-5.884146690368652,0.44999998807907104,-20.25,6.449999809265137,39.689910888671875,0,
 347924,-0.136962890625,-0.939697265625,-0.220947265625,-2.4695122241973877,3.0182926654815674,-6.707317352294922,-0.15000000596046448,-20.700000762939453,4.650000095367432,39.977447509765625,0,
 347934,-0.138916015625,-0.936279296875,-0.2265625,-2.103658676147461,2.865853786468506,-7.987804889678955,-0.15000000596046448,-20.700000762939453,4.650000095367432,39.88159942626953,0,
 347954,-0.133544921875,-0.9462890625,-0.224853515625,-2.1341464519500732,3.079268455505371,-9.634146690368652,-2.0999999046325684,-21.450000762939453,5.400000095367432,39.689910888671875,0,
 347964,-0.12451171875,-0.9453125,-0.229248046875,-2.0731706619262695,2.9573171138763428,-9.908536911010742,-0.44999998807907104,-21.899999618530273,5.400000095367432,40.025367736816406,0,
 347974,-0.126220703125,-0.959716796875,-0.227294921875,-2.682926893234253,2.804877996444702,-9.695121765136719,-0.44999998807907104,-21.899999618530273,5.400000095367432,39.88159942626953,0,
 347984,-0.127685546875,-0.959716796875,-0.223388671875,-3.47560977935791,2.804877996444702,-9.115854263305664,-0.75,-19.350000381469727,7.050000190734863,40.07329177856445,0,
 347994,-0.117431640625,-0.9697265625,-0.22509765625,-4.847560882568359,2.1646342277526855,-7.987804889678955,-0.30000001192092896,-19.799999237060547,5.550000190734863,40.025367736816406,0,
 348004,-0.11669921875,-0.97802734375,-0.224853515625,-6.310975551605225,2.0426828861236572,-6.128048896789551,-1.2000000476837158,-22.350000381469727,6.150000095367432,39.64198684692383,0,
 348014,-0.113525390625,-0.9912109375,-0.2294921875,-7.469512462615967,1.1585365533828735,-2.77439022064209,-1.2000000476837158,-22.350000381469727,6.150000095367432,40.07329177856445,0,
 348024,-0.0986328125,-1.01806640625,-0.210205078125,-12.103658676147461,1.0365853309631348,1.920731782913208,-1.649999976158142,-20.700000762939453,6.449999809265137,40.025367736816406,0,
 348034,-0.10205078125,-1.031005859375,-0.21044921875,-17.713415145874023,0.8841463327407837,8.018292427062988,-1.2000000476837158,-19.200000762939453,6.449999809265137,39.83367919921875,0,
 348044,-0.096923828125,-1.012939453125,-0.230224609375,-21.280488967895508,0.396341472864151,17.7439022064209,0.15000000596046448,-20.25,4.949999809265137,40.3608283996582,0,
 348054,-0.10205078125,-1.037353515625,-0.255615234375,-23.68902587890625,0.18292683362960815,29.23780632019043,0.8999999761581421,-22.350000381469727,4.949999809265137,39.689910888671875,0,
 348064,-0.057373046875,-1.2373046875,-0.192626953125,-32.713417053222656,-2.012195110321045,43.75,-0.8999999761581421,-19.950000762939453,7.650000095367432,39.977447509765625,0,
 348074,-0.066650390625,-1.311279296875,-0.214111328125,-49.72561264038086,-7.5,63.93292999267578,-1.649999976158142,-21.899999618530273,6.150000095367432,39.977447509765625,0,
 348084,-0.095947265625,-1.29931640625,-0.114013671875,-62.92683029174805,-13.353658676147461,91.21951293945312,-0.8999999761581421,-21.450000762939453,7.199999809265137,39.88159942626953,0,
 348094,-0.085205078125,-1.26953125,-0.478759765625,-73.9024429321289,-14.786585807800293,115.1524429321289,0.30000001192092896,-21.299999237060547,5.550000190734863,39.88159942626953,0,
 348104,-0.179931640625,-1.1240234375,-0.3916015625,-61.524391174316406,-23.018293380737305,136.76829528808594,0.30000001192092896,-21.299999237060547,5.550000190734863,39.977447509765625,0,
 348114,-0.222900390625,-1.19677734375,-0.416748046875,-53.75,-22.80487823486328,152.01219177246094,0.30000001192092896,-20.850000381469727,6.300000190734863,39.88159942626953,0,
 348124,-0.379638671875,-1.23779296875,-0.4052734375,-44.84756088256836,-24.176830291748047,160.97561645507812,0.15000000596046448,-21.450000762939453,7.199999809265137,39.737831115722656,0,
 348134,-0.400390625,-1.1357421875,-0.408203125,-40.57926940917969,-22.530488967895508,162.43902587890625,0.0,-22.049999237060547,7.5,39.977447509765625,0,
 348144,-0.419921875,-1.083740234375,-0.387939453125,-30.15243911743164,-20.94512176513672,163.26219177246094,0.0,-22.049999237060547,7.5,40.025367736816406,0,
 348154,-0.403564453125,-0.984130859375,-0.33740234375,-17.19512176513672,-19.84756088256836,159.8780517578125,0.8999999761581421,-23.549999237060547,4.949999809265137,39.546142578125,0,
 348164,-0.4326171875,-0.821533203125,-0.21435546875,-2.987804889678955,-18.44512176513672,159.48170471191406,3.0,-21.75,7.5,40.16913604736328,0,
 348174,-0.46435546875,-0.7880859375,-0.26220703125,16.25,-17.408536911010742,161.25,2.8499999046325684,-22.350000381469727,7.199999809265137,40.025367736816406,0,
 348184,-0.51513671875,-0.864501953125,-0.247802734375,35.64024353027344,-15.365854263305664,163.47561645507812,2.8499999046325684,-22.350000381469727,7.199999809265137,39.737831115722656,0,
 348194,-0.611328125,-0.915771484375,-0.276611328125,41.76829528808594,-11.006097793579102,161.9512176513672,2.4000000953674316,-19.5,7.199999809265137,40.07329177856445,0,
 348214,-0.678466796875,-0.8623046875,-0.3662109375,33.658538818359375,0.6402438879013062,148.1707305908203,3.9000000953674316,-21.149999618530273,7.199999809265137,40.025367736816406,0,
 348224,-0.682861328125,-0.89794921875,-0.429931640625,35.94512176513672,2.682926893234253,129.81707763671875,3.9000000953674316,-21.899999618530273,5.699999809265137,39.88159942626953,0,
 348234,-0.650390625,-1.103271484375,-0.47412109375,44.54268264770508,4.908536911010742,93.32317352294922,3.5999999046325684,-20.25,6.449999809265137,40.07329177856445,0,
 348244,-0.59423828125,-1.1982421875,-0.4619140625,39.57317352294922,3.75,36.70731735229492,3.5999999046325684,-21.149999618530273,7.650000095367432,39.977447509765625,0,
 348264,-0.564697265625,-0.891357421875,-0.400390625,10.731707572937012,-4.5731706619262695,-65.24390411376953,3.5999999046325684,-19.5,4.650000095367432,40.025367736816406,0,
 348274,-0.496337890625,-1.053955078125,-0.440673828125,22.865854263305664,-2.865853786468506,-119.51219940185547,3.5999999046325684,-19.5,4.650000095367432,39.737831115722656,0,
 348284,-0.71484375,-1.1640625,-0.416259765625,48.810977935791016,-4.146341323852539,-196.64634704589844,3.299999952316284,-18.600000381469727,5.25,40.07329177856445,0,
 348294,-0.637939453125,-0.969482421875,-0.35205078125,52.103660583496094,5.670732021331787,-263.7195129394531,2.0999999046325684,-20.25,5.400000095367432,40.025367736816406,0,
 348304,-0.525634765625,-0.588623046875,-0.289794921875,41.98170852661133,17.042682647705078,-295.0304870605469,1.5,-19.799999237060547,7.5,39.737831115722656,0,
 348314,-0.488525390625,-0.08740234375,-0.138671875,23.323171615600586,20.914634704589844,-286.9817199707031,1.5,-19.799999237060547,7.5,39.977447509765625,0,
 348324,-0.417236328125,0.413330078125,-0.09375,13.689024925231934,18.414634704589844,-248.41464233398438,1.2000000476837158,-19.200000762939453,6.150000095367432,39.83367919921875,0,
 348334,-0.382568359375,0.6708984375,-0.01708984375,12.469512939453125,13.262195587158203,-187.10366821289062,0.30000001192092896,-18.600000381469727,5.25,39.977447509765625,0,
 348344,-0.339599609375,0.658935546875,0.03759765625,15.518293380737305,3.262195110321045,-119.23780822753906,-1.0499999523162842,-19.799999237060547,4.800000190734863,40.07329177856445,0,
 348354,-0.1513671875,0.526611328125,0.074951171875,9.207317352294922,-3.2012195587158203,-62.98780822753906,-1.0499999523162842,-19.799999237060547,4.800000190734863,39.689910888671875,0,
 348364,0.089111328125,0.489501953125,0.05859375,-32.95731735229492,-32.256099700927734,5.213414669036865,-3.0,-18.899999618530273,6.0,40.07329177856445,0,
 348375,0.30322265625,0.416259765625,-0.031982421875,-85.54878234863281,-44.05487823486328,45.182926177978516,-0.44999998807907104,-19.950000762939453,5.699999809265137,40.025367736816406,0,
 348385,0.494873046875,0.888916015625,0.09423828125,-129.6341552734375,-52.74390411376953,99.84756469726562,-0.15000000596046448,-19.950000762939453,4.949999809265137,40.025367736816406,0,
 348445,5.521484375,2.16796875,1.617919921875,195.3353729248047,9.664634704589844,306.2195129394531,3.0,-22.049999237060547,6.75,39.64198684692383,0,
 348455,-8.0,-7.999755859375,-3.830322265625,-66.85975646972656,194.0853729248047,-652.530517578125,4.949999809265137,-20.850000381469727,5.25,39.977447509765625,0,
 348465,1.9111328125,8.0,2.22119140625,317.83538818359375,-190.76220703125,-523.3231811523438,5.400000095367432,-23.100000381469727,6.449999809265137,39.88159942626953,0,
 348475,0.580322265625,0.406005859375,1.585205078125,273.07928466796875,30.18292808532715,-216.4634246826172,2.8499999046325684,-22.649999618530273,5.699999809265137,39.977447509765625,0,
 348485,0.496337890625,-4.795654296875,0.831298828125,39.664634704589844,77.16463470458984,73.68902587890625,2.8499999046325684,-22.649999618530273,5.699999809265137,40.025367736816406,0,
 348495,-1.671142578125,-4.946044921875,0.201416015625,-118.17073822021484,16.40243911743164,52.408538818359375,1.7999999523162842,-20.850000381469727,8.550000190734863,39.88159942626953,0,
 348505,-1.23828125,-3.920166015625,-0.7998046875,-179.3292694091797,43.68902587890625,226.4329376220703,2.25,-23.25,6.300000190734863,39.977447509765625,0,
 348515,0.470703125,-1.033203125,-1.054931640625,-100.18292999267578,-25.213415145874023,295.3353576660156,3.1500000953674316,-22.649999618530273,6.449999809265137,39.977447509765625,0,
 348525,-0.15966796875,-0.42041015625,-0.548095703125,-33.567073822021484,-65.24390411376953,306.4024353027344,3.1500000953674316,-22.649999618530273,6.449999809265137,39.977447509765625,0,
 348535,0.1328125,0.087890625,-0.41748046875,-14.634146690368652,-68.53659057617188,240.51829528808594,4.349999904632568,-21.149999618530273,6.449999809265137,39.88159942626953,0,
 348545,0.242919921875,0.06787109375,-0.302734375,25.975610733032227,-84.0243911743164,197.9268341064453,4.5,-22.950000762939453,6.75,39.689910888671875,0,
 348555,0.182861328125,-0.650634765625,-0.3740234375,64.35975646972656,-75.24390411376953,144.4207305908203,5.400000095367432,-23.100000381469727,5.400000095367432,40.025367736816406,0,
 348565,0.04443359375,-1.022705078125,-0.401611328125,70.12195587158203,-62.74390411376953,81.34146881103516,6.449999809265137,-22.5,4.800000190734863,40.025367736816406,0,
 348575,0.0126953125,-1.1171875,-0.4208984375,35.975608825683594,-46.03658676147461,18.841463088989258,5.400000095367432,-21.450000762939453,6.150000095367432,39.977447509765625,0,
 348585,-0.09814453125,-0.59912109375,-0.11376953125,-29.23780632019043,-25.18292808532715,-18.536584854125977,7.5,-22.049999237060547,6.0,40.16913604736328,0,
 348595,-0.53125,0.062255859375,0.194580078125,-67.1036605834961,-19.207317352294922,-41.98170852661133,8.100000381469727,-21.149999618530273,6.900000095367432,39.83367919921875,0,
 348605,-1.05859375,0.07275390625,0.212646484375,-41.310977935791016,-26.128049850463867,-63.84146499633789,7.949999809265137,-21.299999237060547,7.050000190734863,39.977447509765625,0,
 348615,-1.498291015625,-0.284423828125,0.063232421875,-26.310976028442383,-30.365854263305664,-83.3536605834961,7.949999809265137,-21.299999237060547,7.050000190734863,39.88159942626953,0,
 348625,-2.068115234375,-0.06494140625,0.210205078125,-30.54878044128418,-28.68902587890625,-91.9817123413086,6.449999809265137,-22.5,5.550000190734863,39.737831115722656,0,
 348635,-1.509765625,-0.27783203125,0.00341796875,-1.4634146690368652,-5.487804889678955,-109.23780822753906,6.449999809265137,-21.75,7.800000190734863,40.025367736816406,0,
 348645,-0.456787109375,-1.012451171875,-0.092529296875,30.914634704589844,50.60975646972656,-144.11585998535156,8.100000381469727,-21.450000762939453,5.699999809265137,39.689910888671875,0,
 348655,-0.29248046875,-1.52880859375,-0.13232421875,10.060976028442383,67.28659057617188,-128.32318115234375,8.100000381469727,-21.450000762939453,5.699999809265137,40.025367736816406,0,
 348665,-0.404296875,-1.6298828125,-0.239990234375,-23.018293380737305,67.98780822753906,-103.68902587890625,8.699999809265137,-19.350000381469727,4.5,39.88159942626953,0,
 348675,-0.4951171875,-1.05517578125,-0.35205078125,-58.29268264770508,62.95731735229492,-91.61585235595703,5.25,-22.950000762939453,6.0,39.977447509765625,0,
 348685,-0.208740234375,-0.533935546875,-0.47900390625,-57.9878044128418,64.45121765136719,-77.95732116699219,5.25,-22.5,7.5,39.83367919921875,0,
 348695,0.023681640625,-0.827880859375,-0.54541015625,-21.310976028442383,53.871952056884766,-55.060977935791016,5.25,-22.5,7.5,39.88159942626953,0,
 348705,0.031005859375,-1.22119140625,-0.58447265625,1.9512195587158203,30.274391174316406,-21.128049850463867,5.400000095367432,-22.649999618530273,7.199999809265137,39.88159942626953,0,
 348715,-0.083251953125,-1.124267578125,-0.51904296875,0.5182926654815674,2.7439024448394775,8.780488014221191,5.099999904632568,-21.450000762939453,7.650000095367432,40.025367736816406,0,
 348725,-0.18994140625,-1.00732421875,-0.489013671875,4.207317352294922,-19.69512176513672,32.43902587890625,5.25,-22.5,5.550000190734863,39.977447509765625,0,
 348735,-0.278076171875,-1.00927734375,-0.408935546875,13.506097793579102,-35.0,52.95731735229492,4.5,-22.950000762939453,6.75,40.025367736816406,0,
 348745,-0.35986328125,-0.996826171875,-0.318359375,16.55487823486328,-43.04878234863281,64.8780517578125,5.699999809265137,-22.950000762939453,7.5,39.88159942626953,0,
 348755,-0.430419921875,-0.97998046875,-0.2470703125,13.567073822021484,-45.57926940917969,69.45121765136719,4.349999904632568,-22.350000381469727,6.449999809265137,39.977447509765625,0,
 348765,-0.514892578125,-0.921875,-0.18994140625,3.8719513416290283,-41.432926177978516,68.84146881103516,5.25,-21.75,6.0,40.025367736816406,0,
 348775,-0.55419921875,-0.8642578125,-0.154541015625,-5.762195110321045,-32.256099700927734,62.89634323120117,4.5,-22.950000762939453,6.75,39.64198684692383,0,
 348785,-0.59033203125,-0.830810546875,-0.13623046875,-15.457317352294922,-19.176830291748047,53.32317352294922,4.5,-22.950000762939453,6.75,39.88159942626953,0,
 348795,-0.587646484375,-0.798583984375,-0.13916015625,-25.48780632019043,-4.5731706619262695,43.04878234863281,5.849999904632568,-22.649999618530273,7.199999809265137,40.025367736816406,0,
 348805,-0.57080078125,-0.759521484375,-0.154541015625,-33.38414764404297,9.969511985778809,31.25,3.9000000953674316,-22.649999618530273,5.400000095367432,40.07329177856445,0,
 348815,-0.52783203125,-0.755126953125,-0.19189453125,-43.75,31.34146499633789,6.95121955871582,7.5,-22.5,7.5,39.689910888671875,0,
 348825,-0.5009765625,-0.7431640625,-0.251220703125,-44.1158561706543,36.25,-7.256097793579102,7.5,-22.5,7.5,39.977447509765625,0,
 348835,-0.500732421875,-0.64697265625,-0.2861328125,-38.932926177978516,41.158538818359375,-26.219512939453125,5.699999809265137,-22.950000762939453,7.050000190734863,39.737831115722656,0,
 348845,-0.455322265625,-0.49462890625,-0.25439453125,-27.865854263305664,45.39634323120117,-42.8658561706543,5.25,-23.700000762939453,6.300000190734863,39.88159942626953,0,
 348855,-0.393310546875,-0.473388671875,-0.2919921875,-14.054878234863281,46.95122146606445,-57.835365295410156,6.0,-24.149999618530273,7.050000190734863,39.737831115722656,0,
 348865,-0.3896484375,-0.427734375,-0.280517578125,2.9573171138763428,49.69512176513672,-73.17073059082031,6.0,-24.149999618530273,7.050000190734863,40.16913604736328,0,
 348875,-0.298583984375,-0.453125,-0.294677734375,13.20121955871582,49.024391174316406,-79.11585235595703,4.199999809265137,-24.899999618530273,5.550000190734863,39.88159942626953,0,
 348885,-0.246337890625,-0.696533203125,-0.4052734375,14.84756088256836,43.628047943115234,-77.74390411376953,4.650000095367432,-23.100000381469727,7.650000095367432,39.689910888671875,0,
 348895,-0.2744140625,-0.94287109375,-0.462890625,12.957317352294922,35.914634704589844,-73.81097412109375,4.349999904632568,-23.850000381469727,6.449999809265137,39.88159942626953,0,
 348905,-0.25341796875,-1.06005859375,-0.48681640625,13.963415145874023,24.93902587890625,-64.23780822753906,3.299999952316284,-22.5,7.5,40.025367736816406,0,
 348915,-0.202880859375,-1.09326171875,-0.455322265625,13.231707572937012,13.59756088256836,-46.158538818359375,3.299999952316284,-22.5,7.5,39.737831115722656,0,
 348925,-0.194580078125,-1.12158203125,-0.454345703125,12.408536911010742,2.2560975551605225,-28.323171615600586,3.75,-24.450000762939453,7.5,39.83367919921875,0,
 348935,-0.250244140625,-1.10107421875,-0.431640625,11.859756469726562,-6.036585330963135,-12.682927131652832,3.299999952316284,-24.149999618530273,6.75,39.83367919921875,0,
 348945,-0.278564453125,-1.0361328125,-0.4140625,13.20121955871582,-11.920731544494629,1.7682926654815674,3.75,-23.25,8.25,40.025367736816406,0,
 348955,-0.276123046875,-1.037109375,-0.392578125,9.57317066192627,-17.012195587158203,13.414634704589844,3.75,-23.25,8.25,39.977447509765625,0,
 348965,-0.303466796875,-1.018310546875,-0.354248046875,6.432927131652832,-18.780488967895508,22.19512176513672,3.1500000953674316,-23.850000381469727,7.949999809265137,39.977447509765625,0,
 348975,-0.36376953125,-0.92919921875,-0.3095703125,3.75,-18.59756088256836,28.323171615600586,4.199999809265137,-23.700000762939453,4.5,40.025367736816406,0,
 348985,-0.37890625,-0.900146484375,-0.298828125,1.0060975551605225,-16.524391174316406,30.39634132385254,4.650000095367432,-21.899999618530273,5.400000095367432,39.737831115722656,0,
 348995,-0.383056640625,-0.85791015625,-0.29150390625,-1.920731782913208,-13.32317066192627,29.84756088256836,4.650000095367432,-21.899999618530273,5.400000095367432,39.88159942626953,0,
 349005,-0.38232421875,-0.81494140625,-0.2890625,-3.9939024448394775,-9.72560977935791,26.067073822021484,4.5,-22.950000762939453,9.0,39.88159942626953,0,
 349015,-0.3798828125,-0.783203125,-0.284423828125,-4.969512462615967,-6.280488014221191,20.30487823486328,4.199999809265137,-21.299999237060547,6.300000190734863,40.025367736816406,0,
 349025,-0.376953125,-0.755859375,-0.293212890625,-5.27439022064209,-3.2926828861236572,13.384146690368652,3.5999999046325684,-24.299999237060547,6.449999809265137,39.977447509765625,0,
 349035,-0.387939453125,-0.734375,-0.293701171875,-5.457317352294922,0.24390244483947754,5.54878044128418,3.5999999046325684,-24.299999237060547,6.449999809265137,39.737831115722656,0,
 349045,-0.38525390625,-0.72705078125,-0.306396484375,-3.567073345184326,3.2012195587158203,-4.054878234863281,4.5,-22.5,7.800000190734863,39.88159942626953,0,
 349055,-0.38720703125,-0.732421875,-0.310302734375,-0.6402438879013062,5.762195110321045,-14.054878234863281,4.650000095367432,-23.850000381469727,6.150000095367432,39.83367919921875,0,
 349065,-0.385986328125,-0.72607421875,-0.30908203125,2.865853786468506,8.414634704589844,-24.969512939453125,4.5,-22.049999237060547,9.0,39.977447509765625,0,
 349075,-0.368408203125,-0.678955078125,-0.2939453125,5.396341800689697,10.914634704589844,-37.95731735229492,6.0,-23.25,3.0,40.16913604736328,0,
 349085,-0.336669921875,-0.707763671875,-0.309814453125,9.054878234863281,13.90243911743164,-50.45731735229492,3.1500000953674316,-22.649999618530273,6.449999809265137,39.737831115722656,0,
 349095,-0.337890625,-0.763427734375,-0.3046875,12.34756088256836,16.09756088256836,-59.2378044128418,3.75,-22.5,6.75,39.977447509765625,0,
 349105,-0.330810546875,-0.856201171875,-0.31689453125,13.506097793579102,18.59756088256836,-66.73780822753906,4.349999904632568,-22.350000381469727,6.150000095367432,39.977447509765625,0,
 349115,-0.32421875,-0.913818359375,-0.314208984375,13.689024925231934,20.15243911743164,-69.90853881835938,4.650000095367432,-22.649999618530273,6.150000095367432,39.977447509765625,0,
 349125,-0.300048828125,-0.960693359375,-0.32373046875,12.408536911010742,20.823171615600586,-70.12195587158203,4.650000095367432,-22.649999618530273,6.150000095367432,39.977447509765625,0,
 349135,-0.2744140625,-0.94677734375,-0.3515625,10.82317066192627,20.609756469726562,-68.20121765136719,2.8499999046325684,-23.100000381469727,6.900000095367432,39.64198684692383,0,
 349145,-0.25244140625,-0.94775390625,-0.3466796875,11.280488014221191,19.45121955871582,-65.51829528808594,3.5999999046325684,-21.899999618530273,8.699999809265137,39.977447509765625,0,
 349156,-0.2333984375,-0.9384765625,-0.352294921875,13.04878044128418,18.231708526611328,-62.28658676147461,4.199999809265137,-22.950000762939453,7.050000190734863,39.88159942626953,0,
 349166,-0.222900390625,-0.927001953125,-0.34423828125,15.12195110321045,15.70121955871582,-58.59756088256836,4.199999809265137,-22.950000762939453,7.050000190734863,39.88159942626953,0,
 349176,-0.2080078125,-0.918212890625,-0.34814453125,17.13414764404297,13.292683601379395,-55.0,1.2000000476837158,-21.450000762939453,6.150000095367432,40.025367736816406,0,
 349186,-0.18798828125,-0.908935546875,-0.343994140625,20.0,11.036585807800293,-51.89024353027344,3.5999999046325684,-22.350000381469727,6.449999809265137,39.977447509765625,0,
 349196,-0.191650390625,-0.914306640625,-0.33837890625,22.926830291748047,8.59756088256836,-48.53658676147461,1.649999976158142,-22.649999618530273,7.199999809265137,39.977447509765625,0,
 349206,-0.189208984375,-0.927734375,-0.32080078125,24.93902587890625,6.6768293380737305,-45.3658561706543,1.649999976158142,-22.649999618530273,7.199999809265137,39.88159942626953,0,
 349216,-0.2001953125,-0.939697265625,-0.305908203125,24.878049850463867,5.27439022064209,-43.20122146606445,3.0,-22.049999237060547,6.0,40.025367736816406,0,
 349226,-0.193603515625,-0.949951171875,-0.313720703125,23.719512939453125,5.091463565826416,-40.57926940917969,1.649999976158142,-22.350000381469727,6.150000095367432,40.07329177856445,0,
 349236,-0.182373046875,-0.921875,-0.268798828125,22.10365867614746,6.280488014221191,-40.39634323120117,2.8499999046325684,-21.899999618530273,7.199999809265137,39.737831115722656,0,
 349246,-0.1943359375,-0.96240234375,-0.267822265625,21.40243911743164,6.097560882568359,-40.213417053222656,2.25,-21.299999237060547,7.050000190734863,40.07329177856445,0,
 349256,-0.196533203125,-0.935546875,-0.2783203125,17.286584854125977,7.591463565826416,-40.060977935791016,0.44999998807907104,-22.350000381469727,7.650000095367432,39.977447509765625,0,
 349266,-0.183837890625,-0.931884765625,-0.279296875,15.670732498168945,9.054878234863281,-40.15243911743164,1.5,-22.049999237060547,6.300000190734863,39.83367919921875,0,
 349276,-0.179443359375,-0.932861328125,-0.281982421875,15.335366249084473,11.067073822021484,-39.603660583496094,0.30000001192092896,-21.299999237060547,6.300000190734863,39.737831115722656,0,
 349286,-0.1630859375,-0.940673828125,-0.28173828125,14.29878044128418,11.829268455505371,-38.38414764404297,0.30000001192092896,-24.149999618530273,8.25,39.977447509765625,0,
 349296,-0.171142578125,-0.95263671875,-0.28466796875,12.835366249084473,12.530488014221191,-37.103660583496094,0.30000001192092896,-24.149999618530273,8.25,39.88159942626953,0,
 349306,-0.138427734375,-0.960205078125,-0.2783203125,12.835366249084473,12.042683601379395,-34.908538818359375,1.649999976158142,-21.450000762939453,6.449999809265137,40.16913604736328,0,
 349316,-0.126708984375,-0.9912109375,-0.2646484375,9.756097793579102,11.25,-32.256099700927734,1.649999976158142,-21.450000762939453,6.449999809265137,39.88159942626953,0,
 349326,-0.1201171875,-1.014892578125,-0.27099609375,4.817073345184326,10.640244483947754,-29.420732498168945,0.44999998807907104,-21.899999618530273,6.900000095367432,39.737831115722656,0,
 349336,-0.1044921875,-1.005615234375,-0.265380859375,1.3109756708145142,9.908536911010742,-25.70121955871582,0.44999998807907104,-21.899999618530273,6.900000095367432,40.07329177856445,0,
 349346,-0.110595703125,-1.0078125,-0.268798828125,-2.195122003555298,8.810976028442383,-22.34756088256836,2.0999999046325684,-21.450000762939453,6.150000095367432,39.88159942626953,0,
 349356,-0.09130859375,-0.99072265625,-0.272705078125,-4.237804889678955,7.5,-17.83536720275879,1.2000000476837158,-22.649999618530273,7.199999809265137,39.88159942626953,0,
 349366,-0.0791015625,-0.9677734375,-0.276611328125,-4.6646342277526855,5.609755992889404,-13.353658676147461,-0.15000000596046448,-21.149999618530273,6.900000095367432,39.977447509765625,0,
 349376,-0.071044921875,-0.95458984375,-0.288330078125,-3.658536672592163,3.841463565826416,-9.054878234863281,-0.15000000596046448,-21.149999618530273,6.900000095367432,39.64198684692383,0,
 349386,-0.078857421875,-0.9404296875,-0.288818359375,-2.2865853309631348,1.6158536672592163,-4.969512462615967,0.8999999761581421,-22.350000381469727,3.450000047683716,40.025367736816406,0,
 349396,-0.079345703125,-0.948486328125,-0.285888671875,-1.3719512224197388,0.12195122241973877,-1.585365891456604,-0.15000000596046448,-20.25,5.400000095367432,39.977447509765625,0,
 349406,-0.09375,-0.95556640625,-0.2802734375,-2.0426828861236572,-0.7317073345184326,0.8536585569381714,0.44999998807907104,-22.350000381469727,6.900000095367432,39.977447509765625,0,
 349416,-0.10009765625,-0.94580078125,-0.271728515625,-2.378048896789551,-0.9756097793579102,2.1646342277526855,0.44999998807907104,-20.700000762939453,5.699999809265137,39.83367919921875,0,
 349426,-0.107666015625,-0.943115234375,-0.272216796875,-2.8353660106658936,-0.5792682766914368,2.5304877758026123,0.15000000596046448,-21.899999618530273,5.699999809265137,39.737831115722656,0,
 349436,-0.11962890625,-0.935791015625,-0.26806640625,-2.9573171138763428,0.18292683362960815,2.591463565826416,0.75,-23.25,6.0,39.977447509765625,0,
 349446,-0.12060546875,-0.923095703125,-0.28173828125,-4.146341323852539,0.5182926654815674,1.432926893234253,0.15000000596046448,-22.350000381469727,6.449999809265137,39.64198684692383,0,
 349456,-0.114990234375,-0.922119140625,-0.284912109375,-3.5365853309631348,0.8536585569381714,-0.3048780560493469,1.5,-23.700000762939453,5.25,40.07329177856445,0,
 349466,-0.121337890625,-0.914794921875,-0.283935546875,-2.4695122241973877,1.097561001777649,-1.8597561120986938,1.5,-23.700000762939453,5.25,40.16913604736328,0,
 349476,-0.1201171875,-0.911376953125,-0.288818359375,-1.2195122241973877,1.5548781156539917,-4.054878234863281,0.15000000596046448,-24.299999237060547,7.199999809265137,39.737831115722656,0,
 349486,-0.11767578125,-0.920166015625,-0.289306640625,0.4573170840740204,2.0426828861236572,-5.8231706619262695,1.5,-22.5,3.0,39.88159942626953,0,
 349496,-0.106201171875,-0.89892578125,-0.273681640625,1.737804889678955,2.378048896789551,-7.042683124542236,0.15000000596046448,-22.649999618530273,6.150000095367432,39.88159942626953,0,
 349506,-0.114990234375,-0.914794921875,-0.295654296875,3.353658676147461,2.4695122241973877,-7.5,0.15000000596046448,-22.649999618530273,6.150000095367432,39.977447509765625,0,
 349516,-0.098388671875,-0.92529296875,-0.28564453125,3.7195122241973877,4.0853657722473145,-7.286585330963135,0.30000001192092896,-21.75,6.75,40.07329177856445,0,
 349526,-0.099609375,-0.941650390625,-0.2578125,6.341463565826416,4.0853657722473145,-8.140244483947754,-0.30000001192092896,-22.049999237060547,7.800000190734863,39.83367919921875,0,
 349536,-0.106201171875,-0.94580078125,-0.27783203125,5.121951103210449,3.1402440071105957,-7.743902683258057,-0.44999998807907104,-22.649999618530273,6.900000095367432,39.88159942626953,0,
 349546,-0.092041015625,-0.9306640625,-0.286865234375,4.542683124542236,3.170731782913208,-7.9268293380737305,-0.44999998807907104,-22.649999618530273,6.900000095367432,40.16913604736328,0,
 349556,-0.08447265625,-0.939697265625,-0.274658203125,5.396341800689697,3.2926828861236572,-6.5853657722473145,-0.15000000596046448,-21.450000762939453,6.900000095367432,40.07329177856445,0,
 349566,-0.078369140625,-0.957275390625,-0.274658203125,5.27439022064209,2.408536672592163,-5.3353657722473145,-0.8999999761581421,-21.899999618530273,7.199999809265137,39.88159942626953,0,
 349576,-0.078369140625,-0.95458984375,-0.266357421875,5.152439117431641,1.4939024448394775,-3.7195122241973877,0.30000001192092896,-21.299999237060547,6.300000190734863,39.64198684692383,0,
 349586,-0.069091796875,-0.95703125,-0.2763671875,4.6646342277526855,0.8536585569381714,-1.7073171138763428,0.0,-20.850000381469727,5.550000190734863,40.07329177856445,0,
 349596,-0.08349609375,-0.95263671875,-0.274169921875,4.390244007110596,0.15243902802467346,0.6707317233085632,-0.8999999761581421,-22.350000381469727,5.400000095367432,39.977447509765625,0,
 349606,-0.083740234375,-0.955322265625,-0.27392578125,4.45121955871582,-0.5182926654815674,2.22560977935791,0.30000001192092896,-22.049999237060547,6.75,40.16913604736328,0,
 349616,-0.095458984375,-0.953857421875,-0.273681640625,4.542683124542236,-0.5792682766914368,3.567073345184326,0.8999999761581421,-22.649999618530273,6.150000095367432,39.88159942626953,0,
 349626,-0.094970703125,-0.942626953125,-0.27001953125,4.45121955871582,-0.5487805008888245,4.207317352294922,0.75,-22.950000762939453,7.5,39.689910888671875,0,
 349636,-0.09423828125,-0.9404296875,-0.27197265625,4.6646342277526855,-0.396341472864151,5.182927131652832,0.75,-22.950000762939453,7.5,39.737831115722656,0,
 349646,-0.1005859375,-0.942138671875,-0.27099609375,5.0,-0.4878048896789551,5.030488014221191,-0.15000000596046448,-20.25,6.449999809265137,40.07329177856445,0,
 349656,-0.105712890625,-0.940185546875,-0.2666015625,4.5731706619262695,-0.396341472864151,5.182927131652832,0.0,-22.049999237060547,6.0,39.737831115722656,0,
 349666,-0.111328125,-0.935302734375,-0.263916015625,4.420732021331787,0.0,4.45121955871582,0.15000000596046448,-22.350000381469727,8.699999809265137,40.16913604736328,0,
 349676,-0.1044921875,-0.94970703125,-0.261474609375,4.0853657722473145,0.21341463923454285,4.146341323852539,0.15000000596046448,-22.350000381469727,8.699999809265137,39.977447509765625,0,
 349686,-0.114990234375,-0.9541015625,-0.255859375,3.3841464519500732,0.7317073345184326,3.7195122241973877,0.0,-21.299999237060547,6.75,40.07329177856445,0,
 349696,-0.113037109375,-0.95361328125,-0.254150390625,2.0426828861236572,1.2804877758026123,2.896341562271118,-0.44999998807907104,-21.450000762939453,6.150000095367432,39.737831115722656,0,
 349706,-0.1142578125,-0.942626953125,-0.259765625,1.6158536672592163,1.7073171138763428,1.7987805604934692,1.2000000476837158,-21.899999618530273,6.900000095367432,39.737831115722656,0,
 349716,-0.115966796875,-0.936767578125,-0.264892578125,1.5243902206420898,2.317073106765747,0.9451219439506531,1.2000000476837158,-21.899999618530273,6.900000095367432,39.689910888671875,0,
 349726,-0.118896484375,-0.931396484375,-0.264404296875,1.6158536672592163,2.8353660106658936,0.4573170840740204,0.8999999761581421,-21.899999618530273,5.400000095367432,39.64198684692383,0,
 349736,-0.11767578125,-0.93505859375,-0.2587890625,2.6524391174316406,3.9939024448394775,0.4573170840740204,1.5,-24.149999618530273,7.5,40.025367736816406,0,
 349746,-0.114990234375,-0.9462890625,-0.253173828125,2.77439022064209,4.5731706619262695,0.8536585569381714,1.5,-21.75,6.75,39.83367919921875,0,
 349756,-0.109130859375,-0.951171875,-0.263671875,2.4695122241973877,4.969512462615967,1.0670732259750366,-0.75,-20.549999237060547,6.0,39.88159942626953,0,
 349776,-0.10986328125,-0.957763671875,-0.260009765625,2.9573171138763428,5.182927131652832,1.7987805604934692,1.7999999523162842,-21.299999237060547,5.550000190734863,39.689910888671875,0,
 349786,-0.095947265625,-0.9638671875,-0.258056640625,1.585365891456604,4.786585330963135,2.1341464519500732,-0.15000000596046448,-22.350000381469727,5.400000095367432,39.88159942626953,0,
 349796,-0.1015625,-0.94873046875,-0.25732421875,1.9817073345184326,4.817073345184326,2.865853786468506,1.0499999523162842,-22.049999237060547,4.800000190734863,39.977447509765625,0,
 349806,-0.083251953125,-0.96044921875,-0.262451171875,0.4878048896789551,4.115853786468506,2.378048896789551,1.0499999523162842,-22.049999237060547,4.800000190734863,40.025367736816406,0,
 349816,-0.081298828125,-0.952392578125,-0.2578125,0.7621951103210449,3.4146342277526855,2.195122003555298,0.0,-21.299999237060547,7.050000190734863,39.689910888671875,0,
 349826,-0.09814453125,-0.9501953125,-0.255615234375,0.09146341681480408,3.170731782913208,2.4695122241973877,1.7999999523162842,-22.049999237060547,6.0,39.737831115722656,0,
 349836,-0.08935546875,-0.953369140625,-0.260986328125,0.12195122241973877,2.4390244483947754,2.012195110321045,1.0499999523162842,-22.049999237060547,6.75,39.977447509765625,0,
 349846,-0.09765625,-0.947021484375,-0.26123046875,-0.4573170840740204,1.8597561120986938,2.0426828861236572,1.0499999523162842,-22.049999237060547,6.75,39.88159942626953,0,
 349856,-0.089111328125,-0.956787109375,-0.259765625,-1.3414634466171265,1.4939024448394775,2.012195110321045,-0.30000001192092896,-21.75,7.050000190734863,39.977447509765625,0,
 349866,-0.09130859375,-0.9638671875,-0.261474609375,-2.22560977935791,1.1280487775802612,1.8292683362960815,1.5,-21.75,6.300000190734863,39.689910888671875,0,
 349876,-0.093017578125,-0.956787109375,-0.2568359375,-2.77439022064209,0.6097561120986938,1.7987805604934692,2.0999999046325684,-22.350000381469727,4.949999809265137,39.977447509765625,0,
 349886,-0.092529296875,-0.947509765625,-0.260498046875,-2.7134146690368652,0.3353658616542816,1.5243902206420898,2.0999999046325684,-22.350000381469727,4.949999809265137,39.737831115722656,0,
 349896,-0.0947265625,-0.9423828125,-0.257568359375,-2.682926893234253,-0.27439025044441223,1.432926893234253,0.30000001192092896,-22.049999237060547,3.299999952316284,39.977447509765625,0,
 349906,-0.103271484375,-0.951171875,-0.259033203125,-2.408536672592163,-0.6097561120986938,1.1585365533828735,1.0499999523162842,-22.950000762939453,5.550000190734863,39.977447509765625,0,
 349916,-0.107177734375,-0.948974609375,-0.263671875,-2.2560975551605225,-0.9146341681480408,1.1585365533828735,0.75,-22.5,6.75,39.64198684692383,0,
 349926,-0.110107421875,-0.947998046875,-0.261962890625,-2.5609755516052246,-1.2804877758026123,1.1890244483947754,-0.75,-22.049999237060547,6.300000190734863,40.025367736816406,0,
 349936,-0.105224609375,-0.952392578125,-0.254638671875,-3.2317073345184326,-0.5487805008888245,0.9756097793579102,-0.75,-22.049999237060547,6.300000190734863,39.737831115722656,0,
 349946,-0.1083984375,-0.95556640625,-0.256103515625,-3.567073345184326,-0.5182926654815674,1.0365853309631348,0.44999998807907104,-22.350000381469727,7.650000095367432,39.977447509765625,0,
 349956,-0.106689453125,-0.94873046875,-0.26416015625,-4.695122241973877,-0.15243902802467346,1.0365853309631348,0.44999998807907104,-22.350000381469727,6.150000095367432,40.16913604736328,0,
 349966,-0.111572265625,-0.94677734375,-0.26025390625,-5.27439022064209,-0.12195122241973877,0.7621951103210449,-0.15000000596046448,-20.700000762939453,6.900000095367432,39.737831115722656,0,
 349977,-0.108154296875,-0.936279296875,-0.270263671875,-5.3353657722473145,-0.060975611209869385,0.792682945728302,-0.15000000596046448,-20.700000762939453,6.900000095367432,39.88159942626953,0,
 349987,-0.1015625,-0.933837890625,-0.273193359375,-4.237804889678955,-0.3048780560493469,0.4878048896789551,1.0499999523162842,-22.049999237060547,6.0,40.025367736816406,0,
 349997,-0.1025390625,-0.935302734375,-0.270263671875,-3.4146342277526855,-0.4878048896789551,0.792682945728302,1.7999999523162842,-21.75,5.550000190734863,39.83367919921875,0,
 350007,-0.1005859375,-0.9384765625,-0.268798828125,-2.6219513416290283,-0.5182926654815674,0.6097561120986938,-0.8999999761581421,-22.350000381469727,7.949999809265137,40.025367736816406,0,
 350017,-0.106689453125,-0.943115234375,-0.26904296875,-2.012195110321045,-0.9756097793579102,0.060975611209869385,-0.8999999761581421,-22.350000381469727,7.949999809265137,39.737831115722656,0,
 350027,-0.108154296875,-0.930908203125,-0.267822265625,-1.4634146690368652,-1.0060975551605225,0.27439025044441223,0.75,-22.5,6.0,39.977447509765625,0,
 350037,-0.106689453125,-0.935546875,-0.265869140625,-0.9451219439506531,-1.0365853309631348,-0.030487805604934692,0.75,-22.5,7.050000190734863,39.83367919921875,0,
 350047,-0.11181640625,-0.939453125,-0.265869140625,-0.3353658616542816,-0.9451219439506531,-0.4268292784690857,0.30000001192092896,-21.75,7.050000190734863,39.88159942626953,0,
 350057,-0.109375,-0.9482421875,-0.263671875,-0.3048780560493469,-0.6097561120986938,-0.7621951103210449,0.30000001192092896,-21.75,7.050000190734863,39.737831115722656,0,
 350067,-0.109619140625,-0.939453125,-0.268310546875,-0.6097561120986938,-0.5487805008888245,-1.0060975551605225,-0.30000001192092896,-20.850000381469727,7.050000190734863,39.88159942626953,0,
 350077,-0.11181640625,-0.9462890625,-0.267333984375,-0.6402438879013062,0.060975611209869385,-1.097561001777649,0.0,-22.049999237060547,6.75,40.264984130859375,0,
 350087,-0.105712890625,-0.94921875,-0.267822265625,-0.9756097793579102,-0.060975611209869385,-0.792682945728302,0.44999998807907104,-21.149999618530273,5.400000095367432,39.977447509765625,0,
 350097,-0.107421875,-0.9443359375,-0.26025390625,-1.0670732259750366,0.18292683362960815,-0.24390244483947754,-1.649999976158142,-19.950000762939453,5.699999809265137,39.88159942626953,0,
 350107,-0.10595703125,-0.937744140625,-0.263427734375,-1.2804877758026123,0.3658536672592163,-0.030487805604934692,-1.649999976158142,-19.950000762939453,5.699999809265137,40.025367736816406,0,
 350117,-0.1025390625,-0.94140625,-0.26171875,-1.4939024448394775,0.4573170840740204,-0.15243902802467346,0.44999998807907104,-19.5,6.900000095367432,39.737831115722656,0,
 350127,-0.1064453125,-0.939208984375,-0.270751953125,-1.1585365533828735,0.6707317233085632,-0.09146341681480408,0.30000001192092896,-22.049999237060547,7.050000190734863,39.88159942626953,0,
 350137,-0.10302734375,-0.93359375,-0.2685546875,-0.396341472864151,0.5792682766914368,0.0,0.30000001192092896,-22.049999237060547,6.75,40.16913604736328,0,
 350147,-0.100830078125,-0.9365234375,-0.2724609375,0.24390244483947754,0.396341472864151,-0.060975611209869385,0.30000001192092896,-22.049999237060547,6.75,39.83367919921875,0,
 350157,-0.10595703125,-0.940185546875,-0.265380859375,1.097561001777649,-0.030487805604934692,0.3353658616542816,0.8999999761581421,-21.149999618530273,6.150000095367432,39.88159942626953,0,
 350167,-0.103271484375,-0.9453125,-0.265625,0.6707317233085632,0.030487805604934692,0.3048780560493469,-1.2000000476837158,-21.149999618530273,6.150000095367432,39.737831115722656,0,
 350177,-0.10302734375,-0.93994140625,-0.271240234375,1.2804877758026123,-0.15243902802467346,0.4573170840740204,-1.0499999523162842,-20.850000381469727,7.050000190734863,39.977447509765625,0,
 350187,-0.107421875,-0.947021484375,-0.26171875,1.1890244483947754,0.0,0.9451219439506531,-1.0499999523162842,-20.850000381469727,7.050000190734863,40.07329177856445,0,
 350197,-0.103759765625,-0.949951171875,-0.264404296875,0.8536585569381714,0.09146341681480408,1.402438998222351,0.8999999761581421,-21.899999618530273,5.400000095367432,39.88159942626953,0,
 350217,-0.11376953125,-0.95068359375,-0.26708984375,0.27439025044441223,0.5487805008888245,1.5548781156539917,1.5,-20.549999237060547,6.75,39.977447509765625,0,
 350227,-0.106689453125,-0.942626953125,-0.269287109375,0.0,0.7621951103210449,1.3719512224197388,1.5,-20.549999237060547,6.75,39.689910888671875,0,
 350237,-0.106689453125,-0.9423828125,-0.271484375,0.5792682766914368,0.8536585569381714,1.8597561120986938,0.30000001192092896,-21.299999237060547,6.75,40.025367736816406,0,
 350247,-0.10595703125,-0.94091796875,-0.26611328125,0.7621951103210449,0.3658536672592163,1.432926893234253,-0.44999998807907104,-21.149999618530273,6.900000095367432,40.025367736816406,0,
 350257,-0.106689453125,-0.943603515625,-0.266357421875,1.1280487775802612,0.4573170840740204,1.5548781156539917,0.75,-22.950000762939453,8.550000190734863,39.689910888671875,0,
 350267,-0.10205078125,-0.940185546875,-0.270263671875,1.8292683362960815,0.09146341681480408,1.25,-0.15000000596046448,-22.350000381469727,7.199999809265137,39.88159942626953,0,
 350277,-0.103759765625,-0.933837890625,-0.259765625,1.9512195587158203,0.15243902802467346,1.3414634466171265,-0.15000000596046448,-22.350000381469727,7.199999809265137,39.977447509765625,0,
 350287,-0.103515625,-0.9375,-0.263427734375,2.5,-0.030487805604934692,0.9451219439506531,-0.30000001192092896,-20.549999237060547,6.75,39.88159942626953,0,
 350297,-0.107421875,-0.939697265625,-0.2607421875,2.6524391174316406,-0.18292683362960815,1.2804877758026123,0.30000001192092896,-21.299999237060547,6.300000190734863,39.737831115722656,0,
 350307,-0.107177734375,-0.949951171875,-0.258056640625,2.378048896789551,-0.18292683362960815,1.25,1.7999999523162842,-24.149999618530273,4.050000190734863,39.88159942626953,0,
 350317,-0.1103515625,-0.950439453125,-0.25634765625,1.737804889678955,-0.030487805604934692,1.4939024448394775,1.7999999523162842,-24.149999618530273,4.050000190734863,39.83367919921875,0,
 350327,-0.115478515625,-0.950927734375,-0.25390625,1.4634146690368652,-0.030487805604934692,1.6768293380737305,1.2000000476837158,-23.100000381469727,5.400000095367432,39.977447509765625,0,
 350337,-0.105224609375,-0.9462890625,-0.26025390625,0.8536585569381714,0.6707317233085632,1.4939024448394775,0.0,-22.049999237060547,7.050000190734863,40.16913604736328,0,
 350347,-0.109375,-0.947021484375,-0.2578125,0.5792682766914368,0.21341463923454285,1.8292683362960815,1.0499999523162842,-22.5,7.800000190734863,40.07329177856445,0,
 350357,-0.107177734375,-0.946044921875,-0.257568359375,0.5487805008888245,0.4268292784690857,1.9817073345184326,1.0499999523162842,-22.5,7.800000190734863,39.64198684692383,0,
 350367,-0.109619140625,-0.94775390625,-0.260498046875,0.396341472864151,0.4573170840740204,2.22560977935791,1.5,-19.799999237060547,6.75,39.737831115722656,0,
 350377,-0.11376953125,-0.947021484375,-0.2568359375,1.097561001777649,0.6402438879013062,2.4695122241973877,-0.44999998807907104,-21.899999618530273,7.199999809265137,40.07329177856445,0,
 350387,-0.11083984375,-0.950927734375,-0.25537109375,0.792682945728302,0.12195122241973877,2.408536672592163,-0.15000000596046448,-22.350000381469727,6.449999809265137,39.977447509765625,0,
 350397,-0.11474609375,-0.946533203125,-0.25634765625,0.6402438879013062,-0.060975611209869385,2.4695122241973877,-0.15000000596046448,-22.350000381469727,6.449999809265137,39.977447509765625,0,
 350407,-0.115234375,-0.94775390625,-0.259033203125,0.396341472864151,0.18292683362960815,1.9817073345184326,1.2000000476837158,-21.899999618530273,3.450000047683716,39.83367919921875,0,
 350417,-0.1123046875,-0.951171875,-0.255615234375,0.3353658616542816,0.3353658616542816,2.195122003555298,0.8999999761581421,-20.700000762939453,6.900000095367432,39.977447509765625,0,
 350427,-0.112548828125,-0.942626953125,-0.255126953125,-0.15243902802467346,0.3353658616542816,2.0426828861236572,1.0499999523162842,-22.049999237060547,6.0,39.88159942626953,0,
 350437,-0.11474609375,-0.94140625,-0.25341796875,-0.18292683362960815,0.3048780560493469,1.737804889678955,-0.15000000596046448,-23.549999237060547,7.199999809265137,40.025367736816406,0,
 350447,-0.1123046875,-0.937255859375,-0.260498046875,-0.15243902802467346,0.18292683362960815,1.3719512224197388,-0.15000000596046448,-23.549999237060547,7.199999809265137,39.977447509765625,0,
 350457,-0.110107421875,-0.942138671875,-0.26513671875,0.15243902802467346,0.24390244483947754,1.25,0.15000000596046448,-21.149999618530273,5.400000095367432,39.689910888671875,0,
 350467,-0.109375,-0.9453125,-0.257568359375,0.0,0.3658536672592163,1.2804877758026123,0.0,-21.299999237060547,6.300000190734863,39.88159942626953,0,
 350477,-0.10986328125,-0.946044921875,-0.26025390625,0.5487805008888245,0.3048780560493469,1.1890244483947754,-0.15000000596046448,-21.899999618530273,4.949999809265137,39.83367919921875,0,
 350487,-0.118896484375,-0.946044921875,-0.252685546875,0.4878048896789551,0.4573170840740204,0.9146341681480408,-0.15000000596046448,-21.899999618530273,4.949999809265137,39.737831115722656,0,
 350497,-0.111572265625,-0.94189453125,-0.2568359375,0.3353658616542816,0.15243902802467346,0.6097561120986938,-0.75,-21.75,7.5,39.977447509765625,0,
 350507,-0.107666015625,-0.942626953125,-0.257568359375,0.0,0.27439025044441223,0.8841463327407837,-0.15000000596046448,-19.950000762939453,2.4000000953674316,39.689910888671875,0,
 350517,-0.106201171875,-0.937744140625,-0.256103515625,0.030487805604934692,0.396341472864151,0.8841463327407837,0.8999999761581421,-21.899999618530273,5.400000095367432,40.16913604736328,0,
 350527,-0.11279296875,-0.94140625,-0.260009765625,0.3048780560493469,0.6097561120986938,0.5487805008888245,0.8999999761581421,-21.899999618530273,5.400000095367432,39.977447509765625,0,
 350537,-0.108642578125,-0.93310546875,-0.2607421875,0.4878048896789551,0.21341463923454285,0.7621951103210449,0.30000001192092896,-22.049999237060547,6.75,40.025367736816406,0,
 350547,-0.104736328125,-0.946533203125,-0.258544921875,0.7621951103210449,-0.27439025044441223,0.6707317233085632,0.8999999761581421,-21.149999618530273,6.900000095367432,39.83367919921875,0,
 350557,-0.109375,-0.947021484375,-0.25830078125,1.1890244483947754,-0.24390244483947754,0.5792682766914368,0.0,-21.75,7.050000190734863,39.689910888671875,0,
 350567,-0.109375,-0.945068359375,-0.255615234375,1.4939024448394775,-0.3048780560493469,0.5792682766914368,0.0,-21.75,7.050000190734863,39.83367919921875,0,
 350577,-0.116455078125,-0.9423828125,-0.255859375,1.4634146690368652,-0.27439025044441223,0.7012194991111755,0.30000001192092896,-21.75,6.300000190734863,39.977447509765625,0,
 350587,-0.114501953125,-0.953857421875,-0.252685546875,1.3109756708145142,-0.21341463923454285,0.4573170840740204,0.15000000596046448,-22.649999618530273,5.400000095367432,39.64198684692383,0,
 350597,-0.1181640625,-0.947021484375,-0.250732421875,0.9451219439506531,-0.3353658616542816,0.15243902802467346,-0.75,-21.299999237060547,7.050000190734863,40.21706008911133,0,
 350607,-0.112548828125,-0.947265625,-0.254638671875,0.5792682766914368,0.4268292784690857,0.060975611209869385,0.0,-22.049999237060547,6.75,39.88159942626953,0,
 350617,-0.11083984375,-0.94287109375,-0.252685546875,0.15243902802467346,0.12195122241973877,0.3658536672592163,0.0,-22.049999237060547,6.75,39.977447509765625,0,
 350627,-0.113037109375,-0.9453125,-0.251953125,0.5487805008888245,0.4573170840740204,0.030487805604934692,-0.15000000596046448,-21.899999618530273,6.449999809265137,39.737831115722656,0,
 350637,-0.112060546875,-0.94677734375,-0.256591796875,0.396341472864151,0.21341463923454285,0.15243902802467346,-0.44999998807907104,-22.350000381469727,7.650000095367432,39.83367919921875,0,
 350647,-0.112548828125,-0.94140625,-0.254638671875,0.396341472864151,-0.09146341681480408,0.3048780560493469,-0.8999999761581421,-19.950000762939453,7.199999809265137,39.689910888671875,0,
 350657,-0.10986328125,-0.941162109375,-0.250244140625,0.8231707215309143,0.0,0.4573170840740204,-0.8999999761581421,-19.950000762939453,7.199999809265137,40.025367736816406,0,
 350667,-0.10986328125,-0.9404296875,-0.250244140625,0.9146341681480408,-0.030487805604934692,0.6707317233085632,1.5,-21.299999237060547,7.800000190734863,39.88159942626953,0,
 350677,-0.110595703125,-0.944580078125,-0.253173828125,0.8536585569381714,-0.5487805008888245,0.7621951103210449,0.15000000596046448,-21.450000762939453,6.150000095367432,40.025367736816406,0,
 350687,-0.109375,-0.944091796875,-0.254150390625,1.0365853309631348,-0.396341472864151,0.8231707215309143,1.0499999523162842,-22.5,6.0,39.88159942626953,0,
 350697,-0.111083984375,-0.942626953125,-0.252197265625,1.0060975551605225,-0.4268292784690857,1.25,1.0499999523162842,-22.5,6.0,39.737831115722656,0,
 350707,-0.11328125,-0.94775390625,-0.248779296875,0.9146341681480408,-0.3048780560493469,1.2195122241973877,-0.30000001192092896,-21.75,6.75,39.977447509765625,0,
 350718,-0.119140625,-0.94482421875,-0.250732421875,0.9451219439506531,-0.24390244483947754,1.432926893234253,1.7999999523162842,-21.299999237060547,3.0,40.16913604736328,0,
 350728,-0.110595703125,-0.9501953125,-0.25146484375,0.21341463923454285,-0.24390244483947754,1.1890244483947754,0.30000001192092896,-21.75,4.800000190734863,40.025367736816406,0,
 350738,-0.113525390625,-0.951171875,-0.25634765625,-0.15243902802467346,-0.060975611209869385,1.402438998222351,0.30000001192092896,-21.75,4.800000190734863,39.88159942626953,0,
 350748,-0.114501953125,-0.95166015625,-0.251953125,-0.21341463923454285,0.0,1.402438998222351,0.44999998807907104,-21.149999618530273,6.150000095367432,39.64198684692383,0,
 350758,-0.1181640625,-0.94873046875,-0.2490234375,0.3048780560493469,-0.15243902802467346,1.1280487775802612,0.44999998807907104,-21.450000762939453,5.699999809265137,39.88159942626953,0,
 350768,-0.11669921875,-0.939453125,-0.259033203125,-0.12195122241973877,-0.24390244483947754,0.9451219439506531,-0.8999999761581421,-22.649999618530273,7.650000095367432,39.737831115722656,0,
 350778,-0.111083984375,-0.947998046875,-0.255615234375,-0.030487805604934692,-0.27439025044441223,1.0365853309631348,-0.15000000596046448,-20.700000762939453,5.699999809265137,39.977447509765625,0,
 350788,-0.115234375,-0.94189453125,-0.256103515625,-0.15243902802467346,0.0,0.9146341681480408,-0.15000000596046448,-20.700000762939453,5.699999809265137,39.977447509765625,0,
 350798,-0.114501953125,-0.941650390625,-0.2509765625,-0.030487805604934692,-0.21341463923454285,0.8841463327407837,0.44999998807907104,-20.700000762939453,8.399999618530273,39.64198684692383,0,
 350808,-0.11865234375,-0.946533203125,-0.2509765625,0.0,-0.030487805604934692,0.9146341681480408,1.0499999523162842,-22.5,6.75,40.025367736816406,0,
 350818,-0.11767578125,-0.94580078125,-0.248046875,0.060975611209869385,-0.030487805604934692,0.792682945728302,1.2000000476837158,-20.700000762939453,3.1500000953674316,40.07329177856445,0,
 350828,-0.116455078125,-0.944091796875,-0.251708984375,-0.12195122241973877,0.24390244483947754,0.8841463327407837,1.2000000476837158,-20.700000762939453,3.1500000953674316,39.88159942626953,0,
 350838,-0.11376953125,-0.947998046875,-0.248291015625,-0.24390244483947754,-0.18292683362960815,0.6097561120986938,-0.15000000596046448,-21.450000762939453,6.150000095367432,40.025367736816406,0,
 350848,-0.11376953125,-0.947998046875,-0.24853515625,-0.27439025044441223,-0.18292683362960815,0.7621951103210449,0.8999999761581421,-21.149999618530273,7.949999809265137,39.737831115722656,0,
 350858,-0.1220703125,-0.94580078125,-0.250244140625,-0.4878048896789551,-0.18292683362960815,0.5487805008888245,1.2000000476837158,-21.149999618530273,6.150000095367432,39.88159942626953,0,
 350868,-0.115966796875,-0.940185546875,-0.2529296875,-0.396341472864151,0.09146341681480408,0.5182926654815674,1.2000000476837158,-21.149999618530273,6.150000095367432,39.977447509765625,0,
 350878,-0.116943359375,-0.94287109375,-0.260009765625,-0.030487805604934692,-0.030487805604934692,0.3048780560493469,-0.15000000596046448,-21.899999618530273,6.150000095367432,39.977447509765625,0,
 350888,-0.11181640625,-0.943359375,-0.25390625,0.09146341681480408,0.15243902802467346,0.4878048896789551,0.75,-20.850000381469727,6.75,39.737831115722656,0,
 350898,-0.11669921875,-0.940185546875,-0.255126953125,0.4573170840740204,-0.15243902802467346,0.5792682766914368,0.44999998807907104,-20.700000762939453,5.699999809265137,39.88159942626953,0,
 350908,-0.1171875,-0.946044921875,-0.248291015625,0.27439025044441223,0.0,0.6707317233085632,0.44999998807907104,-20.700000762939453,5.699999809265137,39.737831115722656,0,
 350918,-0.11083984375,-0.945068359375,-0.253662109375,0.6097561120986938,0.0,0.7012194991111755,0.8999999761581421,-18.299999237060547,4.199999809265137,39.64198684692383,0,
 350928,-0.11962890625,-0.95068359375,-0.251220703125,0.5182926654815674,0.060975611209869385,0.4878048896789551,0.44999998807907104,-22.649999618530273,6.900000095367432,39.977447509765625,0,
 350938,-0.113525390625,-0.94091796875,-0.2470703125,0.8536585569381714,-0.18292683362960815,0.4268292784690857,0.44999998807907104,-21.899999618530273,6.449999809265137,40.07329177856445,0,
 350948,-0.11572265625,-0.9501953125,-0.24951171875,0.4573170840740204,0.09146341681480408,0.24390244483947754,1.5,-18.899999618530273,6.75,39.64198684692383,0,
 350958,-0.121826171875,-0.944580078125,-0.255615234375,0.5792682766914368,0.09146341681480408,0.3658536672592163,1.5,-18.899999618530273,6.75,40.07329177856445,0,
 350968,-0.114990234375,-0.9453125,-0.25,0.6097561120986938,-0.12195122241973877,0.27439025044441223,1.0499999523162842,-20.549999237060547,6.75,39.737831115722656,0,
 350978,-0.1162109375,-0.948974609375,-0.247802734375,0.3048780560493469,-0.15243902802467346,0.4573170840740204,1.2000000476837158,-22.350000381469727,6.150000095367432,39.88159942626953,0,
 350988,-0.113525390625,-0.94775390625,-0.246337890625,0.4268292784690857,-0.030487805604934692,0.3353658616542816,0.75,-20.850000381469727,5.550000190734863,39.977447509765625,0,
 350998,-0.11669921875,-0.937744140625,-0.251708984375,0.6097561120986938,0.3658536672592163,0.4878048896789551,0.75,-20.850000381469727,5.550000190734863,39.88159942626953,0,
 351008,-0.1162109375,-0.9482421875,-0.251708984375,0.6097561120986938,-0.060975611209869385,0.5487805008888245,1.2000000476837158,-23.100000381469727,6.150000095367432,39.977447509765625,0,
 351018,-0.11083984375,-0.9462890625,-0.24462890625,0.8231707215309143,-0.030487805604934692,0.7012194991111755,0.30000001192092896,-21.299999237060547,5.25,40.07329177856445,0,
 351028,-0.114990234375,-0.944091796875,-0.247314453125,0.8536585569381714,-0.21341463923454285,0.5487805008888245,-2.4000000953674316,-22.649999618530273,5.699999809265137,40.16913604736328,0,
 351038,-0.115966796875,-0.943115234375,-0.2529296875,0.6402438879013062,-0.09146341681480408,0.6402438879013062,-2.4000000953674316,-22.649999618530273,5.699999809265137,40.07329177856445,0,
 351048,-0.1142578125,-0.948486328125,-0.252197265625,0.7317073345184326,0.18292683362960815,0.396341472864151,1.5,-21.299999237060547,7.050000190734863,39.88159942626953,0,
 351058,-0.11572265625,-0.948486328125,-0.2509765625,0.396341472864151,0.12195122241973877,0.792682945728302,0.0,-20.850000381469727,7.050000190734863,39.977447509765625,0,
 351068,-0.116943359375,-0.9462890625,-0.2529296875,1.1280487775802612,-0.09146341681480408,0.396341472864151,2.4000000953674316,-21.450000762939453,4.199999809265137,39.977447509765625,0,
 351078,-0.11376953125,-0.945068359375,-0.24560546875,0.6097561120986938,0.3048780560493469,0.9756097793579102,0.30000001192092896,-21.75,5.550000190734863,39.689910888671875,0,
 351088,-0.115966796875,-0.9521484375,-0.248046875,0.792682945728302,0.09146341681480408,0.8536585569381714,0.75,-21.299999237060547,6.75,39.88159942626953,0,
 351098,-0.115966796875,-0.949951171875,-0.2490234375,0.3658536672592163,-0.09146341681480408,0.6402438879013062,2.0999999046325684,-21.149999618530273,6.449999809265137,39.977447509765625,0,
 351108,-0.118896484375,-0.9453125,-0.24609375,0.6707317233085632,-0.15243902802467346,0.18292683362960815,1.5,-22.049999237060547,6.75,39.83367919921875,0,
 351118,-0.1171875,-0.943115234375,-0.243408203125,0.15243902802467346,0.3048780560493469,0.8536585569381714,2.4000000953674316,-19.950000762939453,7.199999809265137,39.737831115722656,0,
 351128,-0.11376953125,-0.947265625,-0.249267578125,0.09146341681480408,0.3353658616542816,0.5792682766914368,2.4000000953674316,-19.950000762939453,7.199999809265137,40.07329177856445,0,
 351138,-0.1181640625,-0.950439453125,-0.246826171875,-0.15243902802467346,0.0,0.792682945728302,0.8999999761581421,-20.700000762939453,5.699999809265137,39.64198684692383,0,
 351148,-0.108154296875,-0.946533203125,-0.2392578125,-0.18292683362960815,0.18292683362960815,0.5487805008888245,1.5,-21.299999237060547,6.75,39.88159942626953,0,
 351158,-0.118896484375,-0.939697265625,-0.2451171875,-0.09146341681480408,0.27439025044441223,0.5487805008888245,0.0,-22.049999237060547,6.0,40.07329177856445,0,
 351168,-0.1171875,-0.947509765625,-0.251708984375,-0.09146341681480408,0.060975611209869385,0.7621951103210449,0.0,-22.049999237060547,6.0,39.88159942626953,0,
 351178,-0.11083984375,-0.9443359375,-0.245849609375,0.09146341681480408,0.12195122241973877,0.5487805008888245,0.75,-23.700000762939453,6.0,39.88159942626953,0,
 351188,-0.119140625,-0.940673828125,-0.24072265625,-0.09146341681480408,0.030487805604934692,0.396341472864151,0.15000000596046448,-22.649999618530273,6.150000095367432,39.88159942626953,0,
 351198,-0.1259765625,-0.952392578125,-0.24853515625,-0.3353658616542816,0.27439025044441223,0.18292683362960815,0.44999998807907104,-20.25,6.900000095367432,40.07329177856445,0,
 351208,-0.120361328125,-0.943359375,-0.249267578125,-0.6402438879013062,0.27439025044441223,0.27439025044441223,0.44999998807907104,-20.25,6.900000095367432,39.737831115722656,0,
 351218,-0.119140625,-0.94775390625,-0.24658203125,-0.24390244483947754,0.5792682766914368,0.0,-0.15000000596046448,-21.149999618530273,6.150000095367432,40.07329177856445,0,
 351228,-0.115478515625,-0.952392578125,-0.2470703125,-0.5792682766914368,0.4573170840740204,0.3658536672592163,1.0499999523162842,-22.950000762939453,3.299999952316284,40.025367736816406,0,
 351238,-0.111083984375,-0.9423828125,-0.249267578125,-0.6707317233085632,0.5487805008888245,0.27439025044441223,-0.30000001192092896,-21.299999237060547,6.75,39.83367919921875,0,
 351248,-0.120361328125,-0.9443359375,-0.250244140625,-0.4573170840740204,0.15243902802467346,0.15243902802467346,1.2000000476837158,-20.700000762939453,7.650000095367432,40.16913604736328,0,
 351258,-0.119140625,-0.94189453125,-0.245849609375,-0.27439025044441223,-0.3048780560493469,0.3658536672592163,0.30000001192092896,-21.75,7.5,39.977447509765625,0,
 351268,-0.118408203125,-0.9453125,-0.24609375,-0.18292683362960815,0.21341463923454285,0.396341472864151,0.15000000596046448,-19.950000762939453,7.199999809265137,39.88159942626953,0,
 351278,-0.1142578125,-0.94873046875,-0.244140625,0.0,0.21341463923454285,0.15243902802467346,0.15000000596046448,-21.450000762939453,5.400000095367432,39.977447509765625,0,
 351288,-0.114013671875,-0.943115234375,-0.244384765625,0.12195122241973877,0.15243902802467346,0.396341472864151,0.30000001192092896,-22.049999237060547,6.75,39.689910888671875,0,
 351298,-0.114501953125,-0.9521484375,-0.251953125,-0.18292683362960815,0.27439025044441223,0.18292683362960815,0.30000001192092896,-22.049999237060547,6.75,39.977447509765625,0,
 351308,-0.12451171875,-0.94921875,-0.244873046875,-0.060975611209869385,0.12195122241973877,-0.09146341681480408,0.75,-22.049999237060547,7.050000190734863,39.88159942626953,0,
 351318,-0.11279296875,-0.946533203125,-0.24658203125,-0.3658536672592163,0.396341472864151,0.18292683362960815,-0.30000001192092896,-21.299999237060547,7.050000190734863,39.88159942626953,0,
 351328,-0.112060546875,-0.94384765625,-0.246337890625,0.030487805604934692,0.24390244483947754,-0.24390244483947754,0.8999999761581421,-18.299999237060547,3.450000047683716,39.83367919921875,0,
 351338,-0.116455078125,-0.947509765625,-0.246337890625,-0.5487805008888245,-0.09146341681480408,-0.09146341681480408,0.8999999761581421,-18.299999237060547,3.450000047683716,39.977447509765625,0,
 351348,-0.11572265625,-0.948486328125,-0.24462890625,-0.3353658616542816,0.21341463923454285,-0.15243902802467346,0.15000000596046448,-22.350000381469727,8.399999618530273,40.07329177856445,0,
 351358,-0.122314453125,-0.94677734375,-0.246826171875,-0.4878048896789551,0.3658536672592163,0.4268292784690857,0.0,-22.950000762939453,5.25,39.737831115722656,0,
 351368,-0.11474609375,-0.948974609375,-0.248291015625,-0.3353658616542816,0.396341472864151,0.4268292784690857,-0.75,-19.799999237060547,7.050000190734863,40.025367736816406,0,
 351378,-0.111328125,-0.9423828125,-0.2470703125,-0.3048780560493469,0.4268292784690857,0.3353658616542816,-0.75,-19.799999237060547,7.050000190734863,40.07329177856445,0,
 351388,-0.11181640625,-0.94677734375,-0.24560546875,-0.3658536672592163,0.21341463923454285,0.24390244483947754,0.30000001192092896,-21.299999237060547,6.0,39.49821853637695,0,
 351398,-0.11474609375,-0.9482421875,-0.245361328125,-0.27439025044441223,-0.060975611209869385,0.396341472864151,-0.8999999761581421,-20.700000762939453,5.400000095367432,39.977447509765625,0,
 351408,-0.113037109375,-0.945068359375,-0.244140625,-0.6402438879013062,0.6097561120986938,0.6097561120986938,1.649999976158142,-21.899999618530273,5.400000095367432,39.88159942626953,0,
 351418,-0.121826171875,-0.94580078125,-0.247314453125,-0.6097561120986938,0.09146341681480408,0.7012194991111755,0.8999999761581421,-21.450000762939453,6.150000095367432,40.025367736816406,0,
 351428,-0.119140625,-0.947509765625,-0.24560546875,-0.4878048896789551,0.5792682766914368,0.5182926654815674,-0.15000000596046448,-21.899999618530273,4.199999809265137,40.025367736816406,0,
 351438,-0.111572265625,-0.948486328125,-0.246337890625,-0.6402438879013062,0.4878048896789551,0.21341463923454285,-1.5,-20.850000381469727,4.050000190734863,39.977447509765625,0,
 351448,-0.117431640625,-0.947998046875,-0.24267578125,-0.5182926654815674,0.3353658616542816,0.24390244483947754,-0.15000000596046448,-21.450000762939453,7.949999809265137,39.977447509765625,0,
 351458,-0.114013671875,-0.94384765625,-0.24755859375,-0.5182926654815674,0.24390244483947754,0.09146341681480408,1.5,-21.299999237060547,6.0,39.88159942626953,0,
 351468,-0.12158203125,-0.94677734375,-0.24755859375,-0.6402438879013062,0.6707317233085632,0.030487805604934692,1.5,-21.299999237060547,6.0,39.737831115722656,0,
 351478,-0.11279296875,-0.94873046875,-0.247314453125,-0.4268292784690857,0.6097561120986938,0.060975611209869385,0.8999999761581421,-21.149999618530273,5.400000095367432,39.88159942626953,0,
 351488,-0.11669921875,-0.947509765625,-0.2470703125,-0.5182926654815674,0.27439025044441223,0.18292683362960815,1.5,-21.75,6.0,39.88159942626953,0,
 351498,-0.117431640625,-0.94580078125,-0.248291015625,-0.396341472864151,0.4573170840740204,-0.030487805604934692,1.0499999523162842,-19.350000381469727,8.25,39.977447509765625,0,
 351508,-0.116455078125,-0.95263671875,-0.248291015625,-0.24390244483947754,0.060975611209869385,0.15243902802467346,1.0499999523162842,-19.350000381469727,8.25,40.07329177856445,0,
 351518,-0.118896484375,-0.947998046875,-0.243408203125,0.030487805604934692,0.27439025044441223,0.18292683362960815,0.44999998807907104,-19.950000762939453,6.150000095367432,39.977447509765625,0,
 351529,-0.1162109375,-0.948974609375,-0.244873046875,-0.18292683362960815,0.21341463923454285,0.3048780560493469,1.0499999523162842,-20.100000381469727,4.800000190734863,40.025367736816406,0,
 351539,-0.11767578125,-0.94873046875,-0.24951171875,-0.18292683362960815,0.3048780560493469,0.09146341681480408,0.0,-22.950000762939453,4.050000190734863,40.025367736816406,0,
 351549,-0.116943359375,-0.950439453125,-0.244384765625,-0.3048780560493469,0.21341463923454285,0.12195122241973877,0.0,-22.950000762939453,4.050000190734863,39.977447509765625,0,
 351559,-0.113525390625,-0.951904296875,-0.247802734375,-0.4878048896789551,0.3658536672592163,0.060975611209869385,1.2000000476837158,-21.899999618530273,6.900000095367432,39.977447509765625,0,
 351569,-0.113525390625,-0.946533203125,-0.243896484375,-0.3658536672592163,0.5792682766914368,0.060975611209869385,-0.15000000596046448,-21.899999618530273,6.150000095367432,40.07329177856445,0,
 351579,-0.114013671875,-0.947021484375,-0.24267578125,-0.4878048896789551,0.4878048896789551,0.09146341681480408,0.44999998807907104,-21.450000762939453,6.449999809265137,39.88159942626953,0,
 351589,-0.11572265625,-0.9521484375,-0.2509765625,-0.396341472864151,0.4878048896789551,0.3658536672592163,1.7999999523162842,-20.850000381469727,7.800000190734863,39.977447509765625,0,
 351599,-0.115234375,-0.94287109375,-0.242919921875,-0.24390244483947754,0.5182926654815674,0.18292683362960815,1.5,-21.75,6.75,40.264984130859375,0,
 351609,-0.118896484375,-0.938232421875,-0.24560546875,-0.24390244483947754,0.3658536672592163,0.12195122241973877,0.75,-20.850000381469727,7.5,40.07329177856445,0,
 351619,-0.108642578125,-0.9453125,-0.244384765625,0.030487805604934692,0.21341463923454285,-0.12195122241973877,0.30000001192092896,-20.549999237060547,6.0,39.689910888671875,0,
 351629,-0.119384765625,-0.94970703125,-0.244140625,-0.060975611209869385,0.4268292784690857,-0.09146341681480408,0.0,-20.549999237060547,7.5,39.737831115722656,0,
 351639,-0.1142578125,-0.947265625,-0.2529296875,-0.18292683362960815,0.27439025044441223,0.21341463923454285,0.0,-20.549999237060547,7.5,39.88159942626953,0,
 351649,-0.1162109375,-0.94775390625,-0.2431640625,-0.24390244483947754,0.09146341681480408,0.3658536672592163,-0.44999998807907104,-21.149999618530273,6.150000095367432,39.88159942626953,0,
 351659,-0.123779296875,-0.9482421875,-0.244873046875,-0.4573170840740204,0.3048780560493469,0.6097561120986938,-0.30000001192092896,-20.850000381469727,7.5,40.025367736816406,0,
 351669,-0.120361328125,-0.943603515625,-0.245849609375,-0.7621951103210449,0.4268292784690857,0.21341463923454285,0.15000000596046448,-20.700000762939453,6.900000095367432,39.88159942626953,0,
 351679,-0.115966796875,-0.95263671875,-0.24853515625,-0.3658536672592163,0.3048780560493469,0.6402438879013062,0.15000000596046448,-20.700000762939453,6.900000095367432,39.977447509765625,0,
 351689,-0.115966796875,-0.945556640625,-0.245849609375,-0.6402438879013062,0.4878048896789551,0.9756097793579102,1.0499999523162842,-20.850000381469727,6.0,40.07329177856445,0,
 351709,-0.11328125,-0.947509765625,-0.24658203125,-0.9451219439506531,0.6097561120986938,0.8231707215309143,0.30000001192092896,-21.299999237060547,6.300000190734863,39.88159942626953,0,
 351719,-0.116943359375,-0.942626953125,-0.24365234375,-0.5792682766914368,0.27439025044441223,0.5792682766914368,0.30000001192092896,-21.299999237060547,6.300000190734863,40.07329177856445,0,
 351729,-0.114501953125,-0.94775390625,-0.2451171875,-0.6402438879013062,0.5182926654815674,0.15243902802467346,1.5,-21.75,6.0,39.88159942626953,0,
 351739,-0.12109375,-0.94677734375,-0.239013671875,-0.3048780560493469,0.4573170840740204,0.09146341681480408,1.0499999523162842,-20.549999237060547,5.550000190734863,39.689910888671875,0,
 351749,-0.1181640625,-0.942138671875,-0.239990234375,-0.21341463923454285,0.21341463923454285,0.060975611209869385,2.4000000953674316,-20.700000762939453,6.900000095367432,39.83367919921875,0,
 351759,-0.114990234375,-0.948486328125,-0.248046875,-0.3658536672592163,0.21341463923454285,0.030487805604934692,-0.75,-23.25,5.550000190734863,40.025367736816406,0,
 351769,-0.120849609375,-0.949462890625,-0.241943359375,0.0,0.6707317233085632,-0.24390244483947754,0.75,-22.049999237060547,6.300000190734863,39.977447509765625,0,
 351779,-0.11669921875,-0.9453125,-0.24609375,-0.24390244483947754,0.4573170840740204,-0.3048780560493469,0.30000001192092896,-21.75,6.0,39.737831115722656,0,
 351789,-0.115966796875,-0.9482421875,-0.247802734375,-0.396341472864151,0.3658536672592163,0.030487805604934692,0.30000001192092896,-20.850000381469727,6.0,39.977447509765625,0,
 351799,-0.121337890625,-0.944580078125,-0.238525390625,-0.18292683362960815,0.4573170840740204,0.15243902802467346,1.649999976158142,-21.149999618530273,7.199999809265137,39.83367919921875,0,
 351809,-0.120849609375,-0.950927734375,-0.24658203125,-0.15243902802467346,0.060975611209869385,0.0,1.649999976158142,-21.149999618530273,7.199999809265137,39.977447509765625,0,
 351819,-0.118896484375,-0.946533203125,-0.249267578125,-0.030487805604934692,0.4878048896789551,0.24390244483947754,0.75,-22.950000762939453,7.050000190734863,40.025367736816406,0,
 351829,-0.118408203125,-0.945556640625,-0.242919921875,-0.15243902802467346,0.396341472864151,0.21341463923454285,0.8999999761581421,-21.450000762939453,6.150000095367432,39.689910888671875,0,
 351839,-0.11328125,-0.94384765625,-0.241943359375,-0.4573170840740204,-0.030487805604934692,0.3658536672592163,0.30000001192092896,-19.350000381469727,5.25,39.977447509765625,0,
 351849,-0.1142578125,-0.9453125,-0.244140625,-0.3658536672592163,0.12195122241973877,0.5792682766914368,0.30000001192092896,-19.350000381469727,5.25,39.88159942626953,0,
 351859,-0.114501953125,-0.9453125,-0.245849609375,-0.3353658616542816,0.4268292784690857,0.3658536672592163,-0.75,-22.5,5.550000190734863,39.88159942626953,0,
 351869,-0.116943359375,-0.94873046875,-0.242919921875,-0.4878048896789551,0.3048780560493469,0.27439025044441223,1.2000000476837158,-21.149999618530273,7.199999809265137,40.07329177856445,0,
 351879,-0.112548828125,-0.945068359375,-0.239501953125,-0.5487805008888245,0.3048780560493469,0.6402438879013062,-0.75,-22.049999237060547,6.75,39.64198684692383,0,
 351889,-0.1162109375,-0.9453125,-0.2412109375,-0.8231707215309143,0.24390244483947754,0.24390244483947754,-0.75,-22.049999237060547,6.75,39.737831115722656,0,
 351899,-0.116455078125,-0.945068359375,-0.241943359375,-0.4878048896789551,0.3658536672592163,0.4573170840740204,0.44999998807907104,-21.450000762939453,6.900000095367432,40.07329177856445,0,
 351909,-0.111572265625,-0.948486328125,-0.243408203125,-0.7621951103210449,0.5792682766914368,0.15243902802467346,0.15000000596046448,-21.149999618530273,5.699999809265137,39.977447509765625,0,
 351919,-0.114013671875,-0.947021484375,-0.243408203125,-0.7621951103210449,0.18292683362960815,0.4268292784690857,0.30000001192092896,-20.850000381469727,6.300000190734863,39.977447509765625,0,
 351929,-0.115478515625,-0.94970703125,-0.245849609375,-0.8231707215309143,0.3658536672592163,0.4268292784690857,0.15000000596046448,-21.899999618530273,5.699999809265137,39.737831115722656,0,
 351939,-0.12353515625,-0.948974609375,-0.242431640625,-0.9451219439506531,0.27439025044441223,0.21341463923454285,0.44999998807907104,-23.100000381469727,6.900000095367432,39.977447509765625,0,
 351949,-0.122314453125,-0.948974609375,-0.243896484375,-0.5792682766914368,0.3048780560493469,0.030487805604934692,0.44999998807907104,-21.149999618530273,4.650000095367432,40.025367736816406,0,
 351959,-0.1181640625,-0.94580078125,-0.243408203125,-0.3658536672592163,0.3353658616542816,-0.030487805604934692,-0.75,-21.299999237060547,4.800000190734863,39.977447509765625,0,
 351969,-0.11572265625,-0.951416015625,-0.246337890625,-0.6402438879013062,0.24390244483947754,0.0,0.30000001192092896,-19.799999237060547,7.050000190734863,40.025367736816406,0,
 351979,-0.114013671875,-0.944091796875,-0.245849609375,-0.4878048896789551,0.18292683362960815,0.4878048896789551,0.30000001192092896,-19.799999237060547,7.050000190734863,39.83367919921875,0,
 351989,-0.116943359375,-0.948486328125,-0.248046875,-0.18292683362960815,0.0,0.4573170840740204,0.15000000596046448,-20.25,6.900000095367432,40.025367736816406,0,
 351999,-0.117919921875,-0.949951171875,-0.243896484375,-0.060975611209869385,0.12195122241973877,0.15243902802467346,-0.15000000596046448,-21.450000762939453,7.650000095367432,39.88159942626953,0,
 352009,-0.11865234375,-0.94775390625,-0.2431640625,-0.4878048896789551,0.4268292784690857,0.09146341681480408,1.5,-20.850000381469727,4.5,40.07329177856445,0,
 352019,-0.12109375,-0.95068359375,-0.248046875,-0.7317073345184326,0.7621951103210449,0.4268292784690857,1.5,-20.850000381469727,4.5,39.83367919921875,0,
 352039,-0.118408203125,-0.9462890625,-0.248046875,-0.8231707215309143,0.4878048896789551,0.15243902802467346,0.0,-22.049999237060547,5.550000190734863,39.88159942626953,0,
 352049,-0.11865234375,-0.943115234375,-0.247802734375,-0.6707317233085632,0.27439025044441223,0.3048780560493469,-1.0499999523162842,-22.049999237060547,6.0,39.977447509765625,0,
 352059,-0.118408203125,-0.947998046875,-0.24853515625,-0.4878048896789551,0.27439025044441223,0.4573170840740204,-1.0499999523162842,-22.049999237060547,6.0,39.977447509765625,0,
 352069,-0.118896484375,-0.944091796875,-0.246337890625,-0.6097561120986938,0.24390244483947754,0.5792682766914368,0.0,-20.549999237060547,6.300000190734863,39.737831115722656,0,
 352079,-0.11474609375,-0.944580078125,-0.247314453125,-0.030487805604934692,0.21341463923454285,0.4573170840740204,-0.15000000596046448,-20.25,6.449999809265137,39.83367919921875,0,
 352089,-0.12158203125,-0.9482421875,-0.242919921875,0.030487805604934692,0.09146341681480408,0.21341463923454285,-0.15000000596046448,-22.649999618530273,6.449999809265137,39.83367919921875,0,
 352099,-0.11669921875,-0.94775390625,-0.240966796875,0.030487805604934692,0.6707317233085632,0.5182926654815674,1.0499999523162842,-21.299999237060547,4.800000190734863,39.977447509765625,0,
 352109,-0.11767578125,-0.94873046875,-0.248291015625,-0.4573170840740204,0.12195122241973877,0.24390244483947754,0.30000001192092896,-21.75,6.75,39.977447509765625,0,
 352129,-0.1171875,-0.945556640625,-0.243896484375,-0.6097561120986938,0.3048780560493469,0.27439025044441223,1.649999976158142,-20.25,7.650000095367432,40.025367736816406,0,
 352139,-0.118896484375,-0.944091796875,-0.248291015625,-0.5182926654815674,0.27439025044441223,0.4573170840740204,-1.0499999523162842,-20.850000381469727,7.800000190734863,39.977447509765625,0,
 352159,-0.115234375,-0.955078125,-0.24365234375,-0.3353658616542816,0.396341472864151,-0.030487805604934692,1.2000000476837158,-21.450000762939453,6.449999809265137,40.07329177856445,0,
 352169,-0.118408203125,-0.943115234375,-0.244873046875,-1.0060975551605225,0.4573170840740204,0.4573170840740204,0.15000000596046448,-19.5,6.150000095367432,39.737831115722656,0,
 352179,-0.11865234375,-0.94482421875,-0.244873046875,-0.5182926654815674,0.5487805008888245,0.09146341681480408,0.75,-21.299999237060547,6.300000190734863,39.977447509765625,0,
 352189,-0.111083984375,-0.948486328125,-0.244873046875,-0.3048780560493469,0.4268292784690857,0.3658536672592163,0.75,-21.299999237060547,6.300000190734863,40.16913604736328,0,
 352199,-0.12109375,-0.9404296875,-0.244384765625,-0.12195122241973877,0.6707317233085632,0.18292683362960815,1.5,-20.100000381469727,6.300000190734863,39.737831115722656,0,
 352209,-0.119873046875,-0.944580078125,-0.24609375,-0.5182926654815674,0.5182926654815674,0.18292683362960815,0.30000001192092896,-22.950000762939453,7.050000190734863,39.88159942626953,0,
 352219,-0.114990234375,-0.95166015625,-0.240478515625,-0.3048780560493469,0.4268292784690857,0.27439025044441223,0.44999998807907104,-21.450000762939453,7.650000095367432,39.737831115722656,0,
 352229,-0.123779296875,-0.945556640625,-0.243408203125,0.09146341681480408,0.4268292784690857,0.4878048896789551,0.44999998807907104,-21.450000762939453,7.650000095367432,39.88159942626953,0,
 352239,-0.1162109375,-0.951416015625,-0.237548828125,0.0,0.3048780560493469,0.3048780560493469,1.5,-20.549999237060547,6.300000190734863,40.025367736816406,0,
 352260,-0.115234375,-0.947509765625,-0.24609375,-0.15243902802467346,0.396341472864151,0.3353658616542816,0.75,-22.5,6.0,39.88159942626953,0,
 352270,-0.1220703125,-0.948486328125,-0.23779296875,-0.15243902802467346,0.4573170840740204,-0.12195122241973877,0.15000000596046448,-20.25,5.699999809265137,39.689910888671875,0,
 352280,-0.121337890625,-0.9453125,-0.2421875,-0.12195122241973877,0.060975611209869385,0.27439025044441223,1.0499999523162842,-20.850000381469727,5.25,40.025367736816406,0,
 352290,-0.115478515625,-0.9501953125,-0.2392578125,-0.09146341681480408,0.4878048896789551,0.27439025044441223,0.75,-22.5,6.300000190734863,39.83367919921875,0,
 352300,-0.1162109375,-0.9501953125,-0.243896484375,-0.3048780560493469,0.27439025044441223,0.18292683362960815,-0.30000001192092896,-19.799999237060547,5.550000190734863,39.737831115722656,0,
 352310,-0.115966796875,-0.943115234375,-0.248779296875,-0.4878048896789551,0.15243902802467346,0.24390244483947754,0.75,-22.5,6.75,40.025367736816406,0,
 352320,-0.117919921875,-0.952392578125,-0.243896484375,-0.4573170840740204,0.3658536672592163,0.5487805008888245,0.75,-22.5,6.75,39.737831115722656,0,
 352330,-0.1083984375,-0.950439453125,-0.236083984375,-0.6402438879013062,0.27439025044441223,0.4268292784690857,0.75,-20.549999237060547,6.300000190734863,39.88159942626953,0,
 352340,-0.11767578125,-0.950439453125,-0.245361328125,-0.4268292784690857,0.396341472864151,0.4268292784690857,1.2000000476837158,-21.149999618530273,5.699999809265137,39.88159942626953,0,
 352350,-0.114990234375,-0.947509765625,-0.245361328125,-0.8536585569381714,0.3658536672592163,0.27439025044441223,-0.75,-19.799999237060547,5.25,39.88159942626953,0,
 352360,-0.1181640625,-0.947998046875,-0.24462890625,-0.5182926654815674,0.21341463923454285,0.3658536672592163,-0.75,-19.799999237060547,5.25,39.88159942626953,0,
 352370,-0.1142578125,-0.949951171875,-0.245849609375,-0.6707317233085632,0.4878048896789551,0.6097561120986938,2.0999999046325684,-21.149999618530273,6.900000095367432,39.737831115722656,0,
 352380,-0.117431640625,-0.948486328125,-0.241943359375,-0.9146341681480408,0.3048780560493469,0.6707317233085632,0.15000000596046448,-20.25,6.900000095367432,39.88159942626953,0,
 352390,-0.115966796875,-0.9482421875,-0.2412109375,-0.5182926654815674,0.24390244483947754,0.6402438879013062,1.2000000476837158,-20.700000762939453,5.699999809265137,39.88159942626953,0,
 352400,-0.115966796875,-0.939697265625,-0.24609375,-0.792682945728302,0.18292683362960815,0.24390244483947754,1.2000000476837158,-20.700000762939453,5.699999809265137,39.88159942626953,0,
 352410,-0.11767578125,-0.94384765625,-0.24560546875,-0.5182926654815674,0.5182926654815674,0.0,-0.15000000596046448,-21.149999618530273,7.199999809265137,39.88159942626953,0,
 352420,-0.1201171875,-0.94580078125,-0.24853515625,-0.3658536672592163,0.396341472864151,0.27439025044441223,1.7999999523162842,-21.299999237060547,6.75,39.737831115722656,0,
 352430,-0.11767578125,-0.94287109375,-0.245849609375,-0.4268292784690857,0.4573170840740204,-0.030487805604934692,0.8999999761581421,-21.899999618530273,5.699999809265137,40.025367736816406,0,
 352440,-0.11083984375,-0.951171875,-0.24267578125,-0.27439025044441223,0.5487805008888245,0.12195122241973877,0.8999999761581421,-21.149999618530273,4.949999809265137,39.83367919921875,0,
 352450,-0.11962890625,-0.95068359375,-0.24072265625,-0.3353658616542816,0.27439025044441223,0.18292683362960815,0.8999999761581421,-21.149999618530273,4.949999809265137,39.88159942626953,0,
 352460,-0.11279296875,-0.94580078125,-0.246826171875,-0.7317073345184326,0.15243902802467346,0.09146341681480408,0.30000001192092896,-23.25,4.5,39.977447509765625,0,
 352470,-0.117919921875,-0.9482421875,-0.240478515625,-0.5487805008888245,0.27439025044441223,0.21341463923454285,0.8999999761581421,-19.5,5.400000095367432,40.07329177856445,0,
 352480,-0.113037109375,-0.947998046875,-0.24267578125,-0.4878048896789551,0.3048780560493469,0.060975611209869385,0.75,-22.049999237060547,6.300000190734863,39.977447509765625,0,
 352490,-0.114501953125,-0.940185546875,-0.240966796875,-0.27439025044441223,0.060975611209869385,0.27439025044441223,0.75,-22.049999237060547,6.300000190734863,40.025367736816406,0,
 352500,-0.11572265625,-0.942138671875,-0.245849609375,0.060975611209869385,0.18292683362960815,-0.21341463923454285,1.5,-19.799999237060547,6.300000190734863,39.977447509765625,0,
 352510,-0.11083984375,-0.947021484375,-0.244873046875,-0.24390244483947754,-0.12195122241973877,-0.12195122241973877,0.30000001192092896,-22.5,6.75,39.689910888671875,0,
