timestamp,accl_x,accl_y,accl_z,gyro_x,gyro_y,gyro_z,mag_x,mag_y,mag_z,temp,emg,
 531075,-0.002197265625,-0.9609375,-0.202880859375,-0.6402438879013062,0.6707317233085632,0.21341463923454285,0.8999999761581421,-21.450000762939453,6.449999809265137,40.50459671020508,0,
 531085,0.000244140625,-0.95703125,-0.2001953125,-1.0365853309631348,0.6707317233085632,0.3353658616542816,0.15000000596046448,-21.450000762939453,6.900000095367432,40.16913604736328,0,
 531095,-0.0048828125,-0.966796875,-0.1982421875,-0.6707317233085632,0.4268292784690857,0.24390244483947754,0.15000000596046448,-21.450000762939453,6.900000095367432,40.264984130859375,0,
 531105,-0.000732421875,-0.95947265625,-0.203369140625,-1.0060975551605225,0.5792682766914368,0.4573170840740204,-0.15000000596046448,-21.450000762939453,6.449999809265137,40.3608283996582,0,
 531115,-0.003173828125,-0.958984375,-0.206298828125,-0.8231707215309143,0.4878048896789551,0.18292683362960815,0.8999999761581421,-21.450000762939453,5.699999809265137,40.264984130859375,0,
 531125,-0.00537109375,-0.962158203125,-0.20166015625,-0.8536585569381714,0.4573170840740204,0.4268292784690857,0.75,-21.299999237060547,6.300000190734863,40.264984130859375,0,
 531135,-0.001708984375,-0.95947265625,-0.19677734375,-0.9146341681480408,0.5792682766914368,0.4268292784690857,0.75,-21.299999237060547,6.300000190734863,40.07329177856445,0,
 531145,-0.0029296875,-0.961181640625,-0.20263671875,-1.3719512224197388,0.18292683362960815,0.3353658616542816,0.30000001192092896,-19.799999237060547,6.300000190734863,40.3608283996582,0,
 531155,0.0009765625,-0.9580078125,-0.200927734375,-0.9451219439506531,0.6402438879013062,0.3658536672592163,0.8999999761581421,-19.950000762939453,6.449999809265137,40.3608283996582,0,
 531165,0.001220703125,-0.95361328125,-0.201416015625,-0.4573170840740204,0.4573170840740204,0.09146341681480408,0.44999998807907104,-21.899999618530273,5.699999809265137,40.552520751953125,0,
 531175,-0.00146484375,-0.961669921875,-0.207763671875,-0.396341472864151,0.4878048896789551,0.3048780560493469,1.5,-20.850000381469727,5.550000190734863,40.16913604736328,0,
 531185,-0.009033203125,-0.964599609375,-0.199462890625,-0.5182926654815674,0.21341463923454285,0.27439025044441223,1.5,-20.850000381469727,5.550000190734863,40.21706008911133,0,
 531195,-0.000244140625,-0.95849609375,-0.204345703125,-0.9146341681480408,0.5182926654815674,0.3048780560493469,1.0499999523162842,-22.5,7.050000190734863,40.40875244140625,0,
 531205,0.000244140625,-0.964111328125,-0.199951171875,-0.5792682766914368,0.3353658616542816,0.5487805008888245,-0.30000001192092896,-20.850000381469727,5.25,40.264984130859375,0,
 531215,-0.00390625,-0.961181640625,-0.19775390625,-0.4878048896789551,0.4268292784690857,0.792682945728302,0.15000000596046448,-20.700000762939453,6.449999809265137,40.3608283996582,0,
 531225,0.001708984375,-0.9482421875,-0.19873046875,-0.8536585569381714,0.5792682766914368,0.5792682766914368,0.15000000596046448,-20.700000762939453,6.449999809265137,40.3608283996582,0,
 531235,0.008056640625,-0.96484375,-0.193603515625,-1.432926893234253,0.6402438879013062,1.9512195587158203,0.15000000596046448,-19.950000762939453,5.400000095367432,40.40875244140625,0,
 531245,-0.009765625,-0.967041015625,-0.2001953125,-2.0426828861236572,0.792682945728302,1.9817073345184326,2.549999952316284,-22.5,6.75,40.264984130859375,0,
 531255,-0.00927734375,-0.9609375,-0.207763671875,-1.920731782913208,1.0365853309631348,2.4695122241973877,0.8999999761581421,-20.25,6.449999809265137,40.552520751953125,0,
 531265,0.003662109375,-0.950439453125,-0.20703125,-1.6158536672592163,0.6707317233085632,2.7134146690368652,0.8999999761581421,-20.25,6.449999809265137,40.40875244140625,0,
 531275,-0.00732421875,-0.962158203125,-0.2021484375,-1.585365891456604,1.0060975551605225,2.22560977935791,0.8999999761581421,-20.700000762939453,7.650000095367432,39.88159942626953,0,
 531285,-0.000732421875,-0.951904296875,-0.208251953125,-0.4573170840740204,0.792682945728302,2.682926893234253,0.8999999761581421,-22.350000381469727,4.949999809265137,40.50459671020508,0,
 531295,0.002197265625,-0.953369140625,-0.210693359375,-0.4878048896789551,0.6097561120986938,3.0182926654815674,0.0,-20.549999237060547,6.0,40.40875244140625,0,
 531325,-0.00341796875,-0.9482421875,-0.2021484375,0.3353658616542816,0.7621951103210449,5.060975551605225,0.15000000596046448,-21.149999618530273,6.900000095367432,40.21706008911133,0,
 531345,-0.0009765625,-0.947021484375,-0.2099609375,2.2560975551605225,0.27439025044441223,5.70121955871582,0.30000001192092896,-19.350000381469727,7.5,40.50459671020508,0,
 531355,-0.0068359375,-0.9521484375,-0.20166015625,4.115853786468506,-0.060975611209869385,5.640244007110596,0.15000000596046448,-22.350000381469727,6.150000095367432,40.40875244140625,0,
 531365,-0.007568359375,-0.9580078125,-0.1884765625,4.054878234863281,-0.060975611209869385,5.853658676147461,1.5,-21.299999237060547,6.0,40.3608283996582,0,
 531375,-0.000244140625,-0.941650390625,-0.1962890625,3.079268455505371,-0.030487805604934692,6.006097793579102,2.25,-20.549999237060547,8.550000190734863,40.50459671020508,0,
 531385,0.00048828125,-0.987060546875,-0.185546875,2.7134146690368652,-0.15243902802467346,6.341463565826416,1.2000000476837158,-20.700000762939453,6.900000095367432,40.3608283996582,0,
 531395,-0.03125,-0.998291015625,-0.1806640625,-0.9756097793579102,0.7317073345184326,9.237805366516113,1.2000000476837158,-20.700000762939453,6.900000095367432,40.60044479370117,0,
 531405,-0.0302734375,-0.9794921875,-0.199462890625,-3.6890244483947754,1.7987805604934692,9.17682933807373,0.30000001192092896,-19.799999237060547,6.0,40.3608283996582,0,
 531415,-0.01171875,-0.94921875,-0.212158203125,-4.817073345184326,2.012195110321045,8.384146690368652,0.0,-21.75,4.800000190734863,40.50459671020508,0,
 531425,-0.0185546875,-0.9501953125,-0.210693359375,-3.262195110321045,1.3414634466171265,8.506097793579102,2.4000000953674316,-19.950000762939453,6.900000095367432,40.16913604736328,0,
 531435,-0.010498046875,-0.953369140625,-0.206298828125,-2.103658676147461,1.0060975551605225,7.835366249084473,2.4000000953674316,-19.950000762939453,6.900000095367432,40.3608283996582,0,
 531445,-0.02490234375,-0.970703125,-0.199951171875,-1.2195122241973877,0.3353658616542816,7.77439022064209,2.0999999046325684,-20.700000762939453,2.4000000953674316,40.3608283996582,0,
 531455,-0.030517578125,-0.97216796875,-0.194091796875,-2.5,0.3048780560493469,7.22560977935791,2.0999999046325684,-20.25,6.449999809265137,40.21706008911133,0,
 531465,-0.027587890625,-0.962158203125,-0.197021484375,-3.47560977935791,0.3048780560493469,6.310975551605225,2.0999999046325684,-20.700000762939453,5.400000095367432,40.40875244140625,0,
 531475,-0.03271484375,-0.9775390625,-0.197998046875,-4.878048896789551,0.5182926654815674,5.945122241973877,2.0999999046325684,-20.700000762939453,5.400000095367432,40.3608283996582,0,
 531485,-0.03564453125,-0.976318359375,-0.199951171875,-5.8231706619262695,0.7012194991111755,5.670732021331787,0.15000000596046448,-21.450000762939453,6.150000095367432,40.50459671020508,0,
 531495,-0.03125,-0.97412109375,-0.20361328125,-6.890244007110596,1.1585365533828735,4.72560977935791,0.44999998807907104,-21.450000762939453,8.399999618530273,40.552520751953125,0,
 531505,-0.02734375,-0.9716796875,-0.198974609375,-8.109756469726562,1.3109756708145142,4.939024448394775,0.15000000596046448,-19.5,7.199999809265137,40.3608283996582,0,
 531515,-0.029052734375,-0.960693359375,-0.2119140625,-8.292682647705078,1.4634146690368652,5.091463565826416,0.15000000596046448,-19.5,7.199999809265137,40.40875244140625,0,
 531525,-0.03125,-0.9541015625,-0.214111328125,-8.47560977935791,1.3414634466171265,4.786585330963135,0.75,-21.299999237060547,5.550000190734863,40.21706008911133,0,
 531545,-0.031005859375,-0.957763671875,-0.21240234375,-6.6768293380737305,1.0670732259750366,4.634146213531494,3.0,-21.75,3.299999952316284,40.264984130859375,0,
 531555,-0.03369140625,-0.951904296875,-0.21728515625,-5.70121955871582,0.8231707215309143,4.29878044128418,2.549999952316284,-21.75,5.25,40.60044479370117,0,
 531565,-0.03125,-0.944091796875,-0.220703125,-5.060975551605225,0.9451219439506531,2.896341562271118,1.7999999523162842,-22.049999237060547,6.0,40.40875244140625,0,
 531575,-0.0390625,-0.957763671875,-0.21533203125,-3.5975611209869385,0.6097561120986938,2.2560975551605225,2.4000000953674316,-19.950000762939453,7.199999809265137,40.16913604736328,0,
 531585,-0.037109375,-0.9619140625,-0.21923828125,-3.1402440071105957,0.6097561120986938,1.8597561120986938,1.2000000476837158,-21.899999618530273,6.449999809265137,40.40875244140625,0,
 531595,-0.037109375,-0.96435546875,-0.209228515625,-3.3231709003448486,0.9451219439506531,1.432926893234253,0.44999998807907104,-19.950000762939453,6.449999809265137,40.40875244140625,0,
 531606,-0.033935546875,-0.9599609375,-0.208984375,-3.75,1.4634146690368652,0.396341472864151,0.44999998807907104,-19.950000762939453,6.449999809265137,40.3608283996582,0,
 531616,-0.030517578125,-0.956298828125,-0.220703125,-4.2682929039001465,1.2804877758026123,0.3658536672592163,3.299999952316284,-20.549999237060547,6.75,40.40875244140625,0,
 531626,-0.03125,-0.945556640625,-0.2255859375,-3.445122003555298,1.25,0.5487805008888245,0.30000001192092896,-20.549999237060547,6.75,40.21706008911133,0,
 531636,-0.030517578125,-0.9375,-0.22705078125,-1.6768293380737305,1.1890244483947754,0.3353658616542816,-0.44999998807907104,-20.25,6.900000095367432,40.025367736816406,0,
 531646,-0.03515625,-0.94384765625,-0.21923828125,0.18292683362960815,0.3353658616542816,-0.09146341681480408,-0.44999998807907104,-20.25,6.900000095367432,40.264984130859375,0,
 531666,-0.03076171875,-0.95361328125,-0.21044921875,2.7134146690368652,-0.21341463923454285,-0.792682945728302,1.7999999523162842,-18.600000381469727,4.050000190734863,40.21706008911133,0,
 531686,-0.03515625,-0.9609375,-0.20947265625,2.408536672592163,-0.030487805604934692,-0.8536585569381714,0.30000001192092896,-22.049999237060547,8.25,40.3608283996582,0,
 531696,-0.0322265625,-0.962158203125,-0.21142578125,1.585365891456604,0.030487805604934692,-1.3414634466171265,1.2000000476837158,-21.899999618530273,6.150000095367432,40.40875244140625,0,
 531706,-0.0302734375,-0.959716796875,-0.213134765625,1.9512195587158203,0.18292683362960815,-1.6768293380737305,1.0499999523162842,-21.75,6.75,40.50459671020508,0,
 531716,-0.034912109375,-0.957763671875,-0.215087890625,2.408536672592163,0.27439025044441223,-1.9817073345184326,2.8499999046325684,-22.649999618530273,6.150000095367432,40.40875244140625,0,
 531726,-0.033203125,-0.94775390625,-0.218994140625,3.5060975551605225,0.060975611209869385,-2.22560977935791,2.8499999046325684,-22.649999618530273,6.150000095367432,40.16913604736328,0,
 531736,-0.039306640625,-0.95654296875,-0.214599609375,4.72560977935791,-0.15243902802467346,-3.3231709003448486,1.5,-23.25,6.300000190734863,40.40875244140625,0,
 531746,-0.037841796875,-0.956787109375,-0.21435546875,5.121951103210449,0.0,-4.02439022064209,2.25,-21.299999237060547,7.050000190734863,40.21706008911133,0,
 531766,-0.0263671875,-0.96435546875,-0.20361328125,5.579268455505371,-0.4573170840740204,-5.121951103210449,1.5,-20.850000381469727,6.300000190734863,40.16913604736328,0,
 531776,-0.021728515625,-0.97119140625,-0.201171875,4.054878234863281,-0.27439025044441223,-5.091463565826416,-0.15000000596046448,-19.5,7.199999809265137,40.3608283996582,0,
 531786,-0.025146484375,-0.970458984375,-0.201171875,2.3475611209869385,0.0,-4.512195110321045,0.8999999761581421,-20.25,6.150000095367432,40.264984130859375,0,
 531796,-0.027099609375,-0.97412109375,-0.198486328125,1.402438998222351,0.15243902802467346,-3.7195122241973877,1.649999976158142,-22.350000381469727,6.900000095367432,40.40875244140625,0,
 531806,-0.015380859375,-0.97314453125,-0.202880859375,0.24390244483947754,0.24390244483947754,-2.2560975551605225,1.7999999523162842,-20.850000381469727,6.300000190734863,40.40875244140625,0,
 531816,-0.023193359375,-0.965087890625,-0.2119140625,0.27439025044441223,0.4268292784690857,-1.3414634466171265,1.7999999523162842,-20.850000381469727,6.300000190734863,40.21706008911133,0,
 531826,-0.021240234375,-0.961669921875,-0.207763671875,0.3658536672592163,0.5792682766914368,-0.4878048896789551,0.75,-20.549999237060547,6.75,40.50459671020508,0,
 531836,-0.0224609375,-0.95751953125,-0.20654296875,0.7317073345184326,0.15243902802467346,0.15243902802467346,0.30000001192092896,-20.549999237060547,6.75,40.264984130859375,0,
 531846,-0.030029296875,-0.95849609375,-0.204345703125,1.0060975551605225,0.5487805008888245,0.18292683362960815,0.75,-19.799999237060547,6.300000190734863,40.60044479370117,0,
 531856,-0.021240234375,-0.948974609375,-0.20654296875,0.6402438879013062,0.5487805008888245,0.24390244483947754,0.75,-19.799999237060547,6.300000190734863,40.552520751953125,0,
 531866,-0.027099609375,-0.956787109375,-0.206787109375,0.9756097793579102,0.8536585569381714,0.030487805604934692,0.44999998807907104,-21.149999618530273,5.400000095367432,40.264984130859375,0,
 531876,-0.02978515625,-0.959228515625,-0.211181640625,0.6707317233085632,0.8841463327407837,-0.27439025044441223,0.8999999761581421,-22.350000381469727,4.199999809265137,40.552520751953125,0,
 531886,-0.023681640625,-0.95947265625,-0.205078125,0.15243902802467346,0.9146341681480408,-0.6097561120986938,1.7999999523162842,-20.850000381469727,6.0,40.552520751953125,0,
 531896,-0.016357421875,-0.960693359375,-0.20068359375,0.5487805008888245,0.792682945728302,-0.5182926654815674,1.7999999523162842,-20.850000381469727,6.0,40.16913604736328,0,
 531906,-0.018310546875,-0.960205078125,-0.201171875,0.24390244483947754,0.8841463327407837,-0.3048780560493469,1.0499999523162842,-21.299999237060547,6.300000190734863,40.50459671020508,0,
 531916,-0.01708984375,-0.96044921875,-0.20556640625,0.21341463923454285,0.7012194991111755,-0.15243902802467346,1.0499999523162842,-20.850000381469727,6.300000190734863,40.50459671020508,0,
 531926,-0.015625,-0.95166015625,-0.209228515625,0.24390244483947754,0.5792682766914368,0.396341472864151,1.0499999523162842,-22.5,8.25,40.50459671020508,0,
 531936,-0.016357421875,-0.950927734375,-0.205810546875,1.097561001777649,0.6097561120986938,0.4268292784690857,1.0499999523162842,-22.5,8.25,40.50459671020508,0,
 531946,-0.01953125,-0.947998046875,-0.208984375,1.2804877758026123,0.4573170840740204,0.4878048896789551,0.75,-21.75,7.5,40.3608283996582,0,
 531966,-0.026611328125,-0.965087890625,-0.201416015625,3.4146342277526855,-0.27439025044441223,0.8536585569381714,0.15000000596046448,-19.5,5.699999809265137,40.16913604736328,0,
 531976,-0.023193359375,-0.969482421875,-0.193603515625,2.8353660106658936,-0.12195122241973877,0.5487805008888245,1.2000000476837158,-20.700000762939453,5.699999809265137,40.3608283996582,0,
 531986,-0.030029296875,-0.97314453125,-0.197021484375,1.2804877758026123,0.3658536672592163,0.030487805604934692,1.0499999523162842,-20.850000381469727,6.75,40.3608283996582,0,
 531996,-0.03125,-0.97119140625,-0.19677734375,0.3353658616542816,0.4268292784690857,-0.030487805604934692,0.30000001192092896,-21.299999237060547,6.300000190734863,40.50459671020508,0,
 532006,-0.030029296875,-0.971923828125,-0.202880859375,-1.3719512224197388,0.6402438879013062,-0.4573170840740204,0.15000000596046448,-19.5,6.900000095367432,40.3608283996582,0,
 532016,-0.023681640625,-0.968994140625,-0.1982421875,-1.8597561120986938,1.25,-0.7621951103210449,2.0999999046325684,-21.149999618530273,6.900000095367432,40.16913604736328,0,
 532026,-0.02099609375,-0.954345703125,-0.203125,-1.737804889678955,0.9146341681480408,-0.9756097793579102,2.0999999046325684,-21.149999618530273,6.900000095367432,40.21706008911133,0,
 532036,-0.02099609375,-0.952880859375,-0.2001953125,-1.5243902206420898,1.0670732259750366,-0.8231707215309143,1.7999999523162842,-19.799999237060547,5.25,40.40875244140625,0,
 532046,-0.023681640625,-0.957763671875,-0.205078125,-1.4634146690368652,0.9756097793579102,-0.7621951103210449,0.15000000596046448,-19.5,6.900000095367432,40.21706008911133,0,
 532066,-0.021484375,-0.967041015625,-0.2021484375,-0.6097561120986938,0.6707317233085632,-1.2804877758026123,1.5,-18.149999618530273,3.75,40.025367736816406,0,
 532076,-0.022216796875,-0.95703125,-0.201416015625,-0.7012194991111755,0.7317073345184326,-1.6768293380737305,3.0,-19.350000381469727,7.050000190734863,40.552520751953125,0,
 532086,-0.019775390625,-0.964599609375,-0.208251953125,-1.0365853309631348,1.0060975551605225,-1.585365891456604,0.44999998807907104,-19.950000762939453,5.699999809265137,40.3608283996582,0,
 532096,-0.01953125,-0.96533203125,-0.199462890625,-1.737804889678955,0.8536585569381714,-1.9512195587158203,0.30000001192092896,-20.549999237060547,5.550000190734863,40.552520751953125,0,
 532106,-0.024658203125,-0.966064453125,-0.196533203125,-3.1402440071105957,0.8231707215309143,-1.9817073345184326,0.30000001192092896,-20.549999237060547,5.550000190734863,40.3608283996582,0,
 532116,-0.016845703125,-0.96875,-0.1943359375,-3.262195110321045,0.7621951103210449,-1.9512195587158203,0.75,-20.100000381469727,6.75,40.3608283996582,0,
 532126,-0.013916015625,-0.964111328125,-0.20458984375,-3.7195122241973877,0.9756097793579102,-1.585365891456604,2.549999952316284,-19.350000381469727,7.800000190734863,40.50459671020508,0,
 532136,-0.01953125,-0.964599609375,-0.206787109375,-4.420732021331787,0.8231707215309143,-1.8597561120986938,1.2000000476837158,-21.899999618530273,4.199999809265137,40.3608283996582,0,
 532146,-0.019775390625,-0.965087890625,-0.2001953125,-5.121951103210449,1.0670732259750366,-1.7073171138763428,1.2000000476837158,-21.899999618530273,4.199999809265137,40.3608283996582,0,
 532156,-0.023193359375,-0.962158203125,-0.202880859375,-4.969512462615967,0.9451219439506531,-2.0426828861236572,1.5,-20.100000381469727,5.550000190734863,40.21706008911133,0,
 532166,-0.020263671875,-0.959716796875,-0.20703125,-4.45121955871582,1.1585365533828735,-1.9512195587158203,0.8999999761581421,-21.450000762939453,6.150000095367432,40.3608283996582,0,
 532186,-0.01416015625,-0.953125,-0.212890625,-4.02439022064209,0.5182926654815674,-1.737804889678955,1.649999976158142,-20.700000762939453,7.199999809265137,40.3608283996582,0,
 532196,-0.011474609375,-0.955322265625,-0.212158203125,-3.5975611209869385,0.6097561120986938,-1.25,1.2000000476837158,-20.700000762939453,6.449999809265137,40.3608283996582,0,
 532206,-0.017822265625,-0.959716796875,-0.21240234375,-3.841463565826416,0.6097561120986938,-0.8536585569381714,0.75,-21.75,8.550000190734863,40.16913604736328,0,
 532216,-0.01123046875,-0.957275390625,-0.2060546875,-4.359755992889404,0.4268292784690857,-0.5487805008888245,1.0499999523162842,-19.350000381469727,6.300000190734863,40.3608283996582,0,
 532226,-0.00927734375,-0.960693359375,-0.212890625,-4.5731706619262695,0.3048780560493469,-0.4878048896789551,-0.15000000596046448,-20.25,4.949999809265137,40.3608283996582,0,
 532236,-0.01416015625,-0.96728515625,-0.2060546875,-4.847560882568359,0.5487805008888245,-0.6707317233085632,-0.15000000596046448,-20.25,4.949999809265137,40.264984130859375,0,
 532246,-0.016357421875,-0.963623046875,-0.2109375,-5.54878044128418,0.4573170840740204,-0.6402438879013062,0.0,-20.549999237060547,6.75,40.40875244140625,0,
 532256,-0.0185546875,-0.961669921875,-0.202880859375,-5.792683124542236,0.3658536672592163,-0.9451219439506531,0.15000000596046448,-19.5,7.650000095367432,40.21706008911133,0,
 532266,-0.019775390625,-0.9697265625,-0.214111328125,-7.012195110321045,0.7012194991111755,-1.0060975551605225,2.0999999046325684,-23.100000381469727,3.450000047683716,40.3608283996582,0,
 532276,-0.019287109375,-0.970947265625,-0.213623046875,-7.22560977935791,0.7621951103210449,-0.8536585569381714,2.0999999046325684,-23.100000381469727,3.450000047683716,40.264984130859375,0,
 532286,-0.019287109375,-0.961669921875,-0.214111328125,-8.32317066192627,0.8536585569381714,-2.0426828861236572,2.4000000953674316,-21.450000762939453,6.900000095367432,40.3608283996582,0,
 532296,-0.013916015625,-0.955078125,-0.21826171875,-8.993902206420898,1.1585365533828735,-1.6768293380737305,0.30000001192092896,-22.049999237060547,5.25,40.264984130859375,0,
 532306,-0.01416015625,-0.95263671875,-0.221923828125,-9.054878234863281,1.097561001777649,-1.737804889678955,1.0499999523162842,-20.100000381469727,6.300000190734863,40.07329177856445,0,
 532316,-0.013671875,-0.948974609375,-0.22607421875,-8.658536911010742,1.0365853309631348,-1.1890244483947754,1.0499999523162842,-20.100000381469727,6.300000190734863,40.3608283996582,0,
 532326,-0.011474609375,-0.95947265625,-0.223876953125,-8.353658676147461,0.8231707215309143,-0.6097561120986938,1.649999976158142,-20.700000762939453,7.199999809265137,40.264984130859375,0,
 532336,-0.010986328125,-0.95361328125,-0.22705078125,-7.560975551605225,0.9756097793579102,-0.396341472864151,1.5,-21.299999237060547,6.300000190734863,40.3608283996582,0,
 532346,-0.013916015625,-0.9521484375,-0.229248046875,-7.560975551605225,1.0365853309631348,-0.3048780560493469,1.2000000476837158,-21.450000762939453,5.699999809265137,40.50459671020508,0,
 532356,-0.010009765625,-0.9580078125,-0.225830078125,-7.195122241973877,0.792682945728302,-0.18292683362960815,1.2000000476837158,-21.450000762939453,5.699999809265137,40.07329177856445,0,
 532366,-0.010498046875,-0.955810546875,-0.231689453125,-7.5,1.25,-0.030487805604934692,-0.8999999761581421,-21.149999618530273,1.9500000476837158,40.3608283996582,0,
 532376,-0.018798828125,-0.949462890625,-0.229248046875,-7.0731706619262695,1.0365853309631348,0.0,1.0499999523162842,-22.5,6.0,40.50459671020508,0,
 532386,-0.015380859375,-0.951416015625,-0.228515625,-6.5853657722473145,1.3414634466171265,0.15243902802467346,0.15000000596046448,-22.350000381469727,6.900000095367432,40.21706008911133,0,
 532396,-0.01708984375,-0.949462890625,-0.223876953125,-6.25,1.1280487775802612,-0.060975611209869385,1.2000000476837158,-20.700000762939453,9.149999618530273,40.40875244140625,0,
 532407,-0.017822265625,-0.952392578125,-0.23193359375,-5.5182929039001465,0.8841463327407837,-0.3048780560493469,0.44999998807907104,-20.700000762939453,5.699999809265137,40.07329177856445,0,
 532417,-0.013671875,-0.958251953125,-0.230224609375,-5.5182929039001465,1.1585365533828735,0.0,0.0,-20.549999237060547,7.050000190734863,40.40875244140625,0,
 532427,-0.009033203125,-0.9658203125,-0.231201171875,-5.4268293380737305,1.0365853309631348,0.18292683362960815,0.0,-20.549999237060547,6.0,40.50459671020508,0,
 532437,-0.01025390625,-0.958251953125,-0.23095703125,-6.371951580047607,1.432926893234253,0.9756097793579102,0.75,-21.75,8.25,40.50459671020508,0,
 532447,-0.015869140625,-0.960693359375,-0.240234375,-6.95121955871582,1.3719512224197388,1.402438998222351,0.75,-21.75,8.25,40.40875244140625,0,
 532457,-0.01416015625,-0.94970703125,-0.23974609375,-7.439024448394775,1.5548781156539917,1.8902438879013062,-0.8999999761581421,-21.149999618530273,7.650000095367432,40.16913604736328,0,
 532467,-0.01171875,-0.948974609375,-0.239013671875,-6.493902683258057,1.1585365533828735,2.4695122241973877,2.4000000953674316,-21.450000762939453,3.450000047683716,40.40875244140625,0,
 532477,-0.01123046875,-0.945068359375,-0.240966796875,-5.670732021331787,1.0365853309631348,2.317073106765747,1.5,-21.75,7.050000190734863,40.21706008911133,0,
 532487,-0.008056640625,-0.939208984375,-0.2421875,-4.329268455505371,0.9451219439506531,2.4390244483947754,1.5,-21.75,7.050000190734863,40.264984130859375,0,
 532497,-0.012451171875,-0.94677734375,-0.237548828125,-3.2926828861236572,0.6402438879013062,2.7134146690368652,0.75,-23.25,6.75,40.60044479370117,0,
 532507,-0.01416015625,-0.95849609375,-0.23828125,-2.9268293380737305,1.0670732259750366,2.896341562271118,0.30000001192092896,-21.75,6.300000190734863,40.16913604736328,0,
 532517,-0.01953125,-0.984130859375,-0.226806640625,-3.6890244483947754,1.1280487775802612,3.1097562313079834,2.25,-22.049999237060547,5.550000190734863,40.40875244140625,0,
 532527,-0.014404296875,-0.959228515625,-0.239013671875,-6.097560882568359,1.737804889678955,3.658536672592163,2.25,-22.049999237060547,5.550000190734863,40.3608283996582,0,
 532537,-0.012939453125,-0.947021484375,-0.243896484375,-6.128048896789551,1.432926893234253,4.329268455505371,0.15000000596046448,-21.149999618530273,6.449999809265137,40.16913604736328,0,
 532547,-0.01220703125,-0.93798828125,-0.2421875,-5.945122241973877,1.7073171138763428,5.152439117431641,0.75,-22.950000762939453,6.300000190734863,40.3608283996582,0,
 532557,-0.00390625,-0.951171875,-0.245849609375,-5.152439117431641,1.4634146690368652,6.79878044128418,0.44999998807907104,-21.899999618530273,5.699999809265137,40.74421310424805,0,
 532567,-0.014892578125,-0.948974609375,-0.245361328125,-2.987804889678955,1.0670732259750366,8.90243911743164,0.44999998807907104,-21.899999618530273,5.699999809265137,40.21706008911133,0,
 532577,-0.017578125,-0.951416015625,-0.24951171875,-3.2012195587158203,1.3719512224197388,9.87804889678955,0.44999998807907104,-21.899999618530273,6.449999809265137,40.3608283996582,0,
 532587,-0.0263671875,-0.969482421875,-0.242919921875,-3.841463565826416,1.737804889678955,10.670731544494629,1.2000000476837158,-22.350000381469727,6.150000095367432,40.60044479370117,0,
 532597,-0.02587890625,-0.9677734375,-0.239990234375,-4.878048896789551,2.0426828861236572,11.189024925231934,1.7999999523162842,-23.25,6.300000190734863,40.07329177856445,0,
 532617,-0.02099609375,-0.9912109375,-0.23388671875,-11.432927131652832,3.9939024448394775,15.945122718811035,1.649999976158142,-22.350000381469727,7.199999809265137,40.40875244140625,0,
 532627,-0.031005859375,-0.976806640625,-0.2431640625,-12.896341323852539,5.243902683258057,18.628049850463867,-0.30000001192092896,-21.299999237060547,7.050000190734863,40.3608283996582,0,
 532637,-0.02978515625,-0.99951171875,-0.2529296875,-15.457317352294922,5.365853786468506,22.89634132385254,0.44999998807907104,-21.149999618530273,6.150000095367432,40.552520751953125,0,
 532647,-0.00537109375,-0.97265625,-0.25732421875,-16.310976028442383,4.481707572937012,28.20121955871582,1.0499999523162842,-22.049999237060547,6.300000190734863,39.977447509765625,0,
 532657,0.00537109375,-1.01416015625,-0.252197265625,-18.628049850463867,2.195122003555298,35.79268264770508,1.0499999523162842,-22.049999237060547,6.300000190734863,40.3608283996582,0,
 532677,0.037109375,-1.03857421875,-0.270263671875,-28.93292808532715,-2.1646342277526855,53.6280517578125,2.25,-21.299999237060547,6.75,40.50459671020508,0,
 532687,-0.00048828125,-1.107421875,-0.29052734375,-32.9878044128418,-5.762195110321045,66.21951293945312,2.549999952316284,-21.299999237060547,6.0,40.50459671020508,0,
 532697,-0.03271484375,-1.1220703125,-0.27978515625,-38.658538818359375,-9.359756469726562,77.68292999267578,2.549999952316284,-21.299999237060547,6.0,40.3608283996582,0,
 532707,-0.036865234375,-1.173828125,-0.320556640625,-45.060977935791016,-14.756097793579102,90.45732116699219,2.0999999046325684,-23.100000381469727,6.150000095367432,40.264984130859375,0,
 532717,-0.03564453125,-1.212646484375,-0.325439453125,-52.95731735229492,-21.73780632019043,105.60975646972656,0.8999999761581421,-23.850000381469727,7.199999809265137,40.3608283996582,0,
 532727,-0.08154296875,-1.16650390625,-0.413818359375,-53.53658676147461,-26.707317352294922,119.81707763671875,2.8499999046325684,-23.100000381469727,7.199999809265137,40.6962890625,0,
 532737,-0.138671875,-1.145751953125,-0.447021484375,-43.567073822021484,-31.09756088256836,128.26219177246094,2.8499999046325684,-23.100000381469727,7.199999809265137,40.40875244140625,0,
 532747,-0.1875,-1.23876953125,-0.4658203125,-30.823171615600586,-36.98170852661133,133.9634246826172,2.0999999046325684,-23.549999237060547,8.399999618530273,40.40875244140625,0,
 532757,-0.216552734375,-1.19873046875,-0.464599609375,-29.7560977935791,-42.34756088256836,141.3719482421875,3.9000000953674316,-24.299999237060547,6.900000095367432,40.50459671020508,0,
 532777,-0.234619140625,-1.1435546875,-0.489013671875,-19.512195587158203,-51.67683029174805,150.24391174316406,4.199999809265137,-23.700000762939453,6.300000190734863,40.40875244140625,0,
 532787,-0.314208984375,-1.18896484375,-0.399169921875,-13.079268455505371,-53.59756088256836,158.2012176513672,4.5,-23.25,6.300000190734863,40.40875244140625,0,
 532797,-0.294677734375,-1.05712890625,-0.314208984375,-17.073171615600586,-48.658538818359375,161.76829528808594,5.099999904632568,-23.549999237060547,7.199999809265137,40.3608283996582,0,
 532807,-0.322021484375,-0.982177734375,-0.3017578125,-12.256097793579102,-46.280487060546875,168.99391174316406,5.699999809265137,-23.25,7.800000190734863,40.264984130859375,0,
 532817,-0.370849609375,-0.93212890625,-0.29296875,-3.353658676147461,-43.353660583496094,173.9634246826172,5.699999809265137,-23.700000762939453,6.300000190734863,40.40875244140625,0,
 532827,-0.415771484375,-0.84521484375,-0.28759765625,5.396341800689697,-38.658538818359375,177.9268341064453,6.449999809265137,-22.950000762939453,7.800000190734863,40.40875244140625,0,
 532837,-0.47607421875,-0.79150390625,-0.294921875,14.84756088256836,-32.95731735229492,178.59756469726562,5.25,-23.700000762939453,6.300000190734863,40.552520751953125,0,
 532847,-0.5927734375,-0.6982421875,-0.314697265625,25.0,-30.274391174316406,177.5,7.050000190734863,-23.100000381469727,6.900000095367432,40.3608283996582,0,
 532857,-0.6015625,-0.651123046875,-0.2998046875,29.359756469726562,-31.280488967895508,172.04269409179688,7.050000190734863,-22.350000381469727,7.199999809265137,40.3608283996582,0,
 532877,-0.600341796875,-0.849365234375,-0.379638671875,26.73780632019043,-33.53658676147461,122.98780822753906,10.949999809265137,-22.950000762939453,3.299999952316284,40.3608283996582,0,
 532887,-0.54150390625,-0.991455078125,-0.48681640625,33.84146499633789,-27.80487823486328,56.25,8.399999618530273,-22.5,4.800000190734863,40.264984130859375,0,
 532897,-0.508544921875,-1.293212890625,-0.37451171875,57.04268264770508,-19.420732498168945,-62.560977935791016,9.449999809265137,-21.75,6.300000190734863,40.3608283996582,0,
 532907,-1.001220703125,-1.424072265625,-0.523193359375,54.14634323120117,-11.67682933807373,-182.86585998535156,9.449999809265137,-21.75,6.300000190734863,40.40875244140625,0,
 532917,-0.919921875,-1.1318359375,-0.491455078125,12.286585807800293,36.40243911743164,-269.2378234863281,8.550000190734863,-21.149999618530273,5.699999809265137,40.264984130859375,0,
 532927,-0.870361328125,-0.362548828125,-0.38232421875,-2.103658676147461,68.9024429321289,-331.18902587890625,7.050000190734863,-21.450000762939453,7.199999809265137,40.3608283996582,0,
 532937,-0.564208984375,0.3037109375,-0.0283203125,12.286585807800293,99.78659057617188,-352.5304870605469,5.25,-21.75,5.25,40.40875244140625,0,
 532947,-0.408447265625,0.459716796875,-0.022705078125,51.95122146606445,100.91463470458984,-336.8597717285156,5.25,-21.75,5.25,40.21706008911133,0,
 532957,-0.306396484375,0.1884765625,0.122314453125,105.51829528808594,93.87195587158203,-301.0975646972656,4.650000095367432,-21.149999618530273,7.199999809265137,40.3608283996582,0,
 532967,-0.114990234375,0.105712890625,0.10498046875,112.86585998535156,88.56707763671875,-258.506103515625,3.0,-20.549999237060547,6.0,40.50459671020508,0,
 532977,-0.035888671875,0.30517578125,0.245849609375,79.8780517578125,78.6280517578125,-222.40853881835938,1.5,-18.899999618530273,3.75,39.977447509765625,0,
 532987,0.2138671875,0.742919921875,0.404296875,32.225608825683594,60.15243911743164,-181.6768341064453,1.5,-18.899999618530273,3.75,40.264984130859375,0,
 532997,0.515380859375,1.05859375,0.486572265625,7.408536911010742,28.963415145874023,-128.01829528808594,-0.30000001192092896,-19.799999237060547,6.75,40.50459671020508,0,
 533007,0.75341796875,1.049072265625,0.571533203125,6.646341800689697,-10.914634704589844,-72.1036605834961,1.0499999523162842,-19.350000381469727,5.550000190734863,40.40875244140625,0,
 533017,1.075439453125,0.846923828125,0.580078125,5.0,-46.95122146606445,-30.09146499633789,1.5,-20.100000381469727,6.300000190734863,40.40875244140625,0,
 533027,1.401611328125,0.54833984375,0.56787109375,-10.82317066192627,-107.98780822753906,-17.164634704589844,1.7999999523162842,-21.75,6.75,40.50459671020508,0,
 533037,1.568603515625,0.393310546875,0.5341796875,-20.518293380737305,-124.26829528808594,-31.49390411376953,0.44999998807907104,-21.450000762939453,8.399999618530273,40.16913604736328,0,
 533047,1.64013671875,0.438720703125,0.4697265625,-19.817073822021484,-133.90243530273438,-44.908538818359375,2.4000000953674316,-21.149999618530273,6.449999809265137,40.3608283996582,0,
 533057,1.620849609375,0.45458984375,0.344482421875,-12.835366249084473,-134.35975646972656,-49.756099700927734,3.5999999046325684,-20.25,7.199999809265137,40.07329177856445,0,
 533077,7.999755859375,-7.999755859375,8.0,99.08536529541016,-425.1524353027344,-540.3963623046875,3.9000000953674316,-21.149999618530273,6.150000095367432,40.3608283996582,0,
 533087,-8.0,7.322021484375,-1.04833984375,615.76220703125,28.90243911743164,-129.66464233398438,1.5,-20.850000381469727,6.75,40.16913604736328,0,
 533097,-0.13916015625,-7.999755859375,8.0,-356.70733642578125,66.70732116699219,208.9634246826172,2.549999952316284,-21.75,6.0,40.40875244140625,0,
 533107,0.7724609375,2.183349609375,-3.95068359375,91.46341705322266,-48.68902587890625,70.9756088256836,2.549999952316284,-20.850000381469727,6.300000190734863,40.60044479370117,0,
 533117,-0.587890625,-1.82373046875,-0.81005859375,-29.817073822021484,-3.628048896789551,-22.073171615600586,2.549999952316284,-20.850000381469727,6.300000190734863,40.3608283996582,0,
 533127,-0.235595703125,2.373291015625,-0.553466796875,129.2073211669922,15.945122718811035,131.85975646972656,1.2000000476837158,-22.350000381469727,6.150000095367432,40.40875244140625,0,
 533137,0.65283203125,-1.156494140625,0.538818359375,100.88414764404297,-13.445122718811035,102.53048706054688,4.199999809265137,-20.100000381469727,4.800000190734863,40.21706008911133,0,
 533147,0.30029296875,-3.08984375,0.27685546875,-44.1158561706543,-20.823171615600586,19.512195587158203,3.5999999046325684,-19.5,6.449999809265137,40.40875244140625,0,
 533158,0.684814453125,-2.372802734375,0.001708984375,-90.39634704589844,-4.481707572937012,58.04878234863281,3.5999999046325684,-19.5,6.449999809265137,40.264984130859375,0,
 533168,0.353271484375,-0.738525390625,-0.224609375,-42.34756088256836,11.189024925231934,32.59146499633789,3.5999999046325684,-19.200000762939453,6.150000095367432,40.40875244140625,0,
 533178,0.38134765625,-0.863037109375,-0.27587890625,-9.268292427062988,24.420732498168945,27.164634704589844,5.099999904632568,-18.75,6.150000095367432,40.3608283996582,0,
 533188,0.04736328125,-0.86328125,-0.2958984375,-4.908536911010742,32.408538818359375,8.932927131652832,5.699999809265137,-21.299999237060547,2.549999952316284,40.16913604736328,0,
 533198,-0.143798828125,-0.946044921875,-0.311767578125,4.847560882568359,37.9878044128418,-3.5975611209869385,5.699999809265137,-21.299999237060547,2.549999952316284,40.21706008911133,0,
 533208,-0.258544921875,-0.961669921875,-0.2236328125,8.780488014221191,41.03658676147461,-6.067073345184326,2.8499999046325684,-20.700000762939453,5.699999809265137,40.40875244140625,0,
 533218,-0.157958984375,-0.65087890625,-0.385986328125,-4.969512462615967,39.78658676147461,-8.170731544494629,3.9000000953674316,-22.350000381469727,5.699999809265137,40.16913604736328,0,
 533228,-0.397216796875,-0.74609375,-0.3525390625,3.9024391174316406,38.04878234863281,-14.481707572937012,2.4000000953674316,-21.149999618530273,6.900000095367432,40.50459671020508,0,
 533238,-0.431884765625,-0.78369140625,-0.33642578125,2.103658676147461,31.676830291748047,-13.04878044128418,2.4000000953674316,-21.149999618530273,6.900000095367432,40.025367736816406,0,
 533248,-0.515869140625,-0.91357421875,-0.213623046875,4.512195110321045,24.69512176513672,-10.12195110321045,2.8499999046325684,-21.450000762939453,4.949999809265137,40.3608283996582,0,
 533258,-0.486572265625,-0.886962890625,-0.24560546875,-6.341463565826416,19.78658676147461,-17.408536911010742,3.299999952316284,-20.100000381469727,6.75,40.40875244140625,0,
 533268,-0.35693359375,-0.767333984375,-0.283935546875,-13.658536911010742,11.890244483947754,-23.04878044128418,2.8499999046325684,-23.100000381469727,3.9000000953674316,40.40875244140625,0,
 533288,0.062744140625,-0.71142578125,-0.33251953125,5.9146342277526855,-3.262195110321045,-42.835365295410156,1.2000000476837158,-19.5,6.150000095367432,40.3608283996582,0,
 533298,0.070068359375,-0.785400390625,-0.289306640625,18.658536911010742,-3.841463565826416,-32.59146499633789,1.649999976158142,-20.700000762939453,4.199999809265137,40.264984130859375,0,
 533308,0.042236328125,-0.94970703125,-0.212158203125,21.189023971557617,-2.804877996444702,-15.731707572937012,2.0999999046325684,-20.25,4.949999809265137,40.40875244140625,0,
 533318,-0.02880859375,-1.07275390625,-0.156982421875,14.603658676147461,-2.3475611209869385,-0.9146341681480408,2.4000000953674316,-19.200000762939453,4.949999809265137,40.6962890625,0,
 533338,-0.066162109375,-0.95849609375,-0.23828125,-6.554878234863281,-0.060975611209869385,8.75,2.0999999046325684,-19.5,6.150000095367432,40.07329177856445,0,
 533348,-0.058837890625,-0.944580078125,-0.26171875,-9.329268455505371,0.24390244483947754,7.286585330963135,0.75,-21.75,4.800000190734863,40.21706008911133,0,
 533358,-0.0478515625,-0.914306640625,-0.2705078125,-10.853658676147461,0.9146341681480408,3.75,0.8999999761581421,-20.25,5.400000095367432,40.552520751953125,0,
 533368,-0.045166015625,-0.936767578125,-0.275146484375,-9.207317352294922,0.4268292784690857,0.7317073345184326,0.8999999761581421,-20.25,5.400000095367432,40.40875244140625,0,
 533378,-0.06103515625,-0.970458984375,-0.27880859375,-7.896341800689697,-0.15243902802467346,-2.1646342277526855,1.0499999523162842,-20.100000381469727,5.550000190734863,40.50459671020508,0,
 533388,-0.05224609375,-0.992919921875,-0.25830078125,-8.59756088256836,0.4268292784690857,-4.878048896789551,2.4000000953674316,-16.799999237060547,3.450000047683716,40.264984130859375,0,
 533398,-0.04296875,-1.010498046875,-0.247802734375,-10.091464042663574,0.9146341681480408,-5.762195110321045,2.549999952316284,-21.75,5.550000190734863,40.264984130859375,0,
 533408,-0.03955078125,-1.020263671875,-0.255615234375,-13.170731544494629,1.3719512224197388,-5.853658676147461,2.549999952316284,-21.75,5.550000190734863,40.40875244140625,0,
 533418,-0.035888671875,-1.007080078125,-0.267578125,-15.640244483947754,2.5304877758026123,-4.695122241973877,0.44999998807907104,-21.149999618530273,4.199999809265137,40.264984130859375,0,
 533428,-0.024169921875,-0.977294921875,-0.275390625,-15.640244483947754,3.3841464519500732,-2.9573171138763428,1.7999999523162842,-20.549999237060547,6.0,40.3608283996582,0,
 533438,-0.023193359375,-0.95068359375,-0.28271484375,-13.384146690368652,3.0182926654815674,-1.585365891456604,3.299999952316284,-20.850000381469727,6.300000190734863,40.264984130859375,0,
 533448,-0.022216796875,-0.939208984375,-0.279052734375,-9.664634704589844,2.6524391174316406,-0.8231707215309143,3.299999952316284,-20.850000381469727,6.300000190734863,40.21706008911133,0,
 533458,-0.02001953125,-0.941162109375,-0.275390625,-5.670732021331787,2.103658676147461,-1.1890244483947754,2.8499999046325684,-20.25,6.449999809265137,40.3608283996582,0,
 533468,-0.020263671875,-0.94091796875,-0.26123046875,-2.6219513416290283,1.8292683362960815,-1.402438998222351,2.25,-19.799999237060547,4.050000190734863,40.40875244140625,0,
 533478,-0.014404296875,-0.947509765625,-0.255859375,-0.030487805604934692,1.6463414430618286,-2.0426828861236572,0.44999998807907104,-20.25,5.699999809265137,40.60044479370117,0,
 533488,-0.01806640625,-0.944580078125,-0.249267578125,0.09146341681480408,1.6768293380737305,-2.682926893234253,1.0499999523162842,-20.100000381469727,5.25,40.50459671020508,0,
 533498,-0.01513671875,-0.939453125,-0.2490234375,0.396341472864151,1.432926893234253,-2.5609755516052246,1.0499999523162842,-20.100000381469727,5.25,40.40875244140625,0,
 533508,-0.01318359375,-0.94140625,-0.251953125,0.792682945728302,1.3719512224197388,-2.195122003555298,1.2000000476837158,-19.950000762939453,5.400000095367432,40.3608283996582,0,
 533518,-0.009765625,-0.94384765625,-0.237548828125,0.6707317233085632,0.9756097793579102,-2.2560975551605225,1.7999999523162842,-20.850000381469727,5.550000190734863,40.50459671020508,0,
 533528,-0.017822265625,-0.934326171875,-0.249755859375,0.8841463327407837,1.1280487775802612,-1.8902438879013062,2.549999952316284,-20.850000381469727,7.050000190734863,40.16913604736328,0,
 533538,-0.018798828125,-0.943603515625,-0.24609375,1.25,0.6402438879013062,-1.7987805604934692,2.549999952316284,-20.850000381469727,7.050000190734863,40.3608283996582,0,
 533548,-0.017333984375,-0.943359375,-0.247314453125,0.5182926654815674,0.6707317233085632,-1.432926893234253,2.0999999046325684,-21.899999618530273,5.400000095367432,40.50459671020508,0,
 533558,-0.023193359375,-0.949951171875,-0.24072265625,0.7317073345184326,0.5182926654815674,-1.6768293380737305,1.2000000476837158,-19.5,5.400000095367432,40.3608283996582,0,
 533568,-0.02099609375,-0.94775390625,-0.23974609375,0.24390244483947754,0.4573170840740204,-1.3719512224197388,1.5,-19.799999237060547,5.550000190734863,40.60044479370117,0,
 533578,-0.02490234375,-0.945556640625,-0.24853515625,-0.030487805604934692,0.5182926654815674,-1.1280487775802612,1.5,-19.799999237060547,5.550000190734863,40.16913604736328,0,
 533588,-0.02783203125,-0.9443359375,-0.25244140625,0.27439025044441223,0.5792682766914368,-1.097561001777649,0.8999999761581421,-19.5,6.449999809265137,40.50459671020508,0,
 533598,-0.018798828125,-0.94775390625,-0.2509765625,-0.24390244483947754,0.4573170840740204,-0.5487805008888245,2.0999999046325684,-21.450000762939453,3.450000047683716,40.40875244140625,0,
 533608,-0.0185546875,-0.941650390625,-0.249755859375,0.0,0.5792682766914368,-0.4268292784690857,3.0,-20.549999237060547,5.550000190734863,40.50459671020508,0,
 533618,-0.022216796875,-0.946533203125,-0.256591796875,-0.8536585569381714,0.7012194991111755,-0.8841463327407837,3.0,-20.549999237060547,5.550000190734863,40.50459671020508,0,
 533628,-0.0224609375,-0.93798828125,-0.24755859375,-1.2804877758026123,0.4268292784690857,-0.792682945728302,2.0999999046325684,-20.700000762939453,5.699999809265137,40.3608283996582,0,
 533638,-0.02001953125,-0.945068359375,-0.257080078125,-1.0670732259750366,0.7012194991111755,0.3658536672592163,2.25,-20.100000381469727,6.300000190734863,40.3608283996582,0,
 533648,-0.018798828125,-0.946044921875,-0.26318359375,-0.6402438879013062,0.6707317233085632,0.5487805008888245,1.2000000476837158,-19.950000762939453,6.150000095367432,40.40875244140625,0,
 533658,-0.023681640625,-0.944580078125,-0.262939453125,-0.4573170840740204,0.6402438879013062,0.9451219439506531,3.1500000953674316,-21.450000762939453,6.449999809265137,40.552520751953125,0,
 533668,-0.017578125,-0.9443359375,-0.2587890625,0.060975611209869385,0.6097561120986938,0.8841463327407837,2.549999952316284,-22.5,6.300000190734863,40.552520751953125,0,
 533678,-0.023193359375,-0.9443359375,-0.255859375,0.5792682766914368,0.21341463923454285,1.0365853309631348,2.549999952316284,-21.299999237060547,4.050000190734863,40.21706008911133,0,
 533688,-0.02392578125,-0.94677734375,-0.259521484375,0.6097561120986938,0.21341463923454285,1.0365853309631348,2.8499999046325684,-21.450000762939453,6.150000095367432,40.3608283996582,0,
 533698,-0.024658203125,-0.959716796875,-0.257568359375,0.060975611209869385,0.18292683362960815,0.4878048896789551,4.199999809265137,-24.149999618530273,4.050000190734863,40.3608283996582,0,
 533708,-0.02783203125,-0.958251953125,-0.257080078125,-0.15243902802467346,0.6097561120986938,0.4268292784690857,4.199999809265137,-24.149999618530273,4.050000190734863,40.40875244140625,0,
 533718,-0.0234375,-0.961181640625,-0.26123046875,-0.4268292784690857,0.396341472864151,0.3048780560493469,1.5,-20.850000381469727,4.050000190734863,40.264984130859375,0,
 533728,-0.02099609375,-0.951904296875,-0.256591796875,-0.6707317233085632,0.4268292784690857,0.15243902802467346,0.30000001192092896,-18.899999618530273,6.300000190734863,40.3608283996582,0,
 533738,-0.017333984375,-0.943359375,-0.25830078125,-0.792682945728302,0.396341472864151,0.27439025044441223,2.25,-19.799999237060547,6.75,40.40875244140625,0,
 533748,-0.015869140625,-0.9482421875,-0.25390625,-0.060975611209869385,0.5792682766914368,0.24390244483947754,2.25,-19.799999237060547,6.75,40.3608283996582,0,
 533758,-0.02490234375,-0.9501953125,-0.2607421875,1.0060975551605225,0.6707317233085632,0.5182926654815674,2.549999952316284,-21.299999237060547,6.75,40.3608283996582,0,
 533768,-0.020751953125,-0.95361328125,-0.253662109375,0.7012194991111755,0.18292683362960815,0.24390244483947754,1.649999976158142,-19.950000762939453,4.949999809265137,40.3608283996582,0,
 533778,-0.020751953125,-0.946044921875,-0.253662109375,0.6097561120986938,0.5182926654815674,0.18292683362960815,1.5,-20.850000381469727,4.5,40.3608283996582,0,
 533788,-0.01318359375,-0.947021484375,-0.2490234375,0.7012194991111755,0.18292683362960815,0.3658536672592163,1.5,-20.850000381469727,4.5,40.552520751953125,0,
 533798,-0.020263671875,-0.945556640625,-0.2529296875,0.7621951103210449,0.24390244483947754,0.6402438879013062,4.349999904632568,-20.25,3.450000047683716,40.21706008911133,0,
 533808,-0.020263671875,-0.948974609375,-0.25146484375,0.8841463327407837,0.21341463923454285,0.4573170840740204,2.549999952316284,-20.850000381469727,4.800000190734863,40.21706008911133,0,
 533818,-0.0244140625,-0.949951171875,-0.2509765625,0.7621951103210449,0.15243902802467346,0.7012194991111755,2.549999952316284,-20.100000381469727,5.550000190734863,40.552520751953125,0,
 533828,-0.019287109375,-0.949951171875,-0.249267578125,0.6097561120986938,0.15243902802467346,0.8841463327407837,2.549999952316284,-20.100000381469727,5.550000190734863,40.07329177856445,0,
 533838,-0.019287109375,-0.942626953125,-0.24951171875,0.7012194991111755,0.4268292784690857,0.6402438879013062,0.15000000596046448,-19.950000762939453,6.150000095367432,40.40875244140625,0,
 533848,-0.014404296875,-0.94189453125,-0.248779296875,0.4573170840740204,0.24390244483947754,0.5792682766914368,1.2000000476837158,-20.700000762939453,5.400000095367432,40.21706008911133,0,
 533858,-0.021728515625,-0.948974609375,-0.250244140625,0.7621951103210449,0.24390244483947754,0.5487805008888245,2.549999952316284,-20.850000381469727,5.550000190734863,40.40875244140625,0,
 533868,-0.024658203125,-0.952880859375,-0.25048828125,0.9756097793579102,0.12195122241973877,0.5182926654815674,0.75,-21.75,4.800000190734863,40.50459671020508,0,
 533878,-0.025390625,-0.948486328125,-0.249755859375,0.7012194991111755,0.030487805604934692,0.7621951103210449,1.5,-19.799999237060547,4.800000190734863,40.21706008911133,0,
 533888,-0.0224609375,-0.9580078125,-0.246826171875,0.4268292784690857,0.15243902802467346,0.6402438879013062,2.549999952316284,-20.850000381469727,6.300000190734863,40.264984130859375,0,
 533898,-0.02587890625,-0.94970703125,-0.245361328125,0.060975611209869385,0.15243902802467346,0.6707317233085632,1.0499999523162842,-20.549999237060547,3.299999952316284,40.40875244140625,0,
 533909,-0.02783203125,-0.953369140625,-0.2548828125,-0.15243902802467346,0.3658536672592163,0.4878048896789551,2.549999952316284,-20.549999237060547,4.800000190734863,40.264984130859375,0,
 533919,-0.021240234375,-0.948974609375,-0.245849609375,-0.060975611209869385,0.18292683362960815,0.4573170840740204,2.549999952316284,-20.549999237060547,4.800000190734863,40.16913604736328,0,
 533929,-0.01953125,-0.95458984375,-0.24462890625,0.3353658616542816,0.15243902802467346,0.24390244483947754,2.549999952316284,-20.850000381469727,7.050000190734863,40.50459671020508,0,
 533939,-0.024169921875,-0.9580078125,-0.250244140625,-0.3658536672592163,0.3048780560493469,0.4268292784690857,4.349999904632568,-20.700000762939453,6.150000095367432,40.264984130859375,0,
 533949,-0.023681640625,-0.94970703125,-0.25439453125,0.12195122241973877,0.4268292784690857,-0.21341463923454285,1.649999976158142,-21.149999618530273,5.699999809265137,40.50459671020508,0,
 533959,-0.022705078125,-0.94921875,-0.251708984375,-0.4573170840740204,0.396341472864151,-0.060975611209869385,1.649999976158142,-21.149999618530273,5.699999809265137,40.264984130859375,0,
 533969,-0.025146484375,-0.9560546875,-0.25,-0.7317073345184326,0.27439025044441223,-0.15243902802467346,2.25,-19.350000381469727,6.75,40.264984130859375,0,
 533979,-0.026611328125,-0.95654296875,-0.253662109375,-1.097561001777649,0.4878048896789551,-0.6097561120986938,2.4000000953674316,-19.950000762939453,6.900000095367432,40.16913604736328,0,
 533989,-0.02392578125,-0.952880859375,-0.24853515625,-1.0060975551605225,0.27439025044441223,-0.060975611209869385,0.30000001192092896,-20.100000381469727,6.300000190734863,40.3608283996582,0,
 533999,-0.021240234375,-0.960205078125,-0.24853515625,-1.402438998222351,0.5792682766914368,-0.24390244483947754,0.30000001192092896,-20.100000381469727,6.300000190734863,40.264984130859375,0,
 534009,-0.0263671875,-0.95068359375,-0.245849609375,-1.1890244483947754,0.3658536672592163,-0.21341463923454285,1.2000000476837158,-20.25,4.949999809265137,40.16913604736328,0,
 534019,-0.016845703125,-0.952880859375,-0.247314453125,-1.25,0.27439025044441223,-0.21341463923454285,2.25,-20.549999237060547,4.050000190734863,40.40875244140625,0,
 534029,-0.01953125,-0.952880859375,-0.244384765625,-1.3719512224197388,0.24390244483947754,-0.12195122241973877,2.4000000953674316,-19.950000762939453,6.900000095367432,40.40875244140625,0,
 534039,-0.0244140625,-0.949951171875,-0.2490234375,-1.3719512224197388,0.21341463923454285,-0.6402438879013062,2.4000000953674316,-19.950000762939453,6.900000095367432,40.21706008911133,0,
 534049,-0.026123046875,-0.953857421875,-0.251708984375,-1.3719512224197388,0.4878048896789551,-0.6402438879013062,1.7999999523162842,-20.850000381469727,3.75,40.50459671020508,0,
 534059,-0.02099609375,-0.95947265625,-0.248046875,-1.920731782913208,0.4268292784690857,-0.6402438879013062,1.2000000476837158,-21.149999618530273,3.9000000953674316,40.40875244140625,0,
 534069,-0.025634765625,-0.947509765625,-0.2529296875,-1.7987805604934692,0.5182926654815674,-1.1585365533828735,2.549999952316284,-21.299999237060547,4.050000190734863,40.264984130859375,0,
 534079,-0.0185546875,-0.951416015625,-0.254638671875,-2.5,0.5792682766914368,-0.8231707215309143,2.549999952316284,-20.549999237060547,5.550000190734863,40.40875244140625,0,
 534089,-0.017822265625,-0.947998046875,-0.24951171875,-2.0731706619262695,0.8536585569381714,-1.097561001777649,2.549999952316284,-20.549999237060547,5.550000190734863,40.40875244140625,0,
 534099,-0.025390625,-0.951171875,-0.252197265625,-1.9817073345184326,0.5792682766914368,-1.402438998222351,1.5,-20.100000381469727,6.0,40.3608283996582,0,
 534109,-0.013916015625,-0.9658203125,-0.245361328125,-1.920731782913208,0.7012194991111755,-1.402438998222351,3.9000000953674316,-21.450000762939453,1.9500000476837158,40.60044479370117,0,
 534119,-0.009033203125,-0.951171875,-0.254150390625,-1.3109756708145142,0.09146341681480408,-1.097561001777649,1.7999999523162842,-19.799999237060547,4.800000190734863,40.3608283996582,0,
 534129,-0.01611328125,-0.950439453125,-0.253173828125,-1.402438998222351,0.6707317233085632,-1.0365853309631348,1.7999999523162842,-19.799999237060547,4.800000190734863,40.3608283996582,0,
 534139,-0.01953125,-0.94873046875,-0.255126953125,-1.2195122241973877,0.5487805008888245,-0.9756097793579102,2.8499999046325684,-19.200000762939453,6.150000095367432,40.264984130859375,0,
 534149,-0.015380859375,-0.944580078125,-0.254638671875,-0.9756097793579102,0.3658536672592163,-0.792682945728302,1.649999976158142,-22.649999618530273,6.900000095367432,40.40875244140625,0,
 534159,-0.015625,-0.946044921875,-0.25634765625,-0.5487805008888245,0.5487805008888245,-0.792682945728302,2.25,-20.549999237060547,6.0,40.264984130859375,0,
 534169,-0.019775390625,-0.940185546875,-0.2578125,0.396341472864151,0.5792682766914368,-0.5487805008888245,2.25,-20.549999237060547,6.0,40.21706008911133,0,
 534179,-0.012451171875,-0.943603515625,-0.259765625,1.1280487775802612,0.4268292784690857,-0.7317073345184326,1.0499999523162842,-19.799999237060547,6.0,40.21706008911133,0,
 534189,-0.0166015625,-0.949462890625,-0.2568359375,1.737804889678955,0.396341472864151,-0.4573170840740204,3.9000000953674316,-21.450000762939453,6.150000095367432,40.60044479370117,0,
 534199,-0.0185546875,-0.949462890625,-0.25439453125,1.8597561120986938,0.396341472864151,-0.4268292784690857,1.0499999523162842,-21.299999237060547,5.550000190734863,40.40875244140625,0,
 534209,-0.017822265625,-0.9482421875,-0.258056640625,1.8902438879013062,0.27439025044441223,-0.4268292784690857,1.0499999523162842,-21.299999237060547,5.550000190734863,40.21706008911133,0,
 534219,-0.022705078125,-0.95458984375,-0.24951171875,2.317073106765747,0.27439025044441223,-0.396341472864151,1.5,-20.549999237060547,5.550000190734863,39.977447509765625,0,
 534229,-0.02197265625,-0.9462890625,-0.24609375,1.9817073345184326,0.3048780560493469,-0.6097561120986938,1.2000000476837158,-21.149999618530273,7.199999809265137,40.50459671020508,0,
 534239,-0.023193359375,-0.956298828125,-0.24609375,1.3109756708145142,0.3353658616542816,-0.24390244483947754,2.0999999046325684,-21.450000762939453,5.699999809265137,40.40875244140625,0,
 534249,-0.01416015625,-0.955078125,-0.24560546875,0.6402438879013062,0.3658536672592163,-0.8231707215309143,2.0999999046325684,-21.450000762939453,5.699999809265137,40.50459671020508,0,
 534259,-0.015380859375,-0.962646484375,-0.24658203125,-0.396341472864151,0.5487805008888245,-0.9756097793579102,1.649999976158142,-21.899999618530273,6.449999809265137,40.552520751953125,0,
 534269,-0.0166015625,-0.954833984375,-0.240966796875,-0.7621951103210449,0.060975611209869385,-0.9146341681480408,2.25,-19.799999237060547,6.300000190734863,40.21706008911133,0,
 534279,-0.015625,-0.954345703125,-0.25244140625,-1.3719512224197388,0.15243902802467346,-1.432926893234253,0.75,-20.850000381469727,6.300000190734863,40.3608283996582,0,
 534289,-0.01611328125,-0.94140625,-0.254638671875,-1.1280487775802612,0.4878048896789551,-1.1890244483947754,2.0999999046325684,-19.950000762939453,6.150000095367432,40.3608283996582,0,
 534299,-0.019775390625,-0.943115234375,-0.2548828125,-0.6402438879013062,0.21341463923454285,-1.1585365533828735,2.0999999046325684,-19.950000762939453,6.150000095367432,40.21706008911133,0,
 534309,-0.009765625,-0.9501953125,-0.253662109375,0.0,0.0,-1.2804877758026123,2.0999999046325684,-18.299999237060547,4.199999809265137,40.40875244140625,0,
 534319,-0.02197265625,-0.95166015625,-0.250732421875,0.7317073345184326,-0.09146341681480408,-1.6768293380737305,0.75,-20.549999237060547,4.800000190734863,40.21706008911133,0,
 534329,-0.014892578125,-0.950927734375,-0.24658203125,0.4878048896789551,0.0,-1.6158536672592163,1.2000000476837158,-20.25,6.150000095367432,40.3608283996582,0,
 534339,-0.018310546875,-0.95458984375,-0.247802734375,0.18292683362960815,0.09146341681480408,-1.2195122241973877,1.2000000476837158,-20.25,6.150000095367432,40.16913604736328,0,
 534349,-0.008056640625,-0.937744140625,-0.239990234375,-0.030487805604934692,-0.21341463923454285,-1.0060975551605225,3.75,-21.75,5.25,40.3608283996582,0,
 534359,-0.0078125,-0.947021484375,-0.24853515625,-0.24390244483947754,-0.3353658616542816,-0.5487805008888245,1.7999999523162842,-22.049999237060547,5.25,40.3608283996582,0,
 534369,-0.01953125,-0.9501953125,-0.260986328125,-0.4268292784690857,-0.3353658616542816,0.060975611209869385,1.7999999523162842,-19.799999237060547,5.550000190734863,40.3608283996582,0,
 534379,-0.0087890625,-0.939697265625,-0.253173828125,0.5792682766914368,-0.5792682766914368,0.09146341681480408,1.7999999523162842,-19.799999237060547,5.550000190734863,40.40875244140625,0,
 534389,-0.013427734375,-0.94384765625,-0.248291015625,2.0731706619262695,-0.7317073345184326,-0.4268292784690857,0.75,-21.299999237060547,4.800000190734863,40.16913604736328,0,
 534399,-0.019775390625,-0.954345703125,-0.250244140625,2.103658676147461,-0.6402438879013062,-1.3109756708145142,4.349999904632568,-19.5,5.400000095367432,40.50459671020508,0,
 534409,-0.014892578125,-0.94677734375,-0.247314453125,2.378048896789551,-0.8841463327407837,-1.5548781156539917,1.649999976158142,-19.200000762939453,4.949999809265137,40.16913604736328,0,
 534419,-0.01513671875,-0.942138671875,-0.250732421875,2.5304877758026123,-0.5487805008888245,-1.0670732259750366,1.649999976158142,-19.200000762939453,4.949999809265137,40.40875244140625,0,
 534429,-0.001708984375,-0.94677734375,-0.249755859375,2.896341562271118,-0.6097561120986938,0.5487805008888245,2.8499999046325684,-21.149999618530273,4.199999809265137,40.3608283996582,0,
 534439,-0.01171875,-0.952880859375,-0.247802734375,2.3475611209869385,-0.4878048896789551,0.8231707215309143,2.25,-21.75,5.550000190734863,40.50459671020508,0,
 534449,-0.0234375,-0.959716796875,-0.238037109375,1.737804889678955,-0.030487805604934692,1.1890244483947754,2.4000000953674316,-19.950000762939453,6.150000095367432,40.21706008911133,0,
 534459,-0.015625,-0.942626953125,-0.2451171875,2.5,-0.21341463923454285,1.3414634466171265,2.4000000953674316,-19.950000762939453,6.150000095367432,40.264984130859375,0,
 534469,-0.013916015625,-0.93603515625,-0.255126953125,3.6890244483947754,-0.4573170840740204,0.792682945728302,2.8499999046325684,-20.25,6.900000095367432,40.21706008911133,0,
 534479,-0.01953125,-0.931884765625,-0.257080078125,5.0,-0.3353658616542816,-0.3658536672592163,2.0999999046325684,-20.25,5.699999809265137,40.40875244140625,0,
 534489,-0.013671875,-0.92822265625,-0.25146484375,6.5853657722473145,-0.7012194991111755,-0.6707317233085632,2.25,-19.799999237060547,4.5,40.50459671020508,0,
 534499,-0.013916015625,-0.947265625,-0.247802734375,7.195122241973877,-0.9451219439506531,-0.24390244483947754,2.4000000953674316,-19.950000762939453,4.650000095367432,40.40875244140625,0,
 534509,-0.007080078125,-0.946533203125,-0.241455078125,7.0731706619262695,-0.7317073345184326,-0.15243902802467346,2.4000000953674316,-19.950000762939453,4.650000095367432,40.07329177856445,0,
 534519,-0.01220703125,-0.9521484375,-0.237548828125,6.341463565826416,-0.5487805008888245,1.0365853309631348,3.5999999046325684,-22.350000381469727,1.9500000476837158,40.50459671020508,0,
 534529,-0.020751953125,-0.962890625,-0.226806640625,4.420732021331787,-0.27439025044441223,1.8292683362960815,1.7999999523162842,-21.75,5.550000190734863,40.16913604736328,0,
 534539,-0.01318359375,-0.97705078125,-0.223388671875,2.378048896789551,0.060975611209869385,1.432926893234253,2.549999952316284,-20.549999237060547,7.050000190734863,40.264984130859375,0,
 534549,-0.0126953125,-0.957275390625,-0.234619140625,0.3353658616542816,0.0,1.8597561120986938,2.549999952316284,-20.549999237060547,7.050000190734863,40.3608283996582,0,
 534559,-0.009521484375,-0.955322265625,-0.23193359375,-0.5182926654815674,-0.030487805604934692,2.4390244483947754,3.5999999046325684,-21.899999618530273,6.150000095367432,40.21706008911133,0,
 534569,-0.0146484375,-0.942138671875,-0.240234375,-0.8841463327407837,0.030487805604934692,1.9817073345184326,2.4000000953674316,-21.899999618530273,6.449999809265137,40.3608283996582,0,
 534579,-0.016357421875,-0.932373046875,-0.254150390625,0.15243902802467346,-0.5792682766914368,1.737804889678955,1.649999976158142,-20.700000762939453,6.449999809265137,40.60044479370117,0,
 534589,-0.01708984375,-0.9375,-0.25439453125,2.103658676147461,-0.9756097793579102,1.4939024448394775,1.649999976158142,-20.700000762939453,6.449999809265137,40.3608283996582,0,
 534599,-0.01611328125,-0.939453125,-0.246826171875,4.207317352294922,-0.8841463327407837,1.5243902206420898,1.649999976158142,-21.450000762939453,6.449999809265137,40.16913604736328,0,
 534609,-0.017822265625,-0.958984375,-0.234130859375,5.27439022064209,-1.0060975551605225,1.432926893234253,1.649999976158142,-21.899999618530273,5.699999809265137,40.16913604736328,0,
 534619,-0.026611328125,-0.978515625,-0.213623046875,4.207317352294922,-0.6402438879013062,1.8902438879013062,2.549999952316284,-19.799999237060547,2.25,40.3608283996582,0,
 534629,-0.034423828125,-1.008544921875,-0.20703125,1.7682926654815674,-0.3353658616542816,1.920731782913208,2.549999952316284,-19.799999237060547,2.25,40.3608283996582,0,
 534639,-0.024658203125,-0.997314453125,-0.211181640625,-1.920731782913208,0.18292683362960815,1.3414634466171265,1.7999999523162842,-18.149999618530273,5.550000190734863,40.3608283996582,0,
 534649,-0.01806640625,-0.953369140625,-0.2294921875,-5.762195110321045,0.5182926654815674,0.9146341681480408,1.649999976158142,-20.25,4.949999809265137,40.50459671020508,0,
 534659,-0.017578125,-0.92626953125,-0.2548828125,-6.79878044128418,0.9146341681480408,0.8536585569381714,1.7999999523162842,-20.100000381469727,5.25,40.21706008911133,0,
 534669,-0.014892578125,-0.92626953125,-0.248779296875,-4.1768293380737305,0.7012194991111755,1.0365853309631348,1.7999999523162842,-20.100000381469727,5.25,40.40875244140625,0,
 534679,-0.014892578125,-0.95751953125,-0.236083984375,-1.5243902206420898,0.7621951103210449,0.792682945728302,1.649999976158142,-20.25,4.949999809265137,40.40875244140625,0,
 534689,-0.02294921875,-0.97900390625,-0.228271484375,-0.7317073345184326,0.3048780560493469,0.4268292784690857,1.0499999523162842,-20.100000381469727,5.25,40.3608283996582,0,
 534700,-0.028076171875,-0.987548828125,-0.23046875,-2.3475611209869385,0.21341463923454285,0.6707317233085632,2.549999952316284,-20.549999237060547,6.0,40.40875244140625,0,
 534710,-0.0263671875,-0.98779296875,-0.218505859375,-3.6890244483947754,0.7012194991111755,0.3048780560493469,2.8499999046325684,-20.700000762939453,4.949999809265137,40.07329177856445,0,
 534720,-0.026123046875,-0.9814453125,-0.22900390625,-6.067073345184326,0.9451219439506531,0.24390244483947754,2.8499999046325684,-20.700000762939453,4.949999809265137,40.21706008911133,0,
 534730,-0.02197265625,-0.96435546875,-0.231201171875,-8.32317066192627,1.25,0.09146341681480408,1.2000000476837158,-21.149999618530273,5.699999809265137,40.552520751953125,0,
 534740,-0.0205078125,-0.943603515625,-0.249267578125,-9.481707572937012,0.9756097793579102,-0.4878048896789551,1.649999976158142,-19.200000762939453,6.900000095367432,40.40875244140625,0,
 534750,-0.006591796875,-0.912109375,-0.2646484375,-8.018292427062988,1.0670732259750366,-0.030487805604934692,3.5999999046325684,-21.450000762939453,5.400000095367432,40.40875244140625,0,
 534760,-0.010986328125,-0.921142578125,-0.26416015625,-4.6646342277526855,0.6707317233085632,0.3658536672592163,3.5999999046325684,-21.450000762939453,5.400000095367432,40.21706008911133,0,
 534770,-0.0126953125,-0.943359375,-0.24658203125,-2.22560977935791,0.6097561120986938,0.8231707215309143,0.8999999761581421,-19.950000762939453,4.949999809265137,40.50459671020508,0,
 534780,-0.01220703125,-0.96142578125,-0.232666015625,-1.097561001777649,0.5182926654815674,0.7621951103210449,1.7999999523162842,-21.75,6.0,40.3608283996582,0,
 534790,-0.021240234375,-0.965576171875,-0.231201171875,-2.103658676147461,0.7317073345184326,0.9146341681480408,1.5,-20.100000381469727,4.050000190734863,40.264984130859375,0,
 534800,-0.02099609375,-0.94873046875,-0.244140625,-3.2926828861236572,0.6097561120986938,1.097561001777649,1.5,-20.100000381469727,4.050000190734863,40.16913604736328,0,
 534810,-0.019775390625,-0.9423828125,-0.25146484375,-3.0182926654815674,0.8536585569381714,0.4573170840740204,2.25,-20.850000381469727,5.550000190734863,40.16913604736328,0,
 534820,-0.0234375,-0.94482421875,-0.255126953125,-1.8902438879013062,0.9451219439506531,0.24390244483947754,1.0499999523162842,-19.350000381469727,4.050000190734863,40.40875244140625,0,
 534830,-0.025146484375,-0.94775390625,-0.25,-0.5792682766914368,0.6707317233085632,-0.030487805604934692,0.75,-21.299999237060547,3.75,40.3608283996582,0,
 534840,-0.012939453125,-0.9423828125,-0.251708984375,0.3353658616542816,0.7317073345184326,0.12195122241973877,0.75,-21.299999237060547,3.75,40.552520751953125,0,
 534850,-0.018798828125,-0.9365234375,-0.251708984375,1.432926893234253,0.3658536672592163,1.6158536672592163,2.0999999046325684,-19.5,6.150000095367432,39.977447509765625,0,
 534860,-0.0224609375,-0.94873046875,-0.2568359375,2.317073106765747,0.24390244483947754,1.2195122241973877,2.0999999046325684,-20.25,5.699999809265137,40.264984130859375,0,
 534870,-0.0126953125,-0.949462890625,-0.248046875,2.378048896789551,0.3658536672592163,1.3109756708145142,3.0,-21.299999237060547,4.5,40.552520751953125,0,
 534880,-0.01416015625,-0.9560546875,-0.23779296875,2.408536672592163,0.0,1.3109756708145142,1.5,-21.75,6.0,40.50459671020508,0,
 534890,-0.023681640625,-0.974853515625,-0.233154296875,1.1280487775802612,0.21341463923454285,0.8231707215309143,1.5,-22.049999237060547,6.0,40.3608283996582,0,
 534900,-0.02587890625,-0.965087890625,-0.238525390625,0.3048780560493469,0.3658536672592163,0.5487805008888245,2.0999999046325684,-22.350000381469727,4.949999809265137,40.3608283996582,0,
 534910,-0.0234375,-0.960205078125,-0.234619140625,-0.09146341681480408,0.18292683362960815,-0.4573170840740204,3.5999999046325684,-20.25,4.949999809265137,40.3608283996582,0,
 534930,-0.019775390625,-0.967041015625,-0.234130859375,-1.585365891456604,0.21341463923454285,-0.7621951103210449,2.0999999046325684,-19.200000762939453,5.699999809265137,40.40875244140625,0,
 534940,-0.02001953125,-0.9521484375,-0.242919921875,-1.4939024448394775,0.4268292784690857,-0.8231707215309143,1.7999999523162842,-20.549999237060547,5.550000190734863,40.60044479370117,0,
 534950,-0.018798828125,-0.937255859375,-0.247802734375,-0.4878048896789551,0.4268292784690857,-1.2804877758026123,2.8499999046325684,-18.75,5.400000095367432,40.16913604736328,0,
 534960,-0.01171875,-0.939208984375,-0.25244140625,0.0,0.030487805604934692,-0.8231707215309143,2.25,-23.25,5.25,40.40875244140625,0,
 534970,-0.019775390625,-0.95263671875,-0.256591796875,1.402438998222351,0.396341472864151,-0.24390244483947754,2.25,-23.25,5.25,40.3608283996582,0,
 534980,-0.019287109375,-0.96142578125,-0.23974609375,1.2804877758026123,0.3353658616542816,-0.18292683362960815,1.7999999523162842,-20.850000381469727,7.050000190734863,40.3608283996582,0,
 534990,-0.021240234375,-0.958251953125,-0.23974609375,1.1890244483947754,0.6707317233085632,-0.5487805008888245,2.0999999046325684,-20.25,6.449999809265137,40.40875244140625,0,
 535000,-0.026123046875,-0.956298828125,-0.239990234375,0.396341472864151,0.396341472864151,-0.8841463327407837,2.549999952316284,-20.549999237060547,7.050000190734863,40.3608283996582,0,
 535010,-0.024169921875,-0.9541015625,-0.243896484375,0.7317073345184326,0.4878048896789551,-1.3109756708145142,2.549999952316284,-20.549999237060547,7.050000190734863,40.3608283996582,0,
 535020,-0.016357421875,-0.959228515625,-0.2451171875,0.9451219439506531,0.4573170840740204,-1.6768293380737305,2.8499999046325684,-20.700000762939453,6.150000095367432,40.552520751953125,0,
 535030,-0.01611328125,-0.971435546875,-0.239501953125,0.9756097793579102,0.3353658616542816,-1.9512195587158203,0.15000000596046448,-22.649999618530273,4.949999809265137,40.3608283996582,0,
 535040,-0.017333984375,-0.956787109375,-0.239990234375,0.3048780560493469,0.6402438879013062,-2.4390244483947754,3.1500000953674316,-20.700000762939453,5.699999809265137,40.552520751953125,0,
 535050,-0.01416015625,-0.954345703125,-0.240966796875,-0.4878048896789551,0.7012194991111755,-1.920731782913208,3.1500000953674316,-20.700000762939453,5.699999809265137,40.3608283996582,0,
 535060,-0.014892578125,-0.94677734375,-0.24267578125,-0.3048780560493469,0.5792682766914368,-1.9817073345184326,1.0499999523162842,-23.25,4.5,40.3608283996582,0,
 535070,-0.006103515625,-0.9384765625,-0.24658203125,0.030487805604934692,0.6402438879013062,-1.7987805604934692,2.549999952316284,-20.100000381469727,6.0,40.3608283996582,0,
 535080,-0.011474609375,-0.93505859375,-0.24609375,1.25,0.7621951103210449,-1.1890244483947754,1.0499999523162842,-20.549999237060547,6.0,40.40875244140625,0,
 535090,-0.010009765625,-0.9326171875,-0.245361328125,2.896341562271118,0.4878048896789551,-0.9146341681480408,2.4000000953674316,-19.950000762939453,4.949999809265137,40.60044479370117,0,
 535100,-0.01123046875,-0.954833984375,-0.2412109375,3.9939024448394775,0.7621951103210449,-0.4573170840740204,1.2000000476837158,-19.950000762939453,5.699999809265137,40.3608283996582,0,
 535110,-0.01708984375,-0.96142578125,-0.234619140625,3.628048896789551,0.6097561120986938,-0.6097561120986938,1.5,-20.549999237060547,5.550000190734863,40.21706008911133,0,
 535120,-0.01611328125,-0.954833984375,-0.234375,3.3841464519500732,0.3658536672592163,0.030487805604934692,1.7999999523162842,-21.299999237060547,6.300000190734863,40.264984130859375,0,
 535130,-0.015625,-0.953369140625,-0.2392578125,3.567073345184326,0.8231707215309143,-0.3353658616542816,5.099999904632568,-19.5,2.4000000953674316,40.3608283996582,0,
 535140,-0.013427734375,-0.944091796875,-0.239501953125,3.7804877758026123,0.15243902802467346,0.0,5.099999904632568,-19.5,2.4000000953674316,40.552520751953125,0,
 535150,-0.01513671875,-0.947265625,-0.23974609375,4.5731706619262695,0.3048780560493469,0.060975611209869385,2.549999952316284,-20.850000381469727,6.300000190734863,40.21706008911133,0,
 535160,-0.01318359375,-0.953369140625,-0.23095703125,4.969512462615967,0.15243902802467346,0.4878048896789551,2.4000000953674316,-21.899999618530273,5.699999809265137,40.40875244140625,0,
 535170,-0.011962890625,-0.956298828125,-0.22705078125,5.365853786468506,0.060975611209869385,0.21341463923454285,0.75,-19.799999237060547,5.550000190734863,40.60044479370117,0,
 535180,-0.016357421875,-0.949951171875,-0.22998046875,4.5731706619262695,0.3353658616542816,0.21341463923454285,0.75,-19.799999237060547,5.550000190734863,40.50459671020508,0,
 535190,-0.0146484375,-0.9501953125,-0.23486328125,4.72560977935791,-0.030487805604934692,0.09146341681480408,2.8499999046325684,-19.5,5.400000095367432,40.40875244140625,0,
 535200,-0.01513671875,-0.946044921875,-0.23046875,5.091463565826416,0.09146341681480408,0.0,1.5,-20.100000381469727,5.25,40.3608283996582,0,
 535210,-0.024169921875,-0.95458984375,-0.2275390625,5.060975551605225,0.030487805604934692,-0.21341463923454285,1.2000000476837158,-19.5,5.699999809265137,40.40875244140625,0,
 535220,-0.011474609375,-0.9638671875,-0.215087890625,5.060975551605225,-0.12195122241973877,-0.4268292784690857,1.2000000476837158,-19.5,5.699999809265137,40.3608283996582,0,
 535230,-0.010498046875,-0.968017578125,-0.213623046875,4.0853657722473145,-0.3048780560493469,-0.18292683362960815,-0.15000000596046448,-18.0,3.9000000953674316,40.40875244140625,0,
 535240,-0.013916015625,-0.97119140625,-0.2236328125,2.5609755516052246,0.15243902802467346,0.6402438879013062,0.75,-21.299999237060547,5.550000190734863,40.40875244140625,0,
 535250,-0.018310546875,-0.96484375,-0.220947265625,1.0365853309631348,0.3353658616542816,0.3658536672592163,0.75,-19.799999237060547,5.550000190734863,40.21706008911133,0,
 535260,-0.013916015625,-0.952392578125,-0.229248046875,0.0,0.7012194991111755,0.27439025044441223,0.75,-19.799999237060547,5.550000190734863,40.40875244140625,0,
 535270,-0.0107421875,-0.954833984375,-0.228515625,-0.15243902802467346,0.4268292784690857,0.3048780560493469,1.0499999523162842,-19.799999237060547,6.300000190734863,40.40875244140625,0,
 535280,-0.013916015625,-0.950927734375,-0.229248046875,0.12195122241973877,0.27439025044441223,-0.18292683362960815,1.7999999523162842,-20.549999237060547,6.0,40.07329177856445,0,
 535290,-0.01025390625,-0.9560546875,-0.225830078125,0.3048780560493469,0.060975611209869385,-0.4573170840740204,3.1500000953674316,-20.25,5.400000095367432,40.21706008911133,0,
 535300,-0.0146484375,-0.9599609375,-0.22998046875,0.396341472864151,0.12195122241973877,-0.6097561120986938,1.5,-19.799999237060547,5.25,40.50459671020508,0,
 535310,-0.006591796875,-0.954833984375,-0.226806640625,0.4573170840740204,0.060975611209869385,-0.15243902802467346,1.5,-18.899999618530273,5.550000190734863,40.552520751953125,0,
 535320,-0.01318359375,-0.95654296875,-0.226318359375,0.396341472864151,0.24390244483947754,-0.3048780560493469,2.549999952316284,-20.100000381469727,6.0,40.40875244140625,0,
 535330,-0.01806640625,-0.952880859375,-0.22412109375,0.3658536672592163,0.24390244483947754,-0.030487805604934692,2.25,-20.850000381469727,5.550000190734863,40.21706008911133,0,
 535340,-0.012939453125,-0.95751953125,-0.22265625,-0.396341472864151,0.24390244483947754,0.030487805604934692,3.5999999046325684,-22.350000381469727,4.949999809265137,40.07329177856445,0,
 535360,-0.019287109375,-0.947021484375,-0.227294921875,0.3658536672592163,0.09146341681480408,0.18292683362960815,1.5,-20.850000381469727,5.550000190734863,40.40875244140625,0,
 535370,-0.005615234375,-0.95751953125,-0.225830078125,0.6707317233085632,0.15243902802467346,-0.3353658616542816,0.8999999761581421,-20.25,5.400000095367432,40.6962890625,0,
 535380,-0.019287109375,-0.957275390625,-0.22607421875,0.5792682766914368,-0.030487805604934692,-0.27439025044441223,0.30000001192092896,-19.799999237060547,5.25,40.50459671020508,0,
 535390,-0.01611328125,-0.95751953125,-0.224853515625,0.3048780560493469,0.27439025044441223,0.0,0.30000001192092896,-19.799999237060547,5.25,40.16913604736328,0,
 535400,-0.017333984375,-0.95654296875,-0.22607421875,0.4878048896789551,0.3353658616542816,0.09146341681480408,1.2000000476837158,-22.350000381469727,4.199999809265137,40.40875244140625,0,
 535410,-0.0107421875,-0.955322265625,-0.224853515625,0.21341463923454285,0.3048780560493469,-0.030487805604934692,1.7999999523162842,-18.899999618530273,7.050000190734863,40.3608283996582,0,
 535420,-0.0078125,-0.95849609375,-0.22998046875,0.060975611209869385,0.3353658616542816,0.4878048896789551,1.2000000476837158,-19.950000762939453,4.650000095367432,40.40875244140625,0,
 535430,-0.008056640625,-0.961669921875,-0.224609375,-0.24390244483947754,0.3353658616542816,0.24390244483947754,1.2000000476837158,-19.950000762939453,4.650000095367432,40.50459671020508,0,
 535440,-0.013916015625,-0.95849609375,-0.22705078125,-0.396341472864151,0.6097561120986938,0.12195122241973877,4.199999809265137,-20.100000381469727,4.050000190734863,40.16913604736328,0,
 535450,-0.017578125,-0.95751953125,-0.2275390625,0.060975611209869385,0.5182926654815674,0.4268292784690857,2.549999952316284,-19.350000381469727,5.25,40.21706008911133,0,
 535460,-0.016845703125,-0.952880859375,-0.227294921875,0.24390244483947754,0.15243902802467346,0.4878048896789551,2.549999952316284,-22.049999237060547,5.550000190734863,40.40875244140625,0,
 535470,-0.010009765625,-0.95556640625,-0.2255859375,0.8841463327407837,0.4573170840740204,0.4878048896789551,2.549999952316284,-22.049999237060547,5.550000190734863,40.40875244140625,0,
 535481,-0.010986328125,-0.95263671875,-0.222900390625,0.9451219439506531,0.15243902802467346,0.7012194991111755,2.549999952316284,-18.600000381469727,4.5,40.21706008911133,0,
 535491,-0.014892578125,-0.95361328125,-0.22509765625,1.3719512224197388,-0.12195122241973877,0.7621951103210449,2.8499999046325684,-21.149999618530273,7.199999809265137,40.16913604736328,0,
 535501,-0.0166015625,-0.958984375,-0.229736328125,1.6463414430618286,0.0,1.0670732259750366,1.5,-20.850000381469727,5.25,40.21706008911133,0,
 535511,-0.017578125,-0.95458984375,-0.226806640625,2.408536672592163,-0.060975611209869385,0.7621951103210449,3.0,-19.350000381469727,5.550000190734863,40.16913604736328,0,
 535521,-0.01806640625,-0.95703125,-0.225830078125,2.9268293380737305,0.030487805604934692,0.9146341681480408,3.0,-19.350000381469727,5.550000190734863,40.552520751953125,0,
 535531,-0.008056640625,-0.9560546875,-0.22119140625,2.865853786468506,0.18292683362960815,1.2804877758026123,1.2000000476837158,-21.149999618530273,6.900000095367432,40.40875244140625,0,
 535541,-0.010986328125,-0.954833984375,-0.223876953125,2.865853786468506,-0.030487805604934692,0.8841463327407837,3.0,-19.799999237060547,2.25,40.16913604736328,0,
 535551,-0.0126953125,-0.951904296875,-0.229248046875,3.3841464519500732,0.09146341681480408,1.0365853309631348,-0.15000000596046448,-21.149999618530273,4.949999809265137,40.3608283996582,0,
 535561,-0.015380859375,-0.95703125,-0.219482421875,3.4146342277526855,-0.21341463923454285,1.1585365533828735,-0.15000000596046448,-21.149999618530273,4.949999809265137,40.40875244140625,0,
 535571,-0.012939453125,-0.954833984375,-0.218994140625,3.5365853309631348,-0.09146341681480408,1.3109756708145142,2.0999999046325684,-19.5,5.699999809265137,40.3608283996582,0,
 535581,-0.013916015625,-0.9560546875,-0.216552734375,3.5060975551605225,-0.060975611209869385,0.9451219439506531,1.5,-20.100000381469727,6.0,40.60044479370117,0,
 535591,-0.017578125,-0.962646484375,-0.216796875,3.2012195587158203,0.09146341681480408,1.1585365533828735,2.8499999046325684,-21.149999618530273,6.150000095367432,40.21706008911133,0,
 535601,-0.009521484375,-0.95751953125,-0.218994140625,3.1402440071105957,-0.030487805604934692,0.7317073345184326,2.8499999046325684,-21.149999618530273,6.150000095367432,40.16913604736328,0,
 535611,-0.01025390625,-0.95849609375,-0.217041015625,3.2317073345184326,0.12195122241973877,0.4878048896789551,2.25,-19.799999237060547,6.0,40.552520751953125,0,
 535621,-0.01416015625,-0.960205078125,-0.213134765625,2.7439024448394775,0.09146341681480408,0.4878048896789551,2.8499999046325684,-18.299999237060547,6.900000095367432,40.40875244140625,0,
 535631,-0.019775390625,-0.96728515625,-0.215576171875,2.408536672592163,0.3353658616542816,0.6402438879013062,2.4000000953674316,-18.299999237060547,4.949999809265137,40.21706008911133,0,
 535741,-0.011962890625,-0.9599609375,-0.21435546875,-1.097561001777649,0.3353658616542816,0.27439025044441223,1.5,-21.299999237060547,2.25,40.552520751953125,0,
 535751,-0.01904296875,-0.958984375,-0.211669921875,-1.25,0.18292683362960815,0.4573170840740204,1.7999999523162842,-20.549999237060547,4.800000190734863,40.50459671020508,0,
 535761,-0.009765625,-0.952880859375,-0.216796875,-1.25,0.6402438879013062,0.4573170840740204,2.0999999046325684,-19.5,5.400000095367432,40.552520751953125,0,
 535771,-0.021728515625,-0.958740234375,-0.214599609375,-1.2804877758026123,0.4268292784690857,0.12195122241973877,2.0999999046325684,-19.5,5.400000095367432,40.3608283996582,0,
 535781,-0.016845703125,-0.957763671875,-0.21728515625,-0.7012194991111755,0.6402438879013062,0.3658536672592163,2.4000000953674316,-21.149999618530273,4.199999809265137,40.264984130859375,0,
 535791,-0.009521484375,-0.95458984375,-0.21484375,-0.7621951103210449,0.4878048896789551,0.5487805008888245,2.25,-18.600000381469727,5.25,40.264984130859375,0,
 535801,-0.015380859375,-0.957763671875,-0.220458984375,-0.6402438879013062,0.396341472864151,0.15243902802467346,0.8999999761581421,-19.950000762939453,2.4000000953674316,40.264984130859375,0,
 535811,-0.01318359375,-0.952880859375,-0.219970703125,-0.3048780560493469,0.3353658616542816,0.24390244483947754,0.8999999761581421,-19.950000762939453,2.4000000953674316,40.40875244140625,0,
 535821,-0.01416015625,-0.956298828125,-0.21533203125,0.21341463923454285,0.3048780560493469,0.396341472864151,2.25,-20.549999237060547,4.5,40.3608283996582,0,
 535831,-0.016357421875,-0.958984375,-0.217041015625,0.3353658616542816,0.4268292784690857,0.09146341681480408,2.0999999046325684,-20.25,4.949999809265137,40.16913604736328,0,
 535841,-0.01220703125,-0.95361328125,-0.2158203125,0.3353658616542816,0.18292683362960815,0.18292683362960815,2.0999999046325684,-19.950000762939453,4.949999809265137,40.40875244140625,0,
 535851,-0.016357421875,-0.96142578125,-0.215087890625,0.21341463923454285,0.4573170840740204,0.030487805604934692,2.0999999046325684,-19.950000762939453,4.949999809265137,40.40875244140625,0,
 535861,-0.01220703125,-0.958251953125,-0.208251953125,0.4878048896789551,0.3048780560493469,0.3048780560493469,2.8499999046325684,-19.5,4.650000095367432,40.3608283996582,0,
 535871,-0.012451171875,-0.956787109375,-0.21728515625,0.8841463327407837,0.4573170840740204,0.5487805008888245,2.4000000953674316,-21.149999618530273,6.449999809265137,40.50459671020508,0,
 535881,-0.018798828125,-0.9521484375,-0.21533203125,0.8536585569381714,0.3353658616542816,0.7317073345184326,2.25,-19.799999237060547,6.0,40.16913604736328,0,
 535891,-0.0146484375,-0.95654296875,-0.214599609375,0.7317073345184326,0.3353658616542816,0.15243902802467346,3.1500000953674316,-19.200000762939453,4.949999809265137,40.264984130859375,0,
 535901,-0.019287109375,-0.95458984375,-0.21533203125,1.1280487775802612,0.5487805008888245,0.5792682766914368,3.0,-20.100000381469727,4.800000190734863,40.40875244140625,0,
 535911,-0.0146484375,-0.95458984375,-0.21484375,1.25,0.3353658616542816,0.6402438879013062,2.0999999046325684,-20.700000762939453,4.650000095367432,40.40875244140625,0,
 535921,-0.016845703125,-0.96044921875,-0.215087890625,1.4634146690368652,0.3353658616542816,0.4573170840740204,1.5,-18.899999618530273,4.800000190734863,40.21706008911133,0,
 535931,-0.01416015625,-0.956787109375,-0.21435546875,1.1890244483947754,0.6402438879013062,0.9451219439506531,2.0999999046325684,-19.950000762939453,4.199999809265137,40.264984130859375,0,
 535941,-0.01806640625,-0.95703125,-0.21484375,1.402438998222351,0.18292683362960815,0.3658536672592163,2.0999999046325684,-19.950000762939453,4.199999809265137,40.40875244140625,0,
 535951,-0.030029296875,-0.958984375,-0.21044921875,1.4939024448394775,0.15243902802467346,0.5792682766914368,3.299999952316284,-21.75,3.75,40.264984130859375,0,
 535961,-0.017333984375,-0.95166015625,-0.215576171875,1.3414634466171265,0.4573170840740204,1.097561001777649,3.0,-20.850000381469727,6.0,40.40875244140625,0,
 535971,-0.014892578125,-0.9638671875,-0.21142578125,1.097561001777649,0.27439025044441223,0.27439025044441223,2.8499999046325684,-18.299999237060547,4.650000095367432,40.264984130859375,0,
 535981,-0.01513671875,-0.95751953125,-0.212890625,0.792682945728302,0.0,0.7621951103210449,2.8499999046325684,-18.299999237060547,4.650000095367432,40.025367736816406,0,
 535991,-0.01416015625,-0.958984375,-0.209228515625,0.8841463327407837,0.24390244483947754,0.7012194991111755,2.0999999046325684,-19.5,4.199999809265137,40.3608283996582,0,
 536001,-0.020751953125,-0.966796875,-0.2099609375,0.8536585569381714,0.5487805008888245,0.5792682766914368,2.8499999046325684,-20.25,5.699999809265137,40.264984130859375,0,
 536011,-0.00927734375,-0.956298828125,-0.215087890625,0.9146341681480408,0.4878048896789551,0.5182926654815674,2.549999952316284,-20.850000381469727,3.75,40.16913604736328,0,
 536021,-0.016845703125,-0.962158203125,-0.211669921875,0.5792682766914368,0.12195122241973877,0.5792682766914368,2.549999952316284,-20.850000381469727,3.75,40.16913604736328,0,
 536031,-0.013671875,-0.962890625,-0.208984375,0.3658536672592163,0.4268292784690857,0.5792682766914368,1.7999999523162842,-21.75,5.550000190734863,40.025367736816406,0,
 536041,-0.0146484375,-0.953125,-0.2119140625,0.3353658616542816,0.3658536672592163,0.6097561120986938,3.299999952316284,-18.149999618530273,4.800000190734863,40.16913604736328,0,
 536051,-0.015380859375,-0.958251953125,-0.208251953125,0.3658536672592163,0.5487805008888245,0.27439025044441223,3.0,-19.350000381469727,3.299999952316284,40.264984130859375,0,
 536061,-0.018310546875,-0.959716796875,-0.206298828125,0.12195122241973877,0.3353658616542816,0.9146341681480408,3.0,-19.350000381469727,3.299999952316284,40.50459671020508,0,
 536071,-0.01416015625,-0.962158203125,-0.2138671875,0.3048780560493469,0.4878048896789551,0.6707317233085632,1.2000000476837158,-19.950000762939453,4.949999809265137,40.552520751953125,0,
 536081,-0.016357421875,-0.961669921875,-0.20751953125,0.3048780560493469,0.6402438879013062,0.4268292784690857,3.9000000953674316,-18.75,4.949999809265137,40.07329177856445,0,
 536091,-0.01318359375,-0.9609375,-0.2158203125,0.0,0.27439025044441223,0.7317073345184326,2.0999999046325684,-20.700000762939453,5.699999809265137,40.40875244140625,0,
 536101,-0.016357421875,-0.954345703125,-0.213623046875,-0.21341463923454285,0.3048780560493469,0.6402438879013062,1.649999976158142,-19.950000762939453,5.400000095367432,40.21706008911133,0,
 536111,-0.01611328125,-0.96484375,-0.205322265625,-0.12195122241973877,0.6097561120986938,0.6097561120986938,1.649999976158142,-19.950000762939453,5.400000095367432,40.40875244140625,0,
 536121,-0.012939453125,-0.96142578125,-0.211181640625,-0.3353658616542816,0.3658536672592163,0.5487805008888245,1.649999976158142,-20.700000762939453,4.949999809265137,40.40875244140625,0,
 536131,-0.012939453125,-0.961181640625,-0.210693359375,0.030487805604934692,0.15243902802467346,0.4268292784690857,2.0999999046325684,-21.149999618530273,4.199999809265137,40.40875244140625,0,
 536141,-0.018798828125,-0.96240234375,-0.215576171875,0.030487805604934692,0.4878048896789551,0.4573170840740204,2.8499999046325684,-19.950000762939453,6.150000095367432,40.552520751953125,0,
 536151,-0.01416015625,-0.95947265625,-0.208740234375,0.060975611209869385,0.3658536672592163,0.12195122241973877,2.8499999046325684,-19.950000762939453,6.150000095367432,40.50459671020508,0,
 536162,-0.016845703125,-0.964599609375,-0.20849609375,0.12195122241973877,0.4268292784690857,0.27439025044441223,2.0999999046325684,-19.200000762939453,5.400000095367432,40.3608283996582,0,
 536172,-0.020263671875,-0.96240234375,-0.208740234375,-0.030487805604934692,0.4878048896789551,0.4268292784690857,2.0999999046325684,-19.5,5.400000095367432,40.264984130859375,0,
 536182,-0.01611328125,-0.961181640625,-0.206787109375,-0.24390244483947754,0.396341472864151,0.3353658616542816,2.549999952316284,-20.100000381469727,5.550000190734863,40.40875244140625,0,
 536192,-0.014892578125,-0.959716796875,-0.209716796875,-0.5182926654815674,0.15243902802467346,0.396341472864151,2.549999952316284,-20.100000381469727,5.550000190734863,40.21706008911133,0,
 536202,-0.01708984375,-0.95703125,-0.21044921875,0.3048780560493469,0.24390244483947754,-0.030487805604934692,3.0,-21.75,4.050000190734863,40.16913604736328,0,
 536212,-0.01611328125,-0.95654296875,-0.205810546875,0.7621951103210449,-0.15243902802467346,0.3353658616542816,3.75,-21.299999237060547,5.550000190734863,40.40875244140625,0,
 536222,-0.01611328125,-0.96142578125,-0.20947265625,0.5182926654815674,0.12195122241973877,0.4268292784690857,1.5,-20.549999237060547,4.800000190734863,40.264984130859375,0,
 536232,-0.015869140625,-0.95654296875,-0.212646484375,0.8231707215309143,0.21341463923454285,0.18292683362960815,1.5,-20.549999237060547,4.800000190734863,40.3608283996582,0,
 536242,-0.011474609375,-0.9619140625,-0.20556640625,0.792682945728302,0.18292683362960815,0.3353658616542816,2.25,-19.799999237060547,4.800000190734863,40.21706008911133,0,
 536252,-0.01220703125,-0.96435546875,-0.206787109375,0.396341472864151,0.27439025044441223,0.8231707215309143,3.0,-21.299999237060547,4.800000190734863,40.552520751953125,0,
 536262,-0.017822265625,-0.962646484375,-0.207763671875,0.4878048896789551,0.24390244483947754,0.9756097793579102,1.7999999523162842,-20.100000381469727,6.300000190734863,40.21706008911133,0,
 536272,-0.013671875,-0.962158203125,-0.212890625,0.030487805604934692,0.24390244483947754,0.5487805008888245,1.7999999523162842,-20.100000381469727,6.300000190734863,39.88159942626953,0,
 536282,-0.0166015625,-0.957275390625,-0.20703125,0.0,0.3048780560493469,0.6097561120986938,2.8499999046325684,-21.149999618530273,4.650000095367432,40.264984130859375,0,
 536292,-0.019775390625,-0.957763671875,-0.204833984375,0.0,0.7317073345184326,0.5487805008888245,2.4000000953674316,-20.700000762939453,4.949999809265137,40.21706008911133,0,
 536302,-0.016357421875,-0.96044921875,-0.205322265625,-0.21341463923454285,0.4573170840740204,0.3353658616542816,2.8499999046325684,-19.5,5.699999809265137,40.264984130859375,0,
 536312,-0.013427734375,-0.96142578125,-0.20703125,-0.21341463923454285,0.6707317233085632,0.3658536672592163,3.299999952316284,-19.799999237060547,5.25,40.3608283996582,0,
 536322,-0.010498046875,-0.96435546875,-0.206787109375,-0.6097561120986938,0.3658536672592163,0.21341463923454285,3.299999952316284,-19.799999237060547,5.25,40.16913604736328,0,
 536332,-0.017822265625,-0.959228515625,-0.21337890625,-0.4878048896789551,0.6097561120986938,0.21341463923454285,2.4000000953674316,-18.75,4.650000095367432,40.3608283996582,0,
 536342,-0.019287109375,-0.95849609375,-0.213134765625,0.030487805604934692,0.396341472864151,0.3048780560493469,2.8499999046325684,-19.5,4.199999809265137,40.50459671020508,0,
 536352,-0.017578125,-0.961181640625,-0.20654296875,-0.7012194991111755,0.21341463923454285,0.3353658616542816,2.25,-20.850000381469727,4.5,40.40875244140625,0,
 536362,-0.01513671875,-0.96142578125,-0.208740234375,-0.4268292784690857,0.060975611209869385,0.5182926654815674,2.25,-20.850000381469727,4.5,40.3608283996582,0,
 536372,-0.0166015625,-0.964599609375,-0.210205078125,-0.9451219439506531,0.4878048896789551,0.6402438879013062,1.2000000476837158,-19.5,5.400000095367432,40.07329177856445,0,
 536382,-0.0205078125,-0.962158203125,-0.20654296875,-0.9146341681480408,0.396341472864151,0.4878048896789551,1.7999999523162842,-21.299999237060547,7.050000190734863,40.3608283996582,0,
 536392,-0.014892578125,-0.960205078125,-0.2119140625,-1.0365853309631348,0.3658536672592163,0.3658536672592163,2.549999952316284,-20.850000381469727,5.25,40.16913604736328,0,
 536402,-0.014892578125,-0.96044921875,-0.209716796875,-0.7012194991111755,0.3658536672592163,0.4573170840740204,2.549999952316284,-20.850000381469727,5.25,40.40875244140625,0,
 536412,-0.013916015625,-0.959228515625,-0.204345703125,-0.7317073345184326,0.3658536672592163,0.4878048896789551,2.0999999046325684,-19.5,4.949999809265137,40.50459671020508,0,
 536422,-0.022705078125,-0.96337890625,-0.212646484375,-0.7621951103210449,0.3353658616542816,0.4878048896789551,1.7999999523162842,-20.549999237060547,6.0,40.16913604736328,0,
 536432,-0.008544921875,-0.965576171875,-0.2021484375,-0.6097561120986938,0.09146341681480408,0.24390244483947754,2.8499999046325684,-20.25,3.9000000953674316,40.3608283996582,0,
 536442,-0.015625,-0.960205078125,-0.204345703125,-0.7012194991111755,0.18292683362960815,-0.21341463923454285,2.8499999046325684,-20.25,3.9000000953674316,40.3608283996582,0,
 536452,-0.018310546875,-0.966064453125,-0.209716796875,-0.3658536672592163,0.18292683362960815,0.15243902802467346,2.0999999046325684,-20.700000762939453,4.199999809265137,40.3608283996582,0,
 536462,-0.018798828125,-0.962646484375,-0.205078125,-0.7621951103210449,0.396341472864151,0.24390244483947754,4.650000095367432,-18.75,3.1500000953674316,40.3608283996582,0,
 536472,-0.018798828125,-0.957763671875,-0.20751953125,-0.6402438879013062,0.3048780560493469,0.21341463923454285,1.649999976158142,-20.25,4.949999809265137,40.21706008911133,0,
 536482,-0.016845703125,-0.955078125,-0.206298828125,-0.6402438879013062,0.4573170840740204,0.030487805604934692,1.649999976158142,-20.25,4.949999809265137,40.3608283996582,0,
 536492,-0.015625,-0.957763671875,-0.207763671875,-0.6402438879013062,0.4573170840740204,0.4268292784690857,2.0999999046325684,-19.200000762939453,5.400000095367432,40.3608283996582,0,
 536502,-0.019775390625,-0.957763671875,-0.208740234375,-0.5182926654815674,0.15243902802467346,0.5182926654815674,2.25,-21.299999237060547,6.300000190734863,40.3608283996582,0,
 536512,-0.01708984375,-0.9599609375,-0.20947265625,-0.5792682766914368,0.21341463923454285,0.060975611209869385,2.4000000953674316,-20.700000762939453,4.199999809265137,40.3608283996582,0,
 536522,-0.023193359375,-0.960693359375,-0.21142578125,-0.9146341681480408,0.24390244483947754,0.09146341681480408,1.7999999523162842,-19.799999237060547,6.300000190734863,40.21706008911133,0,
 536532,-0.01171875,-0.961669921875,-0.21630859375,-0.6097561120986938,0.21341463923454285,-0.060975611209869385,1.7999999523162842,-19.799999237060547,6.300000190734863,40.21706008911133,0,
 536542,-0.01513671875,-0.960693359375,-0.21044921875,-0.4573170840740204,0.3658536672592163,0.21341463923454285,2.8499999046325684,-18.0,5.699999809265137,40.16913604736328,0,
 536552,-0.021240234375,-0.958984375,-0.21337890625,-0.4268292784690857,0.4268292784690857,0.4268292784690857,2.549999952316284,-19.350000381469727,4.800000190734863,40.3608283996582,0,
 536562,-0.01513671875,-0.958740234375,-0.21484375,-0.3048780560493469,0.396341472864151,-0.030487805604934692,1.2000000476837158,-18.299999237060547,4.650000095367432,40.3608283996582,0,
 536572,-0.015869140625,-0.962158203125,-0.205078125,-0.24390244483947754,0.396341472864151,0.3353658616542816,1.2000000476837158,-18.299999237060547,4.650000095367432,40.21706008911133,0,
 536582,-0.018310546875,-0.960693359375,-0.20849609375,-0.27439025044441223,0.3048780560493469,0.27439025044441223,2.0999999046325684,-19.950000762939453,5.400000095367432,40.3608283996582,0,
 536592,-0.01318359375,-0.96875,-0.206298828125,-0.3048780560493469,0.18292683362960815,0.27439025044441223,1.5,-20.100000381469727,6.0,40.3608283996582,0,
 536602,-0.01953125,-0.966796875,-0.20556640625,-0.5792682766914368,0.3048780560493469,0.4268292784690857,2.549999952316284,-20.100000381469727,5.25,40.3608283996582,0,
 536612,-0.01123046875,-0.955810546875,-0.2119140625,-0.7621951103210449,0.3658536672592163,0.3353658616542816,2.549999952316284,-20.100000381469727,5.25,40.3608283996582,0,
 536622,-0.01171875,-0.958740234375,-0.2001953125,-0.396341472864151,0.4878048896789551,0.24390244483947754,2.25,-17.399999618530273,4.800000190734863,40.40875244140625,0,
 536632,-0.011962890625,-0.96435546875,-0.206787109375,-0.24390244483947754,0.4573170840740204,0.3658536672592163,3.1500000953674316,-19.950000762939453,6.900000095367432,40.50459671020508,0,
 536642,-0.01953125,-0.9609375,-0.210693359375,-0.5792682766914368,0.792682945728302,0.0,1.5,-18.899999618530273,6.0,40.40875244140625,0,
 536652,-0.016357421875,-0.9609375,-0.2080078125,-0.3658536672592163,0.6097561120986938,0.3353658616542816,1.5,-18.899999618530273,6.0,40.50459671020508,0,
 536662,-0.014892578125,-0.96435546875,-0.20556640625,-0.5487805008888245,0.12195122241973877,0.18292683362960815,2.25,-21.299999237060547,4.800000190734863,40.16913604736328,0,
 536672,-0.01953125,-0.958251953125,-0.20947265625,-0.9756097793579102,0.27439025044441223,0.4268292784690857,1.649999976158142,-19.200000762939453,6.150000095367432,40.264984130859375,0,
 536682,-0.02001953125,-0.964599609375,-0.208984375,-0.9756097793579102,0.396341472864151,-0.030487805604934692,2.8499999046325684,-19.5,3.9000000953674316,40.552520751953125,0,
 536692,-0.018310546875,-0.958251953125,-0.20849609375,-0.792682945728302,0.4573170840740204,0.21341463923454285,2.8499999046325684,-19.5,3.9000000953674316,40.60044479370117,0,
 536702,-0.01025390625,-0.95361328125,-0.204345703125,-0.4573170840740204,0.4878048896789551,0.030487805604934692,2.0999999046325684,-19.200000762939453,5.400000095367432,40.60044479370117,0,
 536712,-0.017578125,-0.955322265625,-0.201416015625,-0.4573170840740204,0.396341472864151,0.3048780560493469,3.75,-20.549999237060547,6.75,40.16913604736328,0,
 536722,-0.015869140625,-0.962646484375,-0.2080078125,-0.9146341681480408,0.3048780560493469,0.27439025044441223,1.649999976158142,-20.700000762939453,4.949999809265137,40.264984130859375,0,
 536732,-0.0146484375,-0.958984375,-0.20849609375,-0.6097561120986938,0.27439025044441223,0.15243902802467346,2.0999999046325684,-19.5,6.150000095367432,40.3608283996582,0,
 536742,-0.015380859375,-0.962646484375,-0.207763671875,-0.9451219439506531,0.396341472864151,0.21341463923454285,2.0999999046325684,-19.5,6.150000095367432,40.3608283996582,0,
 536752,-0.013671875,-0.95263671875,-0.20751953125,-1.0365853309631348,0.3353658616542816,-0.060975611209869385,4.349999904632568,-19.5,4.199999809265137,40.16913604736328,0,
 536762,-0.013916015625,-0.95751953125,-0.210693359375,-0.8231707215309143,0.4268292784690857,0.3048780560493469,3.0,-19.799999237060547,5.550000190734863,40.025367736816406,0,
 536772,-0.014404296875,-0.9609375,-0.206787109375,-0.8536585569381714,0.24390244483947754,0.21341463923454285,0.8999999761581421,-20.25,4.949999809265137,40.3608283996582,0,
 536782,-0.013427734375,-0.958251953125,-0.208251953125,-0.7317073345184326,0.18292683362960815,0.060975611209869385,0.8999999761581421,-20.25,4.949999809265137,40.40875244140625,0,
 536792,-0.016357421875,-0.95849609375,-0.21240234375,-0.9451219439506531,0.21341463923454285,0.15243902802467346,1.649999976158142,-21.149999618530273,4.949999809265137,40.50459671020508,0,
 536802,-0.0166015625,-0.96142578125,-0.20947265625,-1.1280487775802612,0.3353658616542816,0.21341463923454285,1.7999999523162842,-19.350000381469727,3.75,40.40875244140625,0,
 536812,-0.01708984375,-0.961181640625,-0.20947265625,-1.2195122241973877,0.24390244483947754,0.18292683362960815,3.5999999046325684,-20.25,5.400000095367432,40.16913604736328,0,
 536822,-0.0185546875,-0.955322265625,-0.2109375,-0.27439025044441223,0.27439025044441223,0.27439025044441223,3.5999999046325684,-20.25,5.400000095367432,40.3608283996582,0,
 536832,-0.01416015625,-0.961181640625,-0.208740234375,-0.792682945728302,0.3658536672592163,0.12195122241973877,2.0999999046325684,-19.950000762939453,4.650000095367432,40.40875244140625,0,
 536842,-0.013916015625,-0.959228515625,-0.2080078125,-0.7317073345184326,0.24390244483947754,0.18292683362960815,1.7999999523162842,-20.100000381469727,6.75,40.50459671020508,0,
 536853,-0.01953125,-0.95849609375,-0.21044921875,-1.0365853309631348,0.4573170840740204,0.09146341681480408,1.0499999523162842,-19.799999237060547,4.800000190734863,40.3608283996582,0,
 536863,-0.013427734375,-0.95751953125,-0.207763671875,-0.4878048896789551,0.3658536672592163,0.6097561120986938,1.0499999523162842,-19.799999237060547,4.800000190734863,40.264984130859375,0,
 536873,-0.0087890625,-0.960205078125,-0.20849609375,-0.3658536672592163,0.3658536672592163,0.18292683362960815,3.9000000953674316,-19.950000762939453,2.4000000953674316,40.40875244140625,0,
 536883,-0.019775390625,-0.95849609375,-0.20703125,-0.24390244483947754,0.09146341681480408,0.6097561120986938,1.7999999523162842,-19.350000381469727,4.050000190734863,40.3608283996582,0,
 536893,-0.01904296875,-0.95947265625,-0.207275390625,-0.6707317233085632,0.21341463923454285,0.27439025044441223,0.44999998807907104,-19.200000762939453,5.699999809265137,40.40875244140625,0,
 536903,-0.015380859375,-0.958984375,-0.208251953125,-0.8231707215309143,0.4573170840740204,0.09146341681480408,2.8499999046325684,-19.950000762939453,3.9000000953674316,40.3608283996582,0,
 536913,-0.015625,-0.95751953125,-0.20751953125,-0.7317073345184326,0.24390244483947754,0.3353658616542816,2.8499999046325684,-20.700000762939453,6.150000095367432,40.21706008911133,0,
 536923,-0.017822265625,-0.962890625,-0.2119140625,-0.792682945728302,0.8536585569381714,0.396341472864151,2.25,-19.799999237060547,5.25,40.40875244140625,0,
 536933,-0.02001953125,-0.961669921875,-0.2158203125,-0.8231707215309143,0.5487805008888245,0.3353658616542816,3.1500000953674316,-19.200000762939453,4.949999809265137,40.50459671020508,0,
 536943,-0.0205078125,-0.959228515625,-0.20947265625,-0.7621951103210449,0.7317073345184326,0.5487805008888245,3.299999952316284,-20.100000381469727,6.0,40.40875244140625,0,
 536953,-0.01513671875,-0.963623046875,-0.204345703125,-1.1585365533828735,0.5792682766914368,0.3658536672592163,3.299999952316284,-20.100000381469727,6.0,40.3608283996582,0,
 536963,-0.0166015625,-0.96435546875,-0.211669921875,-0.6707317233085632,0.27439025044441223,0.21341463923454285,2.4000000953674316,-21.149999618530273,5.400000095367432,40.40875244140625,0,
 536973,-0.01171875,-0.96142578125,-0.2138671875,-0.5487805008888245,0.3353658616542816,0.24390244483947754,3.299999952316284,-18.600000381469727,4.050000190734863,40.552520751953125,0,
 536983,-0.01318359375,-0.95654296875,-0.21435546875,-0.4573170840740204,0.396341472864151,0.4268292784690857,0.15000000596046448,-20.25,4.650000095367432,40.3608283996582,0,
 536993,-0.014404296875,-0.964111328125,-0.211669921875,-0.24390244483947754,0.3353658616542816,0.060975611209869385,0.15000000596046448,-20.25,4.650000095367432,40.50459671020508,0,
 537003,-0.0244140625,-0.957763671875,-0.214111328125,-0.6707317233085632,0.27439025044441223,0.5792682766914368,1.7999999523162842,-19.799999237060547,4.800000190734863,40.40875244140625,0,
 537013,-0.01806640625,-0.9599609375,-0.2109375,-0.6707317233085632,0.12195122241973877,0.4268292784690857,2.0999999046325684,-20.25,4.949999809265137,40.07329177856445,0,
 537023,-0.01416015625,-0.96484375,-0.208251953125,-0.6402438879013062,0.5182926654815674,0.5487805008888245,1.649999976158142,-21.149999618530273,4.650000095367432,40.552520751953125,0,
 537033,-0.011962890625,-0.95751953125,-0.207763671875,-0.27439025044441223,0.3658536672592163,0.396341472864151,1.649999976158142,-21.149999618530273,4.650000095367432,40.3608283996582,0,
 537043,-0.021240234375,-0.9609375,-0.211669921875,-0.5487805008888245,0.030487805604934692,0.4268292784690857,1.5,-21.299999237060547,5.25,40.3608283996582,0,
 537053,-0.01513671875,-0.9599609375,-0.207275390625,-0.7621951103210449,0.18292683362960815,0.4268292784690857,2.25,-19.350000381469727,5.25,40.3608283996582,0,
 537063,-0.01123046875,-0.960693359375,-0.21142578125,-0.5182926654815674,0.4878048896789551,0.5487805008888245,1.5,-17.700000762939453,6.300000190734863,40.40875244140625,0,
 537073,-0.01611328125,-0.964599609375,-0.204833984375,-0.3658536672592163,0.4878048896789551,0.4268292784690857,1.5,-17.700000762939453,6.300000190734863,40.40875244140625,0,
 537083,-0.010498046875,-0.96044921875,-0.214111328125,-0.9146341681480408,0.21341463923454285,-0.060975611209869385,3.5999999046325684,-19.5,5.699999809265137,40.3608283996582,0,
 537093,-0.013671875,-0.96142578125,-0.21142578125,-0.6402438879013062,0.4573170840740204,0.3048780560493469,2.8499999046325684,-19.5,4.949999809265137,40.21706008911133,0,
 537103,-0.009033203125,-0.955078125,-0.208251953125,-0.8536585569381714,0.3048780560493469,0.15243902802467346,2.4000000953674316,-19.950000762939453,5.400000095367432,40.025367736816406,0,
 537113,-0.015625,-0.963623046875,-0.2109375,-0.4573170840740204,0.3658536672592163,0.27439025044441223,2.4000000953674316,-19.950000762939453,5.400000095367432,40.3608283996582,0,
 537123,-0.017333984375,-0.96240234375,-0.2080078125,-0.27439025044441223,0.396341472864151,0.24390244483947754,3.0,-19.350000381469727,6.0,40.3608283996582,0,
 537133,-0.015869140625,-0.954833984375,-0.210693359375,-0.12195122241973877,0.4878048896789551,0.21341463923454285,2.549999952316284,-20.100000381469727,4.050000190734863,40.3608283996582,0,
 537143,-0.01904296875,-0.953125,-0.20849609375,-0.3353658616542816,0.396341472864151,0.24390244483947754,3.1500000953674316,-20.700000762939453,5.400000095367432,40.40875244140625,0,
 537153,-0.01708984375,-0.9619140625,-0.20751953125,0.0,0.3353658616542816,0.27439025044441223,2.4000000953674316,-20.25,4.650000095367432,40.16913604736328,0,
 537163,-0.015380859375,-0.9658203125,-0.2119140625,-0.24390244483947754,0.18292683362960815,0.27439025044441223,2.4000000953674316,-20.25,4.650000095367432,40.60044479370117,0,
 537173,-0.02099609375,-0.96337890625,-0.208740234375,-0.15243902802467346,0.6707317233085632,0.12195122241973877,1.649999976158142,-19.200000762939453,4.949999809265137,40.50459671020508,0,
 537183,-0.01806640625,-0.961669921875,-0.207763671875,-0.3353658616542816,0.3353658616542816,0.4573170840740204,2.0999999046325684,-20.700000762939453,3.450000047683716,40.264984130859375,0,
 537193,-0.017333984375,-0.9609375,-0.206298828125,-0.3658536672592163,0.5182926654815674,0.3048780560493469,3.1500000953674316,-19.200000762939453,6.449999809265137,40.3608283996582,0,
 537203,-0.01220703125,-0.95703125,-0.21435546875,-0.27439025044441223,0.27439025044441223,0.6097561120986938,3.1500000953674316,-19.200000762939453,6.449999809265137,40.264984130859375,0,
 537213,-0.017822265625,-0.955810546875,-0.2099609375,-0.4573170840740204,0.6402438879013062,0.396341472864151,2.549999952316284,-19.350000381469727,4.800000190734863,40.3608283996582,0,
 537223,-0.013671875,-0.956787109375,-0.208984375,0.060975611209869385,-0.18292683362960815,0.3048780560493469,2.8499999046325684,-19.950000762939453,3.9000000953674316,40.50459671020508,0,
 537233,-0.017578125,-0.96240234375,-0.210205078125,-0.27439025044441223,0.3048780560493469,0.060975611209869385,2.8499999046325684,-19.200000762939453,4.199999809265137,40.6962890625,0,
 537243,-0.015625,-0.96044921875,-0.2080078125,-0.18292683362960815,0.4878048896789551,0.3353658616542816,2.8499999046325684,-19.200000762939453,4.199999809265137,40.50459671020508,0,
 537253,-0.01416015625,-0.959716796875,-0.2060546875,-0.396341472864151,-0.030487805604934692,0.3048780560493469,3.9000000953674316,-20.25,5.699999809265137,40.16913604736328,0,
 537263,-0.011474609375,-0.955322265625,-0.208984375,-0.15243902802467346,0.3658536672592163,-0.060975611209869385,3.0,-19.350000381469727,3.75,40.40875244140625,0,
 537273,-0.0126953125,-0.960205078125,-0.208740234375,0.030487805604934692,0.396341472864151,-0.12195122241973877,3.0,-18.899999618530273,5.25,40.3608283996582,0,
 537283,-0.0126953125,-0.958984375,-0.213623046875,-0.12195122241973877,0.4573170840740204,-0.030487805604934692,3.0,-18.899999618530273,5.25,40.40875244140625,0,
 537293,-0.01220703125,-0.960205078125,-0.21044921875,-0.21341463923454285,0.3658536672592163,0.18292683362960815,3.0,-18.899999618530273,5.550000190734863,40.3608283996582,0,
 537303,-0.01513671875,-0.95947265625,-0.204833984375,-0.27439025044441223,0.21341463923454285,0.396341472864151,2.0999999046325684,-18.75,4.650000095367432,40.07329177856445,0,
 537313,-0.018310546875,-0.96142578125,-0.20361328125,-0.5182926654815674,0.27439025044441223,0.3353658616542816,0.75,-17.399999618530273,4.050000190734863,40.60044479370117,0,
 537323,-0.013916015625,-0.956298828125,-0.21142578125,-0.6097561120986938,0.4268292784690857,0.4573170840740204,0.75,-17.399999618530273,4.050000190734863,40.40875244140625,0,
 537333,-0.013671875,-0.965087890625,-0.20751953125,-0.6097561120986938,0.3353658616542816,0.24390244483947754,2.4000000953674316,-18.75,6.150000095367432,40.3608283996582,0,
 537343,-0.016357421875,-0.958251953125,-0.2119140625,-0.8231707215309143,0.4268292784690857,0.3658536672592163,0.8999999761581421,-18.299999237060547,6.900000095367432,40.40875244140625,0,
 537353,-0.01513671875,-0.963134765625,-0.208251953125,-0.6707317233085632,0.396341472864151,0.4268292784690857,0.44999998807907104,-18.299999237060547,4.199999809265137,40.16913604736328,0,
 537363,-0.020751953125,-0.9619140625,-0.2119140625,-0.7317073345184326,0.24390244483947754,0.3353658616542816,2.25,-20.100000381469727,3.299999952316284,40.264984130859375,0,
 537373,-0.00927734375,-0.95703125,-0.206298828125,-0.8231707215309143,0.4573170840740204,0.396341472864151,3.299999952316284,-19.799999237060547,5.550000190734863,40.3608283996582,0,
 537383,-0.01611328125,-0.9619140625,-0.209716796875,-0.5487805008888245,0.396341472864151,-0.12195122241973877,2.8499999046325684,-18.299999237060547,3.9000000953674316,40.50459671020508,0,
 537393,-0.01123046875,-0.9580078125,-0.2099609375,-0.5487805008888245,0.3353658616542816,0.27439025044441223,0.30000001192092896,-20.100000381469727,5.25,40.40875244140625,0,
 537403,-0.017578125,-0.95654296875,-0.212158203125,-0.7621951103210449,0.27439025044441223,0.21341463923454285,0.0,-19.350000381469727,4.050000190734863,40.3608283996582,0,
 537413,-0.01416015625,-0.956787109375,-0.207763671875,-0.7621951103210449,0.09146341681480408,0.5792682766914368,0.0,-19.350000381469727,4.050000190734863,40.40875244140625,0,
 537423,-0.01953125,-0.958251953125,-0.20947265625,-0.3658536672592163,0.3048780560493469,0.396341472864151,2.25,-19.799999237060547,4.800000190734863,40.40875244140625,0,
 537433,-0.01171875,-0.959228515625,-0.208984375,-0.3658536672592163,0.3658536672592163,0.21341463923454285,3.299999952316284,-19.350000381469727,4.050000190734863,40.3608283996582,0,
 537443,-0.01513671875,-0.960205078125,-0.208740234375,-0.27439025044441223,0.4573170840740204,0.3658536672592163,2.549999952316284,-19.350000381469727,6.300000190734863,40.552520751953125,0,
 537453,-0.015869140625,-0.9619140625,-0.211669921875,-0.060975611209869385,0.24390244483947754,0.3048780560493469,2.549999952316284,-19.350000381469727,6.300000190734863,40.264984130859375,0,
 537463,-0.010009765625,-0.9599609375,-0.2109375,0.0,0.12195122241973877,-0.030487805604934692,1.5,-19.350000381469727,1.7999999523162842,40.50459671020508,0,
 537473,-0.011474609375,-0.95751953125,-0.2109375,-0.12195122241973877,0.060975611209869385,0.5792682766914368,0.15000000596046448,-21.450000762939453,3.450000047683716,40.3608283996582,0,
 537483,-0.01708984375,-0.961181640625,-0.20654296875,0.18292683362960815,0.4573170840740204,0.396341472864151,1.7999999523162842,-18.149999618530273,3.75,40.40875244140625,0,
 537493,-0.017578125,-0.957275390625,-0.208984375,-0.3048780560493469,0.7012194991111755,0.21341463923454285,1.7999999523162842,-18.149999618530273,3.75,40.3608283996582,0,
 537503,-0.018310546875,-0.955322265625,-0.21337890625,-0.396341472864151,0.3658536672592163,0.6097561120986938,3.299999952316284,-21.299999237060547,3.0,40.264984130859375,0,
 537513,-0.012451171875,-0.9599609375,-0.205322265625,-0.4573170840740204,0.27439025044441223,0.12195122241973877,1.2000000476837158,-19.950000762939453,4.650000095367432,40.3608283996582,0,
 537523,-0.02001953125,-0.96484375,-0.212646484375,-0.4878048896789551,0.6097561120986938,0.396341472864151,2.4000000953674316,-18.75,4.949999809265137,40.40875244140625,0,
 537533,-0.013427734375,-0.96142578125,-0.21142578125,-0.7621951103210449,0.15243902802467346,0.4268292784690857,2.4000000953674316,-18.75,4.949999809265137,40.264984130859375,0,
 537543,-0.01708984375,-0.96044921875,-0.203857421875,-1.0670732259750366,0.5792682766914368,0.4573170840740204,1.0499999523162842,-19.799999237060547,5.550000190734863,40.264984130859375,0,
 537553,-0.0146484375,-0.957763671875,-0.208984375,-1.0670732259750366,0.060975611209869385,0.3353658616542816,2.0999999046325684,-19.200000762939453,4.949999809265137,40.3608283996582,0,
 537563,-0.01513671875,-0.96533203125,-0.204833984375,-1.0060975551605225,0.5487805008888245,0.060975611209869385,2.8499999046325684,-20.25,6.150000095367432,40.40875244140625,0,
 537584,-0.014892578125,-0.964111328125,-0.210693359375,-1.3414634466171265,0.4268292784690857,0.27439025044441223,1.7999999523162842,-19.350000381469727,4.800000190734863,40.40875244140625,0,
 537594,-0.015625,-0.957275390625,-0.2119140625,-1.4939024448394775,0.3048780560493469,0.396341472864151,1.5,-20.549999237060547,2.549999952316284,40.264984130859375,0,
 537604,-0.017822265625,-0.966796875,-0.210205078125,-1.1585365533828735,0.3048780560493469,0.4878048896789551,3.5999999046325684,-20.700000762939453,4.650000095367432,40.40875244140625,0,
 537614,-0.016357421875,-0.9599609375,-0.210693359375,-1.0670732259750366,0.21341463923454285,0.4878048896789551,2.4000000953674316,-19.950000762939453,6.449999809265137,40.264984130859375,0,
 537624,-0.013427734375,-0.96240234375,-0.212158203125,-1.3109756708145142,0.3658536672592163,0.4573170840740204,2.4000000953674316,-19.950000762939453,6.449999809265137,40.3608283996582,0,
 537634,-0.0126953125,-0.962646484375,-0.2109375,-1.25,0.12195122241973877,0.27439025044441223,1.0499999523162842,-19.350000381469727,5.25,40.16913604736328,0,
 537644,-0.017822265625,-0.95703125,-0.2099609375,-1.097561001777649,0.4878048896789551,0.24390244483947754,2.25,-18.149999618530273,6.0,40.07329177856445,0,
 537654,-0.01318359375,-0.957275390625,-0.208984375,-0.9756097793579102,0.4268292784690857,0.12195122241973877,1.7999999523162842,-19.799999237060547,6.300000190734863,40.21706008911133,0,
 537664,-0.016845703125,-0.95703125,-0.208984375,-0.9451219439506531,0.4268292784690857,0.15243902802467346,1.7999999523162842,-19.799999237060547,6.300000190734863,40.40875244140625,0,
 537674,-0.02099609375,-0.963623046875,-0.214599609375,-1.097561001777649,0.27439025044441223,0.3658536672592163,2.8499999046325684,-20.25,4.199999809265137,40.40875244140625,0,
 537684,-0.022216796875,-0.953857421875,-0.211669921875,-0.8231707215309143,0.4268292784690857,0.27439025044441223,3.0,-20.100000381469727,5.25,40.3608283996582,0,
 537694,-0.017333984375,-0.956298828125,-0.211669921875,-0.8536585569381714,0.6402438879013062,0.24390244483947754,2.4000000953674316,-18.0,2.4000000953674316,40.3608283996582,0,
 537704,-0.017333984375,-0.9580078125,-0.205810546875,-0.7621951103210449,0.5792682766914368,0.4878048896789551,2.4000000953674316,-18.0,2.4000000953674316,40.552520751953125,0,
 537714,-0.013671875,-0.95849609375,-0.212158203125,-0.6097561120986938,0.12195122241973877,0.21341463923454285,2.25,-20.850000381469727,6.300000190734863,40.40875244140625,0,
 537724,-0.011962890625,-0.96142578125,-0.2060546875,-0.396341472864151,0.3658536672592163,0.5182926654815674,3.0,-17.399999618530273,5.550000190734863,40.552520751953125,0,
 537734,-0.016845703125,-0.9609375,-0.2119140625,-0.6402438879013062,0.4268292784690857,0.3353658616542816,2.8499999046325684,-19.950000762939453,5.699999809265137,40.40875244140625,0,
 537744,-0.012939453125,-0.959228515625,-0.203369140625,-0.6402438879013062,0.18292683362960815,0.3048780560493469,2.8499999046325684,-19.950000762939453,5.699999809265137,40.07329177856445,0,
 537754,-0.015869140625,-0.95849609375,-0.2060546875,-0.3658536672592163,0.24390244483947754,0.5792682766914368,2.0999999046325684,-19.200000762939453,3.450000047683716,40.50459671020508,0,
 537764,-0.009033203125,-0.958251953125,-0.213134765625,-0.396341472864151,0.3048780560493469,0.6097561120986938,1.649999976158142,-19.950000762939453,4.650000095367432,40.16913604736328,0,
 537774,-0.01220703125,-0.958251953125,-0.210205078125,-0.4268292784690857,0.18292683362960815,-0.09146341681480408,1.5,-18.899999618530273,2.549999952316284,40.16913604736328,0,
 537784,-0.01318359375,-0.956787109375,-0.207763671875,-0.15243902802467346,0.3353658616542816,0.4878048896789551,1.649999976158142,-19.200000762939453,3.450000047683716,40.6962890625,0,
 537794,-0.00732421875,-0.960205078125,-0.212158203125,-0.4573170840740204,0.396341472864151,0.15243902802467346,2.25,-20.100000381469727,3.75,40.3608283996582,0,
 537804,-0.0146484375,-0.96142578125,-0.211669921875,-0.5487805008888245,0.3658536672592163,0.24390244483947754,3.9000000953674316,-18.0,4.650000095367432,40.025367736816406,0,
 537814,-0.021484375,-0.959716796875,-0.211181640625,-0.5182926654815674,0.396341472864151,0.5487805008888245,2.4000000953674316,-21.149999618530273,5.400000095367432,40.50459671020508,0,
 537824,-0.01806640625,-0.955322265625,-0.205810546875,-0.5792682766914368,0.4573170840740204,0.3658536672592163,2.25,-20.100000381469727,4.050000190734863,40.6962890625,0,
 537834,-0.009521484375,-0.963134765625,-0.21044921875,-0.3353658616542816,0.4573170840740204,0.3353658616542816,2.25,-20.100000381469727,4.050000190734863,40.40875244140625,0,
 537844,-0.01025390625,-0.962158203125,-0.2119140625,-0.6402438879013062,0.12195122241973877,0.09146341681480408,3.75,-19.350000381469727,5.25,40.3608283996582,0,
 537854,-0.0146484375,-0.961669921875,-0.211181640625,-0.8841463327407837,0.3658536672592163,0.4573170840740204,2.549999952316284,-19.799999237060547,4.800000190734863,40.50459671020508,0,
 537864,-0.017822265625,-0.9619140625,-0.205810546875,-0.6097561120986938,0.09146341681480408,0.18292683362960815,2.0999999046325684,-19.5,3.9000000953674316,40.50459671020508,0,
 537874,-0.013671875,-0.958984375,-0.211181640625,-1.0060975551605225,0.396341472864151,0.24390244483947754,2.0999999046325684,-19.5,3.9000000953674316,40.3608283996582,0,
 537884,-0.01220703125,-0.958251953125,-0.212158203125,-1.0060975551605225,0.24390244483947754,0.060975611209869385,3.0,-18.899999618530273,4.5,40.16913604736328,0,
 537894,-0.022705078125,-0.9619140625,-0.212158203125,-0.8536585569381714,0.3048780560493469,0.3353658616542816,1.5,-18.600000381469727,3.75,40.16913604736328,0,
 537904,-0.015380859375,-0.96240234375,-0.21728515625,-1.0670732259750366,0.15243902802467346,0.3048780560493469,1.0499999523162842,-19.350000381469727,6.0,40.40875244140625,0,
 537914,-0.019287109375,-0.960693359375,-0.2080078125,-0.9146341681480408,0.24390244483947754,0.09146341681480408,1.0499999523162842,-19.350000381469727,6.0,40.40875244140625,0,
 537924,-0.0166015625,-0.958251953125,-0.208984375,-0.9146341681480408,0.18292683362960815,0.060975611209869385,1.649999976158142,-19.950000762939453,4.949999809265137,40.60044479370117,0,
 537934,-0.01416015625,-0.95654296875,-0.213134765625,-1.097561001777649,0.4268292784690857,0.18292683362960815,3.9000000953674316,-20.25,6.150000095367432,40.264984130859375,0,
 537944,-0.012939453125,-0.962890625,-0.2138671875,-0.8536585569381714,0.4268292784690857,0.396341472864151,1.7999999523162842,-19.799999237060547,5.25,40.3608283996582,0,
 537954,-0.01513671875,-0.9560546875,-0.20849609375,-0.7317073345184326,0.24390244483947754,-0.12195122241973877,1.7999999523162842,-19.799999237060547,5.25,40.40875244140625,0,
 537964,-0.012939453125,-0.964599609375,-0.210205078125,-0.7621951103210449,0.21341463923454285,0.060975611209869385,2.4000000953674316,-21.149999618530273,4.650000095367432,40.3608283996582,0,
 537974,-0.012451171875,-0.95849609375,-0.217041015625,-0.8231707215309143,0.6402438879013062,0.0,2.549999952316284,-18.899999618530273,6.300000190734863,40.264984130859375,0,
 537984,-0.017578125,-0.960693359375,-0.213623046875,-0.6402438879013062,0.396341472864151,0.18292683362960815,0.44999998807907104,-19.5,4.199999809265137,40.3608283996582,0,
 537994,-0.0107421875,-0.962890625,-0.211181640625,-0.6097561120986938,0.3353658616542816,0.27439025044441223,3.0,-19.350000381469727,5.550000190734863,40.50459671020508,0,
 538004,-0.0146484375,-0.96142578125,-0.216796875,-0.8536585569381714,0.4268292784690857,0.09146341681480408,1.649999976158142,-20.700000762939453,4.650000095367432,40.3608283996582,0,
 538014,-0.017822265625,-0.958740234375,-0.215087890625,-0.5182926654815674,0.4268292784690857,0.030487805604934692,2.25,-18.899999618530273,4.800000190734863,40.40875244140625,0,
 538024,-0.013671875,-0.955322265625,-0.2158203125,-0.7012194991111755,0.18292683362960815,0.18292683362960815,2.4000000953674316,-19.950000762939453,6.150000095367432,40.40875244140625,0,
 538034,-0.016357421875,-0.957275390625,-0.21337890625,-0.6402438879013062,0.09146341681480408,0.24390244483947754,2.549999952316284,-19.799999237060547,3.75,40.16913604736328,0,
 538044,-0.01318359375,-0.953857421875,-0.208984375,-0.24390244483947754,0.3048780560493469,0.3658536672592163,2.549999952316284,-19.799999237060547,3.75,40.21706008911133,0,
 538054,-0.0146484375,-0.9580078125,-0.212890625,-0.24390244483947754,0.24390244483947754,0.09146341681480408,3.1500000953674316,-18.299999237060547,5.699999809265137,40.552520751953125,0,
 538064,-0.017822265625,-0.959716796875,-0.212158203125,-0.12195122241973877,0.5182926654815674,0.4268292784690857,2.549999952316284,-19.350000381469727,5.25,40.50459671020508,0,
 538074,-0.015869140625,-0.955322265625,-0.211181640625,-0.24390244483947754,0.3048780560493469,0.396341472864151,2.8499999046325684,-18.75,6.449999809265137,40.552520751953125,0,
