timestamp,accl_x,accl_y,accl_z,gyro_x,gyro_y,gyro_z,mag_x,mag_y,mag_z,temp,emg,
 393922,-0.017822265625,-0.9580078125,-0.23828125,-0.6097561120986938,0.396341472864151,-0.18292683362960815,1.2000000476837158,-19.200000762939453,7.650000095367432,41.127593994140625,0,
 393932,-0.0244140625,-0.954345703125,-0.239501953125,-0.24390244483947754,0.3353658616542816,0.3353658616542816,1.2000000476837158,-19.200000762939453,7.650000095367432,40.9359016418457,0,
 393942,-0.025390625,-0.95068359375,-0.2451171875,-0.5182926654815674,0.27439025044441223,0.21341463923454285,2.4000000953674316,-17.100000381469727,6.449999809265137,40.9359016418457,0,
 393952,-0.02294921875,-0.9580078125,-0.236083984375,-0.5487805008888245,0.3353658616542816,0.5792682766914368,1.0499999523162842,-16.200000762939453,7.050000190734863,40.74421310424805,0,
 393962,-0.023681640625,-0.953857421875,-0.24072265625,-0.24390244483947754,0.3353658616542816,0.3658536672592163,1.2000000476837158,-17.549999237060547,9.149999618530273,40.9359016418457,0,
 393972,-0.02294921875,-0.951416015625,-0.23681640625,-0.6402438879013062,0.15243902802467346,0.5792682766914368,-0.15000000596046448,-18.0,7.650000095367432,41.0317497253418,0,
 393982,-0.022216796875,-0.955078125,-0.23779296875,-0.5792682766914368,0.5792682766914368,0.060975611209869385,-0.15000000596046448,-18.0,7.650000095367432,41.0317497253418,0,
 393992,-0.019775390625,-0.957763671875,-0.238037109375,-0.8536585569381714,0.5487805008888245,0.12195122241973877,2.0999999046325684,-17.549999237060547,8.399999618530273,41.0317497253418,0,
 394002,-0.019775390625,-0.956298828125,-0.24169921875,-0.6707317233085632,0.396341472864151,0.24390244483947754,0.30000001192092896,-18.600000381469727,6.75,41.0317497253418,0,
 394012,-0.01953125,-0.950927734375,-0.240478515625,-0.5182926654815674,0.4573170840740204,0.3353658616542816,0.44999998807907104,-19.950000762939453,6.900000095367432,40.88798141479492,0,
 394022,-0.0224609375,-0.952392578125,-0.23876953125,-0.4268292784690857,0.4573170840740204,0.21341463923454285,0.44999998807907104,-19.950000762939453,6.900000095367432,40.88798141479492,0,
 394032,-0.023681640625,-0.952392578125,-0.239990234375,-0.4268292784690857,0.24390244483947754,0.18292683362960815,1.2000000476837158,-17.549999237060547,6.150000095367432,41.0317497253418,0,
 394042,-0.020751953125,-0.95751953125,-0.239501953125,-0.3353658616542816,0.21341463923454285,0.24390244483947754,-0.15000000596046448,-16.799999237060547,7.949999809265137,41.0317497253418,0,
 394052,-0.022216796875,-0.9541015625,-0.2373046875,-0.6097561120986938,0.3658536672592163,0.21341463923454285,0.75,-18.149999618530273,7.050000190734863,41.2713623046875,0,
 394062,-0.024169921875,-0.95166015625,-0.23828125,-0.4268292784690857,0.15243902802467346,0.09146341681480408,0.75,-18.149999618530273,7.050000190734863,40.79213333129883,0,
 394072,-0.023681640625,-0.954345703125,-0.244384765625,-0.24390244483947754,0.24390244483947754,0.12195122241973877,0.30000001192092896,-16.200000762939453,7.050000190734863,41.127593994140625,0,
 394082,-0.021728515625,-0.955810546875,-0.23974609375,-0.3353658616542816,0.060975611209869385,0.3353658616542816,0.75,-18.600000381469727,8.25,41.07966995239258,0,
 394092,-0.027099609375,-0.951171875,-0.23681640625,-0.9756097793579102,0.3658536672592163,0.3048780560493469,0.8999999761581421,-18.0,6.900000095367432,40.88798141479492,0,
 394102,-0.022216796875,-0.94921875,-0.243408203125,-0.6402438879013062,0.24390244483947754,0.5182926654815674,0.8999999761581421,-18.0,6.900000095367432,40.79213333129883,0,
 394122,-0.02392578125,-0.955078125,-0.242431640625,-0.7621951103210449,0.27439025044441223,0.3048780560493469,0.44999998807907104,-19.200000762939453,6.150000095367432,40.9359016418457,0,
 394132,-0.027099609375,-0.956298828125,-0.236083984375,-0.7317073345184326,0.24390244483947754,0.3658536672592163,1.7999999523162842,-16.200000762939453,6.0,41.127593994140625,0,
 394142,-0.020263671875,-0.955322265625,-0.2451171875,-0.7317073345184326,0.396341472864151,0.15243902802467346,1.7999999523162842,-16.200000762939453,6.0,40.9359016418457,0,
 394152,-0.024658203125,-0.9541015625,-0.23681640625,-0.792682945728302,0.24390244483947754,0.4878048896789551,0.44999998807907104,-16.799999237060547,6.150000095367432,41.2713623046875,0,
 394162,-0.023681640625,-0.9580078125,-0.234375,-1.097561001777649,0.3048780560493469,0.18292683362960815,-1.0499999523162842,-17.700000762939453,7.800000190734863,41.0317497253418,0,
 394172,-0.01416015625,-0.9365234375,-0.2275390625,-0.12195122241973877,-0.3353658616542816,0.3353658616542816,1.0499999523162842,-17.399999618530273,7.5,41.31928634643555,0,
 394182,-0.03369140625,-0.973388671875,-0.238525390625,-1.920731782913208,0.3658536672592163,0.4878048896789551,1.5,-16.950000762939453,6.0,41.0317497253418,0,
 394192,-0.022216796875,-0.942626953125,-0.2451171875,-0.792682945728302,0.09146341681480408,0.4878048896789551,1.5,-16.950000762939453,6.0,40.88798141479492,0,
 394203,-0.024658203125,-0.95849609375,-0.244384765625,-0.9146341681480408,0.27439025044441223,0.5487805008888245,0.75,-17.399999618530273,6.300000190734863,41.127593994140625,0,
 394213,-0.021484375,-0.95068359375,-0.24072265625,-0.7012194991111755,0.3658536672592163,0.5182926654815674,3.0,-16.950000762939453,3.299999952316284,41.127593994140625,0,
 394233,-0.01708984375,-0.957275390625,-0.239990234375,-1.097561001777649,0.5792682766914368,0.18292683362960815,0.8999999761581421,-16.799999237060547,7.650000095367432,41.07966995239258,0,
 394243,-0.02783203125,-0.95263671875,-0.241943359375,-0.9146341681480408,0.18292683362960815,0.030487805604934692,1.5,-16.200000762939453,6.300000190734863,40.88798141479492,0,
 394253,-0.02490234375,-0.9580078125,-0.24560546875,-0.7621951103210449,0.3353658616542816,0.24390244483947754,2.0999999046325684,-18.299999237060547,7.650000095367432,41.127593994140625,0,
 394263,-0.024658203125,-0.957275390625,-0.244873046875,-0.8841463327407837,0.3048780560493469,0.18292683362960815,0.8999999761581421,-15.899999618530273,6.449999809265137,41.127593994140625,0,
 394273,-0.029052734375,-0.9580078125,-0.23583984375,-0.4878048896789551,-0.030487805604934692,0.060975611209869385,0.8999999761581421,-15.899999618530273,6.449999809265137,41.0317497253418,0,
 394283,-0.02294921875,-0.951171875,-0.242431640625,-0.6707317233085632,0.15243902802467346,0.15243902802467346,1.2000000476837158,-18.75,6.150000095367432,40.88798141479492,0,
 394293,-0.02734375,-0.953369140625,-0.2421875,-0.5487805008888245,0.15243902802467346,0.4878048896789551,0.30000001192092896,-18.149999618530273,7.050000190734863,40.9359016418457,0,
 394303,-0.02685546875,-0.949951171875,-0.2431640625,-0.4268292784690857,0.396341472864151,0.5487805008888245,0.0,-16.200000762939453,7.5,41.0317497253418,0,
 394313,-0.022705078125,-0.9521484375,-0.242431640625,-0.4878048896789551,0.18292683362960815,-0.15243902802467346,0.0,-16.200000762939453,7.5,41.0317497253418,0,
 394333,-0.0244140625,-0.948974609375,-0.240966796875,-0.12195122241973877,0.15243902802467346,0.3353658616542816,0.44999998807907104,-16.799999237060547,7.949999809265137,41.0317497253418,0,
 394343,-0.022216796875,-0.9541015625,-0.24072265625,-0.3353658616542816,0.3048780560493469,0.27439025044441223,0.15000000596046448,-17.549999237060547,7.199999809265137,40.74421310424805,0,
 394353,-0.019287109375,-0.956787109375,-0.242919921875,-0.4878048896789551,0.4268292784690857,0.3048780560493469,0.15000000596046448,-18.299999237060547,6.449999809265137,41.0317497253418,0,
 394363,-0.015869140625,-0.95751953125,-0.237548828125,-0.3658536672592163,0.4878048896789551,0.27439025044441223,0.15000000596046448,-16.350000381469727,7.949999809265137,41.0317497253418,0,
 394373,-0.026123046875,-0.95458984375,-0.2431640625,-0.5182926654815674,0.396341472864151,0.3048780560493469,0.15000000596046448,-18.299999237060547,7.650000095367432,41.127593994140625,0,
 394383,-0.022705078125,-0.949951171875,-0.241455078125,-0.4878048896789551,0.3658536672592163,0.4268292784690857,-0.30000001192092896,-17.700000762939453,6.75,41.127593994140625,0,
 394393,-0.026123046875,-0.956787109375,-0.240234375,-0.6707317233085632,0.4573170840740204,0.18292683362960815,0.44999998807907104,-18.0,6.150000095367432,40.79213333129883,0,
 394403,-0.02587890625,-0.95703125,-0.237548828125,-0.6707317233085632,0.4268292784690857,0.3658536672592163,0.44999998807907104,-18.0,6.150000095367432,41.07966995239258,0,
 394413,-0.020751953125,-0.954833984375,-0.239990234375,-0.5182926654815674,0.3658536672592163,0.3353658616542816,-0.75,-16.950000762939453,8.25,40.9359016418457,0,
 394433,-0.02294921875,-0.951904296875,-0.245849609375,-0.3048780560493469,0.396341472864151,0.3658536672592163,1.0499999523162842,-16.950000762939453,7.050000190734863,40.9359016418457,0,
 394443,-0.01953125,-0.953369140625,-0.239990234375,-0.12195122241973877,0.3048780560493469,0.5487805008888245,1.0499999523162842,-16.950000762939453,7.050000190734863,41.127593994140625,0,
 394453,-0.022216796875,-0.956787109375,-0.244873046875,-0.3658536672592163,0.3353658616542816,0.4878048896789551,3.299999952316284,-18.600000381469727,7.800000190734863,40.9359016418457,0,
 394463,-0.024169921875,-0.950927734375,-0.239501953125,0.060975611209869385,0.4573170840740204,0.3353658616542816,-0.44999998807907104,-16.799999237060547,6.150000095367432,41.0317497253418,0,
 394473,-0.026123046875,-0.951171875,-0.24169921875,-0.24390244483947754,0.3048780560493469,0.3353658616542816,1.5,-16.5,7.800000190734863,40.9359016418457,0,
 394483,-0.0263671875,-0.9501953125,-0.242919921875,-0.27439025044441223,0.24390244483947754,0.3658536672592163,1.5,-16.5,7.800000190734863,40.9359016418457,0,
 394493,-0.029296875,-0.956298828125,-0.239990234375,-0.3353658616542816,0.5182926654815674,0.3658536672592163,0.44999998807907104,-17.100000381469727,6.449999809265137,40.88798141479492,0,
 394503,-0.02197265625,-0.950927734375,-0.239013671875,0.21341463923454285,0.396341472864151,0.6707317233085632,1.649999976158142,-17.549999237060547,7.949999809265137,40.9359016418457,0,
 394513,-0.02587890625,-0.960693359375,-0.236083984375,0.3048780560493469,0.12195122241973877,0.396341472864151,0.0,-16.5,7.050000190734863,41.0317497253418,0,
 394533,-0.026611328125,-0.951416015625,-0.234130859375,-0.3658536672592163,0.4878048896789551,0.15243902802467346,1.2000000476837158,-18.75,6.150000095367432,41.07966995239258,0,
 394543,-0.019287109375,-0.957275390625,-0.241455078125,-0.12195122241973877,0.3048780560493469,0.3048780560493469,0.8999999761581421,-18.299999237060547,6.900000095367432,40.9359016418457,0,
 394553,-0.020751953125,-0.955810546875,-0.24609375,-0.09146341681480408,0.3048780560493469,0.5182926654815674,1.7999999523162842,-16.950000762939453,6.300000190734863,41.22344207763672,0,
 394563,-0.02197265625,-0.96240234375,-0.23681640625,-0.3658536672592163,0.24390244483947754,0.6402438879013062,2.4000000953674316,-18.299999237060547,7.199999809265137,41.0317497253418,0,
 394573,-0.027587890625,-0.95068359375,-0.239013671875,-0.396341472864151,0.3658536672592163,0.5487805008888245,0.75,-17.399999618530273,7.800000190734863,40.88798141479492,0,
 394583,-0.02685546875,-0.950927734375,-0.239990234375,-0.15243902802467346,0.3048780560493469,0.5487805008888245,-0.44999998807907104,-16.799999237060547,7.650000095367432,40.9359016418457,0,
 394593,-0.024658203125,-0.95947265625,-0.24365234375,-0.3658536672592163,0.27439025044441223,0.6707317233085632,1.7999999523162842,-16.950000762939453,6.0,41.0317497253418,0,
 394603,-0.027099609375,-0.951416015625,-0.244140625,-0.7317073345184326,0.5792682766914368,0.4573170840740204,0.15000000596046448,-18.0,6.900000095367432,40.9359016418457,0,
 394613,-0.0263671875,-0.94873046875,-0.235107421875,-0.18292683362960815,0.4268292784690857,0.3353658616542816,0.15000000596046448,-18.0,6.900000095367432,41.07966995239258,0,
 394633,-0.024658203125,-0.95068359375,-0.23681640625,-0.09146341681480408,0.4573170840740204,0.5487805008888245,0.75,-18.899999618530273,8.25,40.74421310424805,0,
 394643,-0.02392578125,-0.947021484375,-0.243896484375,-0.12195122241973877,0.27439025044441223,0.4268292784690857,1.2000000476837158,-15.600000381469727,6.900000095367432,41.0317497253418,0,
 394653,-0.0263671875,-0.9560546875,-0.240478515625,-0.21341463923454285,0.15243902802467346,0.3658536672592163,1.2000000476837158,-15.600000381469727,6.900000095367432,40.9359016418457,0,
 394663,-0.02197265625,-0.956298828125,-0.240966796875,-0.396341472864151,0.24390244483947754,0.3353658616542816,-0.44999998807907104,-17.549999237060547,6.449999809265137,41.127593994140625,0,
 394673,-0.021728515625,-0.95556640625,-0.243408203125,-0.21341463923454285,0.4878048896789551,0.24390244483947754,1.7999999523162842,-16.950000762939453,6.75,41.127593994140625,0,
 394683,-0.0185546875,-0.92138671875,-0.197509765625,2.1341464519500732,-1.0365853309631348,0.7621951103210449,0.75,-17.399999618530273,8.25,40.60044479370117,0,
 394693,-0.00927734375,-0.96240234375,-0.23876953125,-0.24390244483947754,-0.5182926654815674,0.6097561120986938,0.75,-17.399999618530273,8.25,41.0317497253418,0,
 394703,-0.0244140625,-0.960205078125,-0.23583984375,-0.3658536672592163,0.3658536672592163,0.7317073345184326,0.8999999761581421,-17.549999237060547,6.449999809265137,41.22344207763672,0,
 394713,-0.023681640625,-0.952392578125,-0.241943359375,0.09146341681480408,0.15243902802467346,0.4573170840740204,1.2000000476837158,-17.549999237060547,6.900000095367432,41.07966995239258,0,
 394723,-0.025634765625,-0.9521484375,-0.23974609375,-0.060975611209869385,0.396341472864151,0.9146341681480408,-0.30000001192092896,-15.300000190734863,4.800000190734863,41.0317497253418,0,
 394733,-0.024169921875,-0.962646484375,-0.240478515625,0.12195122241973877,0.3658536672592163,0.4573170840740204,-0.30000001192092896,-15.300000190734863,4.800000190734863,40.9359016418457,0,
 394743,-0.02197265625,-0.953125,-0.234375,-0.3353658616542816,0.3658536672592163,0.7317073345184326,0.75,-16.5,7.800000190734863,41.0317497253418,0,
 394753,-0.023681640625,-0.952880859375,-0.236572265625,-0.24390244483947754,-0.060975611209869385,0.5182926654815674,1.649999976158142,-17.100000381469727,6.449999809265137,40.9359016418457,0,
 394763,-0.021728515625,-0.9521484375,-0.23974609375,-0.6707317233085632,0.3353658616542816,0.3658536672592163,0.75,-18.149999618530273,8.25,41.07966995239258,0,
 394773,-0.027587890625,-0.947509765625,-0.242431640625,-0.060975611209869385,0.21341463923454285,0.4573170840740204,1.649999976158142,-16.799999237060547,6.150000095367432,41.0317497253418,0,
 394783,-0.021728515625,-0.951171875,-0.236083984375,-0.030487805604934692,0.18292683362960815,0.3048780560493469,-0.44999998807907104,-17.549999237060547,7.199999809265137,40.74421310424805,0,
 394793,-0.02490234375,-0.956298828125,-0.239501953125,0.030487805604934692,0.0,0.4268292784690857,2.549999952316284,-16.5,6.75,41.0317497253418,0,
 394803,-0.02294921875,-0.958251953125,-0.241455078125,0.27439025044441223,0.09146341681480408,0.3353658616542816,1.2000000476837158,-18.0,6.900000095367432,41.127593994140625,0,
 394813,-0.01953125,-0.957763671875,-0.2431640625,0.3048780560493469,0.3353658616542816,0.4268292784690857,-0.15000000596046448,-18.299999237060547,6.900000095367432,41.22344207763672,0,
 394823,-0.025634765625,-0.959228515625,-0.24462890625,-0.060975611209869385,0.060975611209869385,0.6097561120986938,-0.15000000596046448,-18.299999237060547,6.900000095367432,41.07966995239258,0,
 394843,-0.02294921875,-0.95556640625,-0.239013671875,-0.3353658616542816,0.21341463923454285,0.4878048896789551,0.44999998807907104,-16.799999237060547,6.449999809265137,41.0317497253418,0,
 394853,-0.026611328125,-0.956787109375,-0.239501953125,-0.27439025044441223,0.030487805604934692,0.15243902802467346,1.0499999523162842,-18.600000381469727,6.300000190734863,41.0317497253418,0,
 394863,-0.028564453125,-0.95654296875,-0.23828125,0.12195122241973877,0.060975611209869385,0.396341472864151,1.0499999523162842,-18.600000381469727,6.300000190734863,41.127593994140625,0,
 394873,-0.032470703125,-0.958251953125,-0.2373046875,-0.030487805604934692,0.21341463923454285,0.24390244483947754,0.15000000596046448,-18.0,7.199999809265137,41.22344207763672,0,
 394883,-0.027099609375,-0.95361328125,-0.234375,-0.4573170840740204,0.3353658616542816,0.4268292784690857,0.75,-18.600000381469727,6.75,40.88798141479492,0,
 394893,-0.025390625,-0.954345703125,-0.2392578125,-0.7012194991111755,0.3048780560493469,0.3658536672592163,0.0,-19.350000381469727,6.75,41.2713623046875,0,
 394903,-0.02685546875,-0.956298828125,-0.239501953125,-0.5487805008888245,0.24390244483947754,0.3353658616542816,0.0,-19.350000381469727,6.75,40.9359016418457,0,
 394913,-0.02294921875,-0.95556640625,-0.239990234375,-0.5792682766914368,0.3353658616542816,0.3353658616542816,0.75,-16.5,6.75,41.22344207763672,0,
 394923,-0.029052734375,-0.9560546875,-0.243896484375,-0.3353658616542816,0.060975611209869385,0.21341463923454285,0.0,-17.700000762939453,7.050000190734863,40.88798141479492,0,
 394943,-0.020751953125,-0.954833984375,-0.239990234375,-0.3353658616542816,0.4268292784690857,0.18292683362960815,2.8499999046325684,-19.200000762939453,5.400000095367432,41.0317497253418,0,
 394953,-0.0224609375,-0.9541015625,-0.244140625,0.0,0.21341463923454285,0.6097561120986938,0.8999999761581421,-18.299999237060547,6.900000095367432,41.07966995239258,0,
 394963,-0.025634765625,-0.95361328125,-0.24169921875,-0.15243902802467346,0.396341472864151,0.4878048896789551,0.15000000596046448,-18.0,7.949999809265137,40.9359016418457,0,
 394973,-0.0205078125,-0.953369140625,-0.243896484375,-0.060975611209869385,0.4878048896789551,0.5182926654815674,0.30000001192092896,-17.399999618530273,6.300000190734863,41.07966995239258,0,
 394983,-0.0244140625,-0.9541015625,-0.23486328125,0.12195122241973877,0.24390244483947754,0.4878048896789551,0.30000001192092896,-17.399999618530273,6.300000190734863,41.127593994140625,0,
 394993,-0.022705078125,-0.954833984375,-0.240966796875,0.24390244483947754,0.09146341681480408,0.4573170840740204,0.44999998807907104,-16.799999237060547,7.650000095367432,41.07966995239258,0,
 395003,-0.0302734375,-0.95849609375,-0.23974609375,0.21341463923454285,0.4878048896789551,0.4268292784690857,0.44999998807907104,-17.100000381469727,7.650000095367432,41.0317497253418,0,
 395013,-0.02880859375,-0.95703125,-0.237060546875,0.27439025044441223,0.15243902802467346,0.6097561120986938,0.15000000596046448,-17.549999237060547,5.400000095367432,40.60044479370117,0,
 395023,-0.031005859375,-0.955810546875,-0.241455078125,0.5487805008888245,0.396341472864151,0.6402438879013062,1.7999999523162842,-16.950000762939453,8.25,40.88798141479492,0,
 395044,-0.02685546875,-0.95654296875,-0.2412109375,-0.09146341681480408,0.24390244483947754,0.5487805008888245,-0.30000001192092896,-17.700000762939453,7.5,41.22344207763672,0,
 395054,-0.027099609375,-0.956787109375,-0.23486328125,-0.3353658616542816,0.3353658616542816,0.3658536672592163,1.0499999523162842,-16.950000762939453,6.300000190734863,41.0317497253418,0,
 395064,-0.0205078125,-0.956787109375,-0.237060546875,0.060975611209869385,0.09146341681480408,0.15243902802467346,0.75,-17.399999618530273,5.25,41.07966995239258,0,
 395074,-0.0244140625,-0.95654296875,-0.23828125,0.0,0.12195122241973877,0.3048780560493469,0.75,-17.399999618530273,5.25,40.79213333129883,0,
 395084,-0.020263671875,-0.95654296875,-0.23388671875,-0.18292683362960815,0.3353658616542816,0.3353658616542816,-0.15000000596046448,-17.549999237060547,6.449999809265137,41.2713623046875,0,
 395094,-0.02685546875,-0.955810546875,-0.23583984375,-0.3658536672592163,0.09146341681480408,0.24390244483947754,1.2000000476837158,-18.299999237060547,7.199999809265137,41.0317497253418,0,
 395104,-0.0234375,-0.9599609375,-0.2392578125,-0.4268292784690857,0.3048780560493469,0.060975611209869385,1.649999976158142,-17.549999237060547,7.199999809265137,40.79213333129883,0,
 395114,-0.023193359375,-0.95263671875,-0.240234375,-0.6097561120986938,0.6097561120986938,0.21341463923454285,1.649999976158142,-17.549999237060547,7.199999809265137,41.0317497253418,0,
 395124,-0.021484375,-0.959228515625,-0.24169921875,-0.6097561120986938,0.24390244483947754,0.18292683362960815,-0.30000001192092896,-18.899999618530273,6.75,41.0317497253418,0,
 395144,-0.027099609375,-0.95361328125,-0.236083984375,-0.8841463327407837,0.4573170840740204,0.3658536672592163,0.75,-18.899999618530273,6.75,41.0317497253418,0,
 395154,-0.029052734375,-0.950927734375,-0.236572265625,-0.8536585569381714,0.3048780560493469,0.27439025044441223,0.75,-18.899999618530273,6.75,41.07966995239258,0,
 395164,-0.02490234375,-0.9580078125,-0.234375,-0.4268292784690857,0.3658536672592163,0.21341463923454285,0.44999998807907104,-18.299999237060547,7.199999809265137,40.88798141479492,0,
 395174,-0.025390625,-0.94921875,-0.238037109375,-0.7621951103210449,0.15243902802467346,0.4573170840740204,0.44999998807907104,-15.899999618530273,8.399999618530273,40.79213333129883,0,
 395184,-0.023193359375,-0.953857421875,-0.238525390625,-0.4878048896789551,0.3658536672592163,0.24390244483947754,0.15000000596046448,-16.799999237060547,6.900000095367432,40.9359016418457,0,
 395194,-0.030029296875,-0.948974609375,-0.239013671875,-0.18292683362960815,0.27439025044441223,0.24390244483947754,0.15000000596046448,-16.799999237060547,6.900000095367432,40.79213333129883,0,
 395204,-0.022705078125,-0.958740234375,-0.23388671875,-0.24390244483947754,0.4573170840740204,0.12195122241973877,1.5,-17.700000762939453,6.300000190734863,41.0317497253418,0,
 395214,-0.027587890625,-0.951171875,-0.238525390625,0.0,0.27439025044441223,0.3353658616542816,1.2000000476837158,-17.549999237060547,5.699999809265137,41.0317497253418,0,
 395224,-0.024169921875,-0.950439453125,-0.238037109375,-0.12195122241973877,0.4573170840740204,0.12195122241973877,2.0999999046325684,-17.100000381469727,5.699999809265137,40.6962890625,0,
 395234,-0.021728515625,-0.94921875,-0.235107421875,0.27439025044441223,0.4573170840740204,0.24390244483947754,-0.30000001192092896,-15.300000190734863,6.75,41.127593994140625,0,
 395254,-0.029052734375,-0.951171875,-0.239013671875,0.8841463327407837,0.27439025044441223,0.12195122241973877,-0.8999999761581421,-18.299999237060547,6.449999809265137,41.0317497253418,0,
 395264,-0.025146484375,-0.958740234375,-0.23681640625,1.3109756708145142,0.24390244483947754,0.15243902802467346,0.0,-16.950000762939453,6.75,40.88798141479492,0,
 395274,-0.0263671875,-0.959228515625,-0.23046875,0.9451219439506531,0.24390244483947754,0.15243902802467346,1.2000000476837158,-18.0,6.449999809265137,40.9359016418457,0,
 395284,-0.02587890625,-0.96240234375,-0.230712890625,0.3048780560493469,0.15243902802467346,-0.12195122241973877,1.2000000476837158,-18.0,6.449999809265137,41.22344207763672,0,
 395294,-0.03076171875,-0.962890625,-0.2314453125,-0.12195122241973877,0.3353658616542816,0.27439025044441223,0.30000001192092896,-17.700000762939453,6.300000190734863,40.9359016418457,0,
 395304,-0.02783203125,-0.961669921875,-0.228515625,-0.7012194991111755,0.4573170840740204,0.0,0.30000001192092896,-17.399999618530273,7.800000190734863,40.9359016418457,0,
 395314,-0.029541015625,-0.9580078125,-0.236572265625,-1.2195122241973877,0.396341472864151,-0.09146341681480408,0.30000001192092896,-16.5,6.75,40.9359016418457,0,
 395324,-0.02978515625,-0.9560546875,-0.234619140625,-1.2195122241973877,0.5792682766914368,-0.15243902802467346,0.30000001192092896,-16.5,6.75,40.79213333129883,0,
 395334,-0.022216796875,-0.947509765625,-0.23583984375,-1.1585365533828735,0.3048780560493469,-0.060975611209869385,1.5,-17.399999618530273,6.75,41.22344207763672,0,
 395344,-0.0263671875,-0.952392578125,-0.239501953125,-0.6402438879013062,0.396341472864151,-0.24390244483947754,0.8999999761581421,-19.5,4.949999809265137,40.9359016418457,0,
 395354,-0.02685546875,-0.95654296875,-0.2373046875,-1.0670732259750366,0.09146341681480408,0.060975611209869385,-0.75,-18.600000381469727,7.050000190734863,41.0317497253418,0,
 395364,-0.02880859375,-0.9580078125,-0.2392578125,-1.0060975551605225,0.5792682766914368,-0.060975611209869385,-0.75,-18.600000381469727,7.050000190734863,41.0317497253418,0,
 395374,-0.018798828125,-0.95458984375,-0.233154296875,-1.1280487775802612,0.5792682766914368,-0.12195122241973877,0.44999998807907104,-17.549999237060547,7.949999809265137,40.74421310424805,0,
 395384,-0.026611328125,-0.953125,-0.23681640625,-1.3719512224197388,0.3048780560493469,0.12195122241973877,1.7999999523162842,-18.899999618530273,7.5,40.79213333129883,0,
 395394,-0.020263671875,-0.95654296875,-0.234130859375,-1.2804877758026123,0.396341472864151,0.396341472864151,0.8999999761581421,-17.100000381469727,7.949999809265137,41.0317497253418,0,
 395404,-0.0322265625,-0.956298828125,-0.239990234375,-1.432926893234253,0.7317073345184326,-0.18292683362960815,0.8999999761581421,-17.100000381469727,7.949999809265137,40.9359016418457,0,
 395414,-0.026611328125,-0.94921875,-0.239990234375,-1.3719512224197388,0.396341472864151,0.18292683362960815,1.2000000476837158,-17.549999237060547,6.900000095367432,41.127593994140625,0,
 395424,-0.02099609375,-0.961669921875,-0.233642578125,-1.3719512224197388,0.5792682766914368,0.18292683362960815,-0.44999998807907104,-15.600000381469727,4.949999809265137,40.74421310424805,0,
 395434,-0.023681640625,-0.957763671875,-0.240966796875,-1.4634146690368652,0.3658536672592163,0.18292683362960815,1.5,-17.399999618530273,7.050000190734863,40.79213333129883,0,
 395454,-0.0234375,-0.947509765625,-0.23876953125,-1.097561001777649,0.5792682766914368,-0.3048780560493469,1.0499999523162842,-17.399999618530273,7.5,40.9359016418457,0,
 395464,-0.02001953125,-0.94873046875,-0.23974609375,0.24390244483947754,0.6402438879013062,0.12195122241973877,0.8999999761581421,-15.600000381469727,7.199999809265137,40.9359016418457,0,
 395474,-0.031494140625,-0.946044921875,-0.24072265625,0.7012194991111755,0.24390244483947754,-0.060975611209869385,0.44999998807907104,-18.299999237060547,7.199999809265137,40.9359016418457,0,
 395484,-0.022705078125,-0.953369140625,-0.244873046875,0.6707317233085632,0.18292683362960815,-0.030487805604934692,1.5,-16.950000762939453,6.0,41.0317497253418,0,
 395494,-0.02490234375,-0.950927734375,-0.241943359375,1.402438998222351,0.24390244483947754,-0.15243902802467346,1.5,-16.950000762939453,6.0,40.9359016418457,0,
 395504,-0.020751953125,-0.95166015625,-0.2333984375,1.402438998222351,0.4573170840740204,-0.18292683362960815,0.8999999761581421,-18.0,7.650000095367432,41.2713623046875,0,
 395514,-0.02734375,-0.947265625,-0.231201171875,1.402438998222351,0.060975611209869385,-0.4573170840740204,0.44999998807907104,-17.549999237060547,8.399999618530273,40.88798141479492,0,
 395524,-0.022705078125,-0.95361328125,-0.24267578125,1.402438998222351,0.27439025044441223,-0.15243902802467346,0.8999999761581421,-17.100000381469727,6.150000095367432,40.9359016418457,0,
 395534,-0.03173828125,-0.958740234375,-0.23291015625,1.6158536672592163,0.6097561120986938,-0.030487805604934692,0.8999999761581421,-17.100000381469727,6.150000095367432,41.07966995239258,0,
 395544,-0.026123046875,-0.955810546875,-0.23681640625,1.3109756708145142,0.396341472864151,-0.15243902802467346,1.5,-16.5,4.050000190734863,41.0317497253418,0,
 395554,-0.02294921875,-0.953857421875,-0.2333984375,0.8536585569381714,0.6097561120986938,-0.6097561120986938,2.4000000953674316,-17.549999237060547,7.199999809265137,40.79213333129883,0,
 395564,-0.02294921875,-0.951171875,-0.2373046875,0.6402438879013062,0.6707317233085632,-0.09146341681480408,1.0499999523162842,-18.149999618530273,6.300000190734863,40.88798141479492,0,
 395574,-0.020263671875,-0.95751953125,-0.236083984375,0.21341463923454285,0.7317073345184326,-0.12195122241973877,1.0499999523162842,-18.149999618530273,6.300000190734863,40.9359016418457,0,
 395584,-0.023681640625,-0.965576171875,-0.22900390625,-0.9146341681480408,0.7621951103210449,-0.24390244483947754,-0.30000001192092896,-16.950000762939453,8.25,41.0317497253418,0,
 395594,-0.018798828125,-0.970703125,-0.244140625,-3.353658676147461,2.4390244483947754,-0.09146341681480408,0.44999998807907104,-17.100000381469727,8.399999618530273,41.127593994140625,0,
 395604,-0.0078125,-0.927978515625,-0.24267578125,-0.3658536672592163,0.5792682766914368,0.7621951103210449,1.5,-18.149999618530273,6.75,40.9359016418457,0,
 395614,-0.035400390625,-0.980224609375,-0.229736328125,-2.7439024448394775,1.3414634466171265,-0.09146341681480408,1.5,-18.149999618530273,6.75,40.9359016418457,0,
 395624,-0.021484375,-0.940673828125,-0.24560546875,-1.6463414430618286,0.6402438879013062,0.3048780560493469,0.75,-18.149999618530273,7.5,41.127593994140625,0,
 395634,-0.01904296875,-0.9423828125,-0.2470703125,-1.1585365533828735,1.3719512224197388,0.09146341681480408,2.4000000953674316,-17.100000381469727,4.949999809265137,41.0317497253418,0,
 395644,-0.027587890625,-0.9541015625,-0.234619140625,0.09146341681480408,1.0365853309631348,0.4573170840740204,0.44999998807907104,-12.449999809265137,4.199999809265137,41.2713623046875,0,
 395654,-0.0244140625,-0.964599609375,-0.23193359375,-0.030487805604934692,0.792682945728302,0.3353658616542816,0.44999998807907104,-18.75,6.150000095367432,41.0317497253418,0,
 395664,-0.0302734375,-0.971923828125,-0.234375,-0.18292683362960815,0.792682945728302,0.12195122241973877,0.44999998807907104,-17.549999237060547,7.650000095367432,40.79213333129883,0,
 395674,-0.0263671875,-0.965576171875,-0.230224609375,-1.4634146690368652,0.8536585569381714,0.0,1.5,-18.600000381469727,7.050000190734863,41.0317497253418,0,
 395684,-0.025634765625,-0.967041015625,-0.232666015625,-2.103658676147461,0.9756097793579102,0.4268292784690857,0.75,-18.149999618530273,7.800000190734863,40.79213333129883,0,
 395694,-0.019775390625,-0.957763671875,-0.2333984375,-2.682926893234253,0.7317073345184326,0.060975611209869385,2.25,-16.5,8.550000190734863,41.22344207763672,0,
 395704,-0.02294921875,-0.9609375,-0.239990234375,-1.9512195587158203,0.5182926654815674,-0.12195122241973877,2.25,-16.5,8.550000190734863,41.127593994140625,0,
 395714,-0.016357421875,-0.9541015625,-0.23583984375,-2.103658676147461,0.9756097793579102,-0.12195122241973877,1.649999976158142,-15.600000381469727,7.199999809265137,41.0317497253418,0,
 395724,-0.026611328125,-0.96044921875,-0.242919921875,-2.0426828861236572,0.8231707215309143,-0.15243902802467346,0.44999998807907104,-17.100000381469727,7.650000095367432,41.0317497253418,0,
 395734,-0.021728515625,-0.95166015625,-0.23876953125,-2.0426828861236572,0.8841463327407837,-0.12195122241973877,-0.15000000596046448,-15.600000381469727,7.650000095367432,41.0317497253418,0,
 395744,-0.023193359375,-0.958740234375,-0.24267578125,-1.920731782913208,0.4573170840740204,-0.09146341681480408,-0.15000000596046448,-15.600000381469727,7.650000095367432,40.9359016418457,0,
 395754,-0.024658203125,-0.95703125,-0.2412109375,-1.9512195587158203,0.7012194991111755,0.5182926654815674,2.0999999046325684,-19.5,3.9000000953674316,41.2713623046875,0,
 395764,-0.02490234375,-0.954833984375,-0.239990234375,-1.8292683362960815,0.4268292784690857,0.4573170840740204,0.8999999761581421,-16.350000381469727,7.650000095367432,40.88798141479492,0,
 395774,-0.022216796875,-0.955078125,-0.23974609375,-1.9817073345184326,0.9451219439506531,0.18292683362960815,-0.8999999761581421,-16.799999237060547,6.150000095367432,40.9359016418457,0,
 395784,-0.029052734375,-0.950927734375,-0.23974609375,-1.8292683362960815,0.5792682766914368,0.21341463923454285,-0.8999999761581421,-16.799999237060547,6.150000095367432,40.9359016418457,0,
 395794,-0.02392578125,-0.963134765625,-0.238525390625,-1.402438998222351,0.6707317233085632,0.18292683362960815,-0.44999998807907104,-17.549999237060547,5.699999809265137,41.0317497253418,0,
 395804,-0.031494140625,-0.9501953125,-0.23583984375,-1.7987805604934692,0.792682945728302,0.030487805604934692,0.30000001192092896,-18.600000381469727,8.550000190734863,41.0317497253418,0,
 395814,-0.0205078125,-0.951171875,-0.243896484375,-1.8902438879013062,0.396341472864151,0.09146341681480408,0.44999998807907104,-15.899999618530273,7.199999809265137,40.79213333129883,0,
 395824,-0.022705078125,-0.954833984375,-0.24169921875,-1.585365891456604,0.5487805008888245,0.5182926654815674,0.44999998807907104,-15.899999618530273,7.199999809265137,41.0317497253418,0,
 395835,-0.016357421875,-0.95068359375,-0.239501953125,-1.5243902206420898,0.7317073345184326,0.12195122241973877,-0.30000001192092896,-15.75,6.0,41.0317497253418,0,
 395845,-0.02001953125,-0.95263671875,-0.239013671875,-1.1280487775802612,0.7621951103210449,0.5792682766914368,0.0,-18.149999618530273,7.050000190734863,40.9359016418457,0,
 395855,-0.026611328125,-0.950439453125,-0.237060546875,-1.1890244483947754,0.7317073345184326,0.5487805008888245,1.7999999523162842,-19.799999237060547,4.050000190734863,41.0317497253418,0,
 395865,-0.026611328125,-0.9580078125,-0.23583984375,-1.5243902206420898,0.7621951103210449,0.4573170840740204,2.549999952316284,-17.700000762939453,6.300000190734863,41.0317497253418,0,
 395875,-0.0224609375,-0.95263671875,-0.237060546875,-1.5243902206420898,0.7012194991111755,0.18292683362960815,1.5,-18.600000381469727,7.050000190734863,41.22344207763672,0,
 395885,-0.02099609375,-0.958251953125,-0.24267578125,-1.6463414430618286,0.6707317233085632,0.24390244483947754,0.15000000596046448,-17.549999237060547,6.150000095367432,41.127593994140625,0,
 395905,-0.02392578125,-0.96044921875,-0.23974609375,-1.5243902206420898,0.792682945728302,-0.060975611209869385,1.2000000476837158,-16.350000381469727,4.949999809265137,40.9359016418457,0,
 395915,-0.016357421875,-0.957763671875,-0.239990234375,-2.0731706619262695,0.4268292784690857,0.3353658616542816,1.2000000476837158,-16.350000381469727,4.949999809265137,40.88798141479492,0,
 395925,-0.0234375,-0.95556640625,-0.241943359375,-2.4695122241973877,0.5792682766914368,0.27439025044441223,0.75,-18.149999618530273,7.800000190734863,41.07966995239258,0,
 395935,-0.022216796875,-0.950439453125,-0.2392578125,-2.195122003555298,0.6707317233085632,0.3048780560493469,1.7999999523162842,-17.700000762939453,6.75,41.127593994140625,0,
 395945,-0.009033203125,-0.946044921875,-0.244873046875,-1.6158536672592163,0.4268292784690857,0.3658536672592163,0.15000000596046448,-18.75,6.150000095367432,41.127593994140625,0,
 395955,-0.02392578125,-0.9521484375,-0.248046875,-1.1280487775802612,0.7012194991111755,0.8231707215309143,0.15000000596046448,-18.75,6.150000095367432,40.74421310424805,0,
 395965,-0.023681640625,-0.950439453125,-0.248779296875,-0.8231707215309143,0.4878048896789551,0.9756097793579102,0.75,-17.399999618530273,7.5,41.0317497253418,0,
 395975,-0.025390625,-0.9501953125,-0.244873046875,-0.12195122241973877,0.3353658616542816,1.1280487775802612,1.0499999523162842,-17.399999618530273,6.75,41.0317497253418,0,
 395985,-0.020263671875,-0.939697265625,-0.249755859375,0.396341472864151,0.4878048896789551,1.1890244483947754,0.44999998807907104,-17.549999237060547,6.449999809265137,41.0317497253418,0,
 396005,-0.01611328125,-0.952880859375,-0.251220703125,1.2195122241973877,0.21341463923454285,1.7073171138763428,1.5,-16.200000762939453,7.5,40.9359016418457,0,
 396015,-0.023681640625,-0.938232421875,-0.239990234375,2.77439022064209,-0.12195122241973877,1.8292683362960815,1.5,-19.799999237060547,6.75,41.127593994140625,0,
 396025,0.00146484375,-0.95263671875,-0.2353515625,2.9573171138763428,-0.5182926654815674,2.22560977935791,0.8999999761581421,-18.0,7.199999809265137,41.07966995239258,0,
 396035,-0.03271484375,-0.958251953125,-0.252197265625,2.0731706619262695,0.21341463923454285,2.378048896789551,0.8999999761581421,-18.0,7.199999809265137,41.07966995239258,0,
 396045,-0.027099609375,-0.93408203125,-0.242431640625,3.353658676147461,-0.060975611209869385,2.4695122241973877,-0.15000000596046448,-15.899999618530273,4.949999809265137,40.9359016418457,0,
 396055,-0.02880859375,-0.96240234375,-0.240234375,3.2317073345184326,0.060975611209869385,2.22560977935791,2.0999999046325684,-14.399999618530273,4.949999809265137,40.79213333129883,0,
 396065,-0.015380859375,-0.9443359375,-0.243408203125,3.47560977935791,0.030487805604934692,2.804877996444702,-0.75,-19.350000381469727,7.050000190734863,40.9359016418457,0,
 396075,-0.02490234375,-0.955810546875,-0.24609375,3.9024391174316406,0.030487805604934692,2.5,1.0499999523162842,-17.700000762939453,6.75,41.07966995239258,0,
 396085,-0.02734375,-0.95654296875,-0.240234375,4.02439022064209,0.24390244483947754,2.7134146690368652,1.649999976158142,-19.200000762939453,6.900000095367432,41.07966995239258,0,
 396095,-0.025390625,-0.955810546875,-0.23876953125,4.237804889678955,0.12195122241973877,2.6524391174316406,0.8999999761581421,-17.100000381469727,6.900000095367432,41.07966995239258,0,
 396105,-0.030029296875,-0.958251953125,-0.240234375,4.329268455505371,-0.18292683362960815,2.4695122241973877,0.8999999761581421,-17.549999237060547,7.199999809265137,40.50459671020508,0,
 396115,-0.028564453125,-0.956298828125,-0.23193359375,4.054878234863281,-0.060975611209869385,2.682926893234253,-0.15000000596046448,-17.549999237060547,6.900000095367432,40.9359016418457,0,
 396125,-0.0263671875,-0.96337890625,-0.236328125,4.054878234863281,-0.030487805604934692,2.5304877758026123,-0.15000000596046448,-17.549999237060547,6.900000095367432,41.127593994140625,0,
 396135,-0.034423828125,-0.959716796875,-0.234375,3.567073345184326,0.030487805604934692,2.5304877758026123,2.25,-16.950000762939453,7.800000190734863,41.0317497253418,0,
 396145,-0.027587890625,-0.9619140625,-0.2275390625,3.4146342277526855,-0.396341472864151,2.4390244483947754,1.7999999523162842,-16.950000762939453,7.5,41.22344207763672,0,
 396155,-0.0283203125,-0.95703125,-0.23095703125,3.0487804412841797,0.18292683362960815,2.0426828861236572,1.0499999523162842,-15.0,5.25,40.74421310424805,0,
 396165,-0.03369140625,-0.96337890625,-0.225830078125,2.591463565826416,0.21341463923454285,1.432926893234253,1.0499999523162842,-15.0,5.25,41.0317497253418,0,
 396175,-0.02783203125,-0.96337890625,-0.227783203125,1.7073171138763428,0.3658536672592163,1.9512195587158203,0.15000000596046448,-16.350000381469727,5.699999809265137,41.07966995239258,0,
 396185,-0.03076171875,-0.960205078125,-0.230224609375,0.9756097793579102,0.4573170840740204,1.5243902206420898,1.0499999523162842,-16.950000762939453,6.300000190734863,41.07966995239258,0,
 396195,-0.034912109375,-0.955810546875,-0.229248046875,0.8536585569381714,0.3658536672592163,1.3719512224197388,2.0999999046325684,-15.149999618530273,7.949999809265137,40.88798141479492,0,
 396205,-0.029052734375,-0.960205078125,-0.227783203125,0.21341463923454285,-0.030487805604934692,1.3719512224197388,2.0999999046325684,-15.149999618530273,7.949999809265137,40.9359016418457,0,
 396215,-0.040771484375,-0.937255859375,-0.212158203125,1.0060975551605225,-0.15243902802467346,1.0670732259750366,1.2000000476837158,-15.899999618530273,4.949999809265137,41.0317497253418,0,
 396225,-0.02587890625,-0.961181640625,-0.226318359375,-0.18292683362960815,0.15243902802467346,1.1585365533828735,0.75,-17.399999618530273,6.300000190734863,41.0317497253418,0,
 396235,-0.027587890625,-0.95947265625,-0.2275390625,-0.060975611209869385,0.12195122241973877,0.792682945728302,1.2000000476837158,-17.549999237060547,6.900000095367432,40.9359016418457,0,
 396245,-0.028564453125,-0.959228515625,-0.23046875,-0.7012194991111755,0.27439025044441223,0.6402438879013062,1.2000000476837158,-17.549999237060547,6.900000095367432,40.9359016418457,0,
 396255,-0.02783203125,-0.95947265625,-0.235107421875,-0.6707317233085632,0.6402438879013062,0.8841463327407837,2.25,-16.950000762939453,7.800000190734863,40.74421310424805,0,
 396265,-0.032470703125,-0.956298828125,-0.233642578125,-1.1280487775802612,0.5487805008888245,0.3353658616542816,1.5,-17.700000762939453,3.299999952316284,41.0317497253418,0,
 396275,-0.03369140625,-0.95654296875,-0.23095703125,-1.3414634466171265,0.4878048896789551,0.6402438879013062,0.30000001192092896,-18.149999618530273,6.300000190734863,41.0317497253418,0,
 396285,-0.03466796875,-0.9560546875,-0.226318359375,-1.9817073345184326,0.6707317233085632,0.27439025044441223,0.15000000596046448,-15.600000381469727,6.449999809265137,41.07966995239258,0,
 396295,-0.02783203125,-0.955322265625,-0.228271484375,-2.103658676147461,0.7621951103210449,0.3048780560493469,1.7999999523162842,-16.950000762939453,5.25,41.0317497253418,0,
 396305,-0.029541015625,-0.955810546875,-0.227294921875,-2.0731706619262695,0.792682945728302,0.6402438879013062,1.0499999523162842,-16.950000762939453,7.5,41.0317497253418,0,
 396315,-0.028564453125,-0.9609375,-0.22900390625,-1.8902438879013062,0.8231707215309143,0.8231707215309143,0.75,-17.700000762939453,7.5,41.127593994140625,0,
 396325,-0.0322265625,-0.958984375,-0.22802734375,-2.195122003555298,0.7317073345184326,0.8536585569381714,0.44999998807907104,-18.0,7.650000095367432,41.127593994140625,0,
 396335,-0.026611328125,-0.951171875,-0.237548828125,-2.103658676147461,0.9146341681480408,0.792682945728302,0.44999998807907104,-18.0,7.650000095367432,40.79213333129883,0,
 396345,-0.032958984375,-0.957275390625,-0.23193359375,-1.8292683362960815,0.8231707215309143,0.9146341681480408,1.0499999523162842,-17.700000762939453,7.050000190734863,41.127593994140625,0,
 396355,-0.03125,-0.958251953125,-0.232421875,-2.22560977935791,0.7621951103210449,0.8841463327407837,0.75,-16.5,6.75,40.9359016418457,0,
 396375,-0.03173828125,-0.950927734375,-0.238525390625,-1.432926893234253,0.5182926654815674,1.0365853309631348,1.649999976158142,-18.0,3.450000047683716,41.0317497253418,0,
 396385,-0.03515625,-0.9599609375,-0.23193359375,-0.9756097793579102,0.3658536672592163,1.1890244483947754,0.75,-16.200000762939453,7.5,40.9359016418457,0,
 396395,-0.031982421875,-0.9560546875,-0.23681640625,-1.1890244483947754,0.6707317233085632,1.097561001777649,-1.0499999523162842,-14.550000190734863,6.75,40.88798141479492,0,
 396405,-0.032958984375,-0.95068359375,-0.238037109375,-0.6402438879013062,0.5792682766914368,1.3414634466171265,0.8999999761581421,-18.0,7.199999809265137,41.22344207763672,0,
 396415,-0.02490234375,-0.95361328125,-0.2353515625,-0.18292683362960815,0.27439025044441223,1.3414634466171265,0.8999999761581421,-18.0,7.199999809265137,41.0317497253418,0,
 396425,-0.033203125,-0.949462890625,-0.23779296875,0.396341472864151,0.4268292784690857,1.3719512224197388,0.0,-16.5,7.800000190734863,41.0317497253418,0,
 396435,-0.033935546875,-0.94775390625,-0.23681640625,0.9146341681480408,0.5182926654815674,1.5243902206420898,1.2000000476837158,-16.350000381469727,7.650000095367432,41.127593994140625,0,
 396445,-0.030517578125,-0.953125,-0.23388671875,1.402438998222351,0.09146341681480408,1.7073171138763428,0.30000001192092896,-17.700000762939453,6.0,40.74421310424805,0,
 396455,-0.02978515625,-0.955322265625,-0.235595703125,1.9512195587158203,-0.09146341681480408,1.6768293380737305,0.30000001192092896,-17.700000762939453,6.0,40.9359016418457,0,
 396465,-0.02880859375,-0.953125,-0.22998046875,2.0426828861236572,-0.3353658616542816,1.8902438879013062,2.25,-15.0,3.75,41.0317497253418,0,
 396475,-0.032958984375,-0.9560546875,-0.23291015625,1.6768293380737305,-0.18292683362960815,1.7987805604934692,0.30000001192092896,-17.399999618530273,7.5,40.88798141479492,0,
 396485,-0.02783203125,-0.955322265625,-0.23291015625,2.012195110321045,0.0,1.5243902206420898,1.2000000476837158,-18.0,6.449999809265137,41.0317497253418,0,
 396495,-0.03466796875,-0.959228515625,-0.2294921875,1.9817073345184326,0.0,1.6463414430618286,0.8999999761581421,-15.149999618530273,7.650000095367432,40.9359016418457,0,
 396505,-0.03955078125,-0.955810546875,-0.227783203125,1.6463414430618286,0.060975611209869385,1.0670732259750366,0.8999999761581421,-15.149999618530273,7.650000095367432,40.9359016418457,0,
 396525,-0.033935546875,-0.963134765625,-0.229736328125,1.0365853309631348,0.18292683362960815,1.097561001777649,0.75,-16.950000762939453,6.300000190734863,41.127593994140625,0,
 396535,-0.032958984375,-0.96435546875,-0.229736328125,0.7317073345184326,0.12195122241973877,1.0365853309631348,2.0999999046325684,-17.549999237060547,8.699999809265137,41.127593994140625,0,
 396545,-0.0341796875,-0.95849609375,-0.22705078125,-0.3048780560493469,0.6097561120986938,0.9451219439506531,2.0999999046325684,-17.549999237060547,8.699999809265137,40.79213333129883,0,
 396555,-0.032958984375,-0.95751953125,-0.222412109375,-0.09146341681480408,0.5792682766914368,0.8841463327407837,0.15000000596046448,-18.75,7.650000095367432,41.0317497253418,0,
 396565,-0.037109375,-0.958740234375,-0.233154296875,-0.6097561120986938,0.27439025044441223,0.6707317233085632,0.30000001192092896,-15.300000190734863,6.300000190734863,40.74421310424805,0,
 396575,-0.037353515625,-0.958984375,-0.229248046875,-0.9756097793579102,0.4268292784690857,0.6097561120986938,0.15000000596046448,-17.100000381469727,7.650000095367432,41.0317497253418,0,
 396585,-0.0361328125,-0.963623046875,-0.227783203125,-1.4634146690368652,0.5487805008888245,-0.12195122241973877,0.15000000596046448,-17.100000381469727,7.650000095367432,41.07966995239258,0,
 396596,-0.033447265625,-0.96142578125,-0.225341796875,-1.3719512224197388,0.6097561120986938,-0.060975611209869385,0.30000001192092896,-17.700000762939453,7.5,40.79213333129883,0,
 396606,-0.038330078125,-0.95947265625,-0.226806640625,-2.22560977935791,0.5487805008888245,-0.24390244483947754,0.44999998807907104,-18.299999237060547,7.199999809265137,41.0317497253418,0,
 396616,-0.035888671875,-0.956298828125,-0.23388671875,-2.5609755516052246,0.6707317233085632,-0.5182926654815674,0.0,-16.5,7.5,41.127593994140625,0,
 396626,-0.035888671875,-0.95703125,-0.22607421875,-3.170731782913208,0.8536585569381714,-0.3658536672592163,0.0,-16.5,7.5,41.0317497253418,0,
 396636,-0.035400390625,-0.951416015625,-0.2333984375,-3.1097562313079834,0.9146341681480408,-0.24390244483947754,2.0999999046325684,-18.75,5.400000095367432,41.0317497253418,0,
 396646,-0.0361328125,-0.953369140625,-0.23388671875,-2.9268293380737305,0.5487805008888245,-0.21341463923454285,0.75,-16.950000762939453,7.800000190734863,40.88798141479492,0,
 396656,-0.036376953125,-0.951904296875,-0.23486328125,-2.7439024448394775,0.7012194991111755,-0.24390244483947754,1.2000000476837158,-18.75,7.199999809265137,41.0317497253418,0,
 396666,-0.03759765625,-0.951416015625,-0.2333984375,-2.987804889678955,0.8841463327407837,0.3353658616542816,0.75,-16.950000762939453,7.5,41.07966995239258,0,
 396676,-0.0322265625,-0.951416015625,-0.230224609375,-2.9268293380737305,0.5182926654815674,0.27439025044441223,0.0,-16.950000762939453,8.25,41.07966995239258,0,
 396686,-0.034912109375,-0.950439453125,-0.23046875,-3.2926828861236572,0.792682945728302,0.0,1.649999976158142,-16.350000381469727,5.400000095367432,41.07966995239258,0,
 396696,-0.03662109375,-0.951904296875,-0.2333984375,-3.170731782913208,0.7317073345184326,0.27439025044441223,1.7999999523162842,-18.600000381469727,6.75,40.74421310424805,0,
 396706,-0.033203125,-0.95166015625,-0.2353515625,-2.865853786468506,0.7317073345184326,-0.24390244483947754,0.44999998807907104,-17.549999237060547,7.650000095367432,41.0317497253418,0,
 396716,-0.034423828125,-0.955810546875,-0.2314453125,-3.079268455505371,0.8231707215309143,-0.3353658616542816,0.44999998807907104,-17.549999237060547,7.650000095367432,41.127593994140625,0,
 396726,-0.0341796875,-0.95703125,-0.235107421875,-3.170731782913208,0.8536585569381714,-0.396341472864151,0.75,-16.950000762939453,6.300000190734863,41.127593994140625,0,
 396736,-0.031982421875,-0.958251953125,-0.234375,-2.896341562271118,1.0060975551605225,-0.060975611209869385,2.4000000953674316,-17.549999237060547,6.150000095367432,41.127593994140625,0,
 396746,-0.03125,-0.95849609375,-0.23583984375,-3.2012195587158203,0.9451219439506531,0.030487805604934692,0.30000001192092896,-16.200000762939453,6.75,40.79213333129883,0,
 396756,-0.0341796875,-0.95703125,-0.24169921875,-3.079268455505371,0.9451219439506531,-0.09146341681480408,0.30000001192092896,-16.200000762939453,6.75,40.9359016418457,0,
 396766,-0.030517578125,-0.956298828125,-0.241455078125,-3.0182926654815674,0.8231707215309143,0.27439025044441223,1.2000000476837158,-17.100000381469727,6.900000095367432,41.127593994140625,0,
 396776,-0.03466796875,-0.966552734375,-0.2314453125,-3.079268455505371,0.8536585569381714,0.060975611209869385,3.5999999046325684,-18.299999237060547,3.9000000953674316,41.127593994140625,0,
 396786,-0.0302734375,-0.96142578125,-0.235595703125,-3.9939024448394775,0.7621951103210449,-0.030487805604934692,1.5,-15.75,6.300000190734863,40.79213333129883,0,
 396796,-0.032958984375,-0.951171875,-0.238037109375,-4.359755992889404,0.8841463327407837,0.5792682766914368,1.5,-15.75,6.300000190734863,40.9359016418457,0,
 396806,-0.03564453125,-0.959716796875,-0.2373046875,-3.8109757900238037,1.1280487775802612,0.9451219439506531,2.0999999046325684,-18.299999237060547,6.449999809265137,40.9359016418457,0,
 396816,-0.03271484375,-0.968017578125,-0.239990234375,-4.2682929039001465,0.5792682766914368,1.432926893234253,0.44999998807907104,-18.0,7.199999809265137,41.127593994140625,0,
 396826,-0.033935546875,-0.970703125,-0.240234375,-4.939024448394775,1.097561001777649,1.6158536672592163,0.15000000596046448,-17.549999237060547,7.199999809265137,40.9359016418457,0,
 396836,-0.02880859375,-1.013427734375,-0.24951171875,-8.292682647705078,-1.7987805604934692,6.707317352294922,0.15000000596046448,-17.549999237060547,7.199999809265137,40.9359016418457,0,
 396846,-0.041748046875,-1.0673828125,-0.19287109375,-19.024391174316406,1.6463414430618286,9.87804889678955,0.8999999761581421,-15.899999618530273,6.900000095367432,41.07966995239258,0,
 396856,-0.059326171875,-1.05029296875,-0.20654296875,-27.34756088256836,4.054878234863281,16.64634132385254,0.8999999761581421,-17.549999237060547,6.900000095367432,41.0317497253418,0,
 396866,0.031494140625,-1.046875,-0.2568359375,-31.03658676147461,0.18292683362960815,30.731708526611328,0.75,-17.700000762939453,7.800000190734863,41.07966995239258,0,
 396886,0.02197265625,-1.120849609375,-0.24560546875,-46.85975646972656,-8.841464042663574,67.04268646240234,-0.15000000596046448,-18.299999237060547,7.199999809265137,40.9359016418457,0,
 396896,-0.055419921875,-1.361328125,-0.2470703125,-75.94512176513672,-7.682927131652832,94.8780517578125,1.0499999523162842,-18.600000381469727,6.75,40.79213333129883,0,
 396906,0.09912109375,-1.275634765625,-0.337646484375,-81.09756469726562,-22.621952056884766,123.04878234863281,1.649999976158142,-17.100000381469727,7.949999809265137,41.07966995239258,0,
 396916,0.063232421875,-1.078369140625,-0.3779296875,-66.00609588623047,-33.38414764404297,144.51219177246094,3.5999999046325684,-17.100000381469727,6.900000095367432,40.79213333129883,0,
 396926,-0.058837890625,-1.05615234375,-0.406494140625,-54.817073822021484,-36.70731735229492,160.27439880371094,3.5999999046325684,-17.100000381469727,6.900000095367432,41.0317497253418,0,
 396936,-0.10546875,-1.064453125,-0.389892578125,-50.182926177978516,-36.006099700927734,169.66464233398438,3.5999999046325684,-19.200000762939453,9.449999809265137,40.79213333129883,0,
 396946,-0.151611328125,-0.97900390625,-0.3505859375,-38.32317352294922,-38.567073822021484,171.89024353027344,2.0999999046325684,-18.0,8.699999809265137,40.9359016418457,0,
 396956,-0.224853515625,-0.9501953125,-0.4091796875,-24.23780632019043,-39.969512939453125,164.60366821289062,3.75,-19.799999237060547,6.75,41.0317497253418,0,
 396966,-0.37744140625,-0.856689453125,-0.394287109375,13.262195587158203,-40.42683029174805,146.5853729248047,3.75,-19.799999237060547,6.75,40.9359016418457,0,
 396976,-0.573486328125,-0.888427734375,-0.47265625,79.54268646240234,-34.45122146606445,95.51829528808594,4.349999904632568,-16.799999237060547,4.199999809265137,40.9359016418457,0,
 396986,-0.698486328125,-1.31982421875,-0.79443359375,131.61585998535156,-16.79878044128418,-35.213417053222656,3.75,-18.600000381469727,7.5,40.6962890625,0,
 396996,-0.474853515625,-2.42333984375,-0.281005859375,95.39634704589844,-54.26829528808594,-164.2073211669922,3.1500000953674316,-16.799999237060547,7.199999809265137,41.0317497253418,0,
 397006,-0.4248046875,-0.15625,0.121826171875,-85.51829528808594,38.17073440551758,-237.01220703125,3.1500000953674316,-16.799999237060547,7.199999809265137,40.88798141479492,0,
 397016,-0.1728515625,0.9501953125,0.3359375,-115.1524429321289,39.69512176513672,-232.31707763671875,0.75,-18.600000381469727,8.550000190734863,40.9359016418457,0,
 397026,0.48876953125,1.2939453125,0.4560546875,-23.414634704589844,18.59756088256836,-149.93902587890625,-0.15000000596046448,-19.200000762939453,7.650000095367432,41.127593994140625,0,
 397036,0.151611328125,0.640380859375,0.344482421875,77.1036605834961,-15.487805366516113,-101.49390411376953,-1.649999976158142,-18.0,6.900000095367432,40.9359016418457,0,
 397046,0.4501953125,0.15771484375,0.122314453125,92.89634704589844,-13.32317066192627,-73.14024353027344,-1.649999976158142,-18.0,6.900000095367432,40.9359016418457,0,
 397056,0.492919921875,-0.048828125,-0.089111328125,64.96951293945312,-17.560976028442383,-55.70122146606445,-1.5,-18.149999618530273,6.0,40.9359016418457,0,
 397066,1.151123046875,0.126220703125,-0.016845703125,17.713415145874023,3.9634146690368652,-43.963417053222656,0.44999998807907104,-17.100000381469727,6.150000095367432,41.07966995239258,0,
 397076,1.1494140625,0.423095703125,-0.16748046875,10.060976028442383,-19.60365867614746,-46.82926940917969,-0.30000001192092896,-17.399999618530273,7.050000190734863,40.88798141479492,0,
 397086,1.140869140625,0.240478515625,-0.3125,25.030488967895508,-16.95121955871582,-60.88414764404297,0.0,-16.950000762939453,8.25,40.88798141479492,0,
 397096,-0.4423828125,-0.122802734375,-0.567138671875,17.713415145874023,-17.5,-59.42073440551758,0.0,-16.950000762939453,8.25,41.07966995239258,0,
 397106,1.253173828125,-4.657958984375,-0.412109375,239.6341552734375,85.12195587158203,95.79268646240234,1.649999976158142,-18.0,7.650000095367432,41.0317497253418,0,
 397116,-0.791015625,1.1669921875,0.064697265625,-149.90853881835938,99.05487823486328,-262.7743835449219,0.0,-16.950000762939453,6.300000190734863,41.07966995239258,0,
 397126,0.446533203125,2.298583984375,1.101318359375,122.74390411376953,-34.32926940917969,-398.7195129394531,2.4000000953674316,-17.549999237060547,6.900000095367432,41.0317497253418,0,
 397136,-0.434814453125,-2.76416015625,0.73583984375,224.72561645507812,-211.61585998535156,93.38414764404297,2.4000000953674316,-17.549999237060547,6.900000095367432,40.79213333129883,0,
 397146,-3.83935546875,-7.999755859375,5.117919921875,789.23779296875,-203.99391174316406,497.4695129394531,5.25,-14.25,6.0,41.07966995239258,0,
 397156,1.240234375,1.911865234375,-0.21435546875,-136.9207305908203,299.57318115234375,-8.20121955871582,4.199999809265137,-15.75,6.0,40.9359016418457,0,
 397166,-0.53466796875,0.44921875,0.9814453125,93.65853881835938,-1.402438998222351,-43.10975646972656,3.1500000953674316,-15.600000381469727,6.900000095367432,41.0317497253418,0,
 397176,0.108642578125,-0.392578125,-0.25439453125,-60.82317352294922,19.268293380737305,67.86585235595703,3.1500000953674316,-15.600000381469727,6.900000095367432,41.0317497253418,0,
 397186,0.59423828125,-0.634765625,-0.220947265625,-7.530488014221191,22.713415145874023,80.1524429321289,4.949999809265137,-16.5,3.0,40.74421310424805,0,
 397196,0.2587890625,-0.41015625,-0.330322265625,-31.310976028442383,22.10365867614746,93.84146881103516,3.5999999046325684,-17.100000381469727,7.199999809265137,40.9359016418457,0,
 397206,-0.82177734375,-0.930419921875,-0.634033203125,-27.957317352294922,-57.408538818359375,105.1524429321289,5.25,-16.950000762939453,7.050000190734863,41.07966995239258,0,
 397216,-0.273681640625,-0.68408203125,-0.28662109375,-41.95122146606445,-26.341463088989258,19.268293380737305,5.25,-16.950000762939453,7.050000190734863,41.0317497253418,0,
 397226,-0.077880859375,-0.45361328125,-0.2626953125,-19.024391174316406,-24.78658676147461,60.54878234863281,5.400000095367432,-15.899999618530273,6.900000095367432,41.0317497253418,0,
 397236,-0.2939453125,-1.29638671875,-0.3203125,11.585366249084473,-22.073171615600586,52.89634323120117,6.0,-15.0,7.800000190734863,41.127593994140625,0,
 397246,-0.31494140625,-1.0029296875,-0.29248046875,-3.8109757900238037,-9.29878044128418,37.8658561706543,6.599999904632568,-15.899999618530273,6.900000095367432,41.0317497253418,0,
 397256,-0.16455078125,-0.736328125,-0.205810546875,-10.030488014221191,0.7317073345184326,3.079268455505371,4.5,-16.950000762939453,6.300000190734863,41.07966995239258,0,
 397266,-0.087890625,-1.08349609375,-0.285888671875,-2.5609755516052246,3.3841464519500732,-2.2560975551605225,4.650000095367432,-15.149999618530273,8.399999618530273,41.31928634643555,0,
 397276,-0.07275390625,-0.947021484375,-0.33056640625,-6.128048896789551,13.262195587158203,-4.2682929039001465,4.650000095367432,-17.100000381469727,7.650000095367432,41.07966995239258,0,
 397286,-0.14404296875,-1.009033203125,-0.28955078125,-1.0060975551605225,10.518293380737305,-18.75,5.400000095367432,-14.399999618530273,5.400000095367432,41.0317497253418,0,
 397296,-0.09326171875,-1.1044921875,-0.29833984375,5.091463565826416,9.207317352294922,-18.780488967895508,4.5,-16.200000762939453,6.75,41.07966995239258,0,
 397306,-0.093017578125,-1.0205078125,-0.279296875,9.786585807800293,6.371951580047607,-18.719512939453125,4.5,-16.200000762939453,6.75,41.07966995239258,0,
 397316,-0.126708984375,-1.01025390625,-0.27294921875,13.841464042663574,4.390244007110596,-16.371952056884766,5.699999809265137,-16.200000762939453,8.25,41.0317497253418,0,
 397326,-0.091552734375,-1.01513671875,-0.22412109375,15.640244483947754,2.987804889678955,-9.57317066192627,3.5999999046325684,-16.799999237060547,5.699999809265137,40.60044479370117,0,
 397336,-0.088623046875,-1.01318359375,-0.18212890625,12.07317066192627,0.5792682766914368,-6.067073345184326,5.099999904632568,-15.600000381469727,7.199999809265137,40.6962890625,0,
 397346,-0.10107421875,-0.970947265625,-0.18701171875,9.786585807800293,1.432926893234253,-2.7439024448394775,5.099999904632568,-15.600000381469727,7.199999809265137,40.88798141479492,0,
 397356,-0.053466796875,-0.896240234375,-0.150146484375,11.890244483947754,-0.6402438879013062,-2.0731706619262695,5.25,-16.200000762939453,7.050000190734863,40.88798141479492,0,
 397367,-0.087890625,-0.938720703125,-0.156982421875,6.615853786468506,0.3658536672592163,-2.682926893234253,4.5,-16.200000762939453,7.800000190734863,41.31928634643555,0,
 397377,-0.0654296875,-0.846435546875,-0.1650390625,7.621951580047607,-0.5182926654815674,-4.02439022064209,3.9000000953674316,-15.600000381469727,7.949999809265137,40.74421310424805,0,
 397387,-0.080810546875,-0.8583984375,-0.187255859375,6.463414669036865,-0.09146341681480408,-6.280488014221191,3.9000000953674316,-15.600000381469727,7.949999809265137,41.0317497253418,0,
 397397,-0.09375,-0.8447265625,-0.21337890625,7.469512462615967,0.6707317233085632,-9.756097793579102,5.400000095367432,-14.399999618530273,6.449999809265137,40.9359016418457,0,
 397407,-0.086181640625,-0.8369140625,-0.231689453125,9.390244483947754,1.737804889678955,-12.865854263305664,5.400000095367432,-16.350000381469727,6.449999809265137,41.07966995239258,0,
 397417,-0.09814453125,-0.8505859375,-0.24462890625,10.54878044128418,3.2012195587158203,-15.82317066192627,6.300000190734863,-15.149999618530273,8.399999618530273,41.0317497253418,0,
 397427,-0.09619140625,-0.8544921875,-0.258544921875,13.231707572937012,4.359755992889404,-18.475610733032227,6.300000190734863,-15.149999618530273,8.399999618530273,40.79213333129883,0,
 397437,-0.087646484375,-0.870361328125,-0.25,14.390244483947754,5.243902683258057,-20.487804412841797,4.349999904632568,-17.100000381469727,8.399999618530273,41.0317497253418,0,
 397447,-0.092529296875,-0.88623046875,-0.244140625,15.12195110321045,5.97560977935791,-22.5,5.25,-14.550000190734863,7.5,40.88798141479492,0,
 397457,-0.060546875,-0.951416015625,-0.230712890625,14.87804889678955,4.603658676147461,-23.323171615600586,5.400000095367432,-15.899999618530273,6.449999809265137,41.0317497253418,0,
 397467,-0.0654296875,-0.97705078125,-0.23291015625,13.414634704589844,1.0365853309631348,-22.19512176513672,4.650000095367432,-13.949999809265137,8.399999618530273,41.0317497253418,0,
 397477,-0.029296875,-0.96044921875,-0.2431640625,12.5,0.18292683362960815,-20.914634704589844,5.25,-15.75,7.5,40.74421310424805,0,
 397487,-0.03955078125,-0.98828125,-0.25634765625,11.79878044128418,-3.3231709003448486,-13.170731544494629,3.9000000953674316,-12.75,6.449999809265137,41.0317497253418,0,
 397497,-0.06494140625,-1.013916015625,-0.247802734375,8.689024925231934,-2.5609755516052246,-9.146341323852539,4.650000095367432,-16.350000381469727,6.150000095367432,41.0317497253418,0,
 397507,-0.05322265625,-1.011474609375,-0.234375,4.908536911010742,-1.0365853309631348,-5.060975551605225,2.4000000953674316,-16.799999237060547,7.650000095367432,41.0317497253418,0,
 397517,-0.067138671875,-1.03759765625,-0.23681640625,2.22560977935791,-0.24390244483947754,-0.3353658616542816,2.4000000953674316,-16.799999237060547,7.650000095367432,41.0317497253418,0,
 397527,-0.078369140625,-1.0341796875,-0.231201171875,-2.012195110321045,0.8231707215309143,3.3231709003448486,4.5,-15.0,7.5,41.0317497253418,0,
 397537,-0.0791015625,-1.02294921875,-0.229736328125,-5.27439022064209,1.3719512224197388,4.45121955871582,5.099999904632568,-14.850000381469727,6.150000095367432,41.22344207763672,0,
 397547,-0.076904296875,-0.999755859375,-0.234375,-7.256097793579102,1.9512195587158203,5.5182929039001465,3.1500000953674316,-15.899999618530273,8.399999618530273,40.79213333129883,0,
 397557,-0.0771484375,-0.9892578125,-0.239501953125,-7.469512462615967,2.012195110321045,5.54878044128418,3.1500000953674316,-15.899999618530273,8.399999618530273,41.22344207763672,0,
 397567,-0.077880859375,-0.97802734375,-0.230712890625,-6.95121955871582,1.8597561120986938,5.060975551605225,3.5999999046325684,-15.899999618530273,5.400000095367432,40.88798141479492,0,
 397577,-0.072265625,-0.97900390625,-0.22412109375,-6.280488014221191,1.7682926654815674,4.146341323852539,5.25,-14.550000190734863,6.300000190734863,40.9359016418457,0,
 397587,-0.06591796875,-0.976806640625,-0.232666015625,-5.731707572937012,1.920731782913208,3.1097562313079834,3.1500000953674316,-15.899999618530273,7.650000095367432,41.127593994140625,0,
 397597,-0.079345703125,-0.96923828125,-0.21630859375,-3.658536672592163,1.0670732259750366,2.2865853309631348,3.1500000953674316,-15.899999618530273,7.650000095367432,40.88798141479492,0,
 397607,-0.076416015625,-0.958251953125,-0.218994140625,-3.4146342277526855,1.6158536672592163,0.4878048896789551,3.5999999046325684,-16.350000381469727,6.449999809265137,41.127593994140625,0,
 397617,-0.07177734375,-0.951171875,-0.221435546875,-1.7682926654815674,1.1280487775802612,-0.8536585569381714,4.199999809265137,-15.75,7.050000190734863,40.9359016418457,0,
 397627,-0.0751953125,-0.948486328125,-0.224609375,-0.18292683362960815,0.9146341681480408,-1.6158536672592163,3.75,-15.75,7.5,40.9359016418457,0,
 397647,-0.057373046875,-0.95458984375,-0.2158203125,2.591463565826416,-0.09146341681480408,-2.408536672592163,3.299999952316284,-15.300000190734863,6.300000190734863,41.0317497253418,0,
 397657,-0.06396484375,-0.962158203125,-0.207763671875,3.0182926654815674,0.15243902802467346,-2.012195110321045,4.949999809265137,-16.200000762939453,9.0,41.127593994140625,0,
 397667,-0.053466796875,-0.962890625,-0.205078125,2.5,0.3048780560493469,-1.3414634466171265,3.299999952316284,-16.5,7.050000190734863,40.9359016418457,0,
 397677,-0.058837890625,-0.963623046875,-0.20556640625,1.25,0.09146341681480408,-0.7012194991111755,3.299999952316284,-15.300000190734863,7.5,40.79213333129883,0,
 397687,-0.056640625,-0.95654296875,-0.2001953125,-0.09146341681480408,0.3353658616542816,0.21341463923454285,3.299999952316284,-15.300000190734863,7.5,41.0317497253418,0,
 397697,-0.058349609375,-0.94580078125,-0.20703125,-1.0060975551605225,0.3353658616542816,0.9451219439506531,4.5,-18.149999618530273,5.550000190734863,41.07966995239258,0,
 397707,-0.06201171875,-0.9384765625,-0.204345703125,-1.6768293380737305,0.5182926654815674,1.402438998222351,5.099999904632568,-15.899999618530273,7.199999809265137,40.9359016418457,0,
 397717,-0.0556640625,-0.932373046875,-0.218017578125,-1.8902438879013062,0.4268292784690857,1.9817073345184326,3.75,-15.75,7.5,41.127593994140625,0,
 397727,-0.0576171875,-0.93212890625,-0.218017578125,-2.0731706619262695,0.4878048896789551,1.6768293380737305,3.75,-15.75,7.5,40.9359016418457,0,
 397737,-0.057861328125,-0.934326171875,-0.21728515625,-1.4634146690368652,0.5487805008888245,1.5548781156539917,4.5,-15.0,7.050000190734863,41.0317497253418,0,
 397747,-0.05517578125,-0.929443359375,-0.223876953125,-1.5548781156539917,0.792682945728302,0.8536585569381714,5.099999904632568,-14.399999618530273,7.199999809265137,41.07966995239258,0,
 397757,-0.0556640625,-0.936767578125,-0.22265625,-0.8231707215309143,0.09146341681480408,0.09146341681480408,4.650000095367432,-16.350000381469727,6.449999809265137,41.0317497253418,0,
 397767,-0.06298828125,-0.93505859375,-0.222412109375,-0.27439025044441223,0.060975611209869385,-0.4268292784690857,4.650000095367432,-16.350000381469727,6.449999809265137,40.79213333129883,0,
 397777,-0.0576171875,-0.934814453125,-0.231689453125,0.3658536672592163,0.15243902802467346,-0.7012194991111755,3.0,-16.950000762939453,7.050000190734863,40.88798141479492,0,
 397787,-0.06005859375,-0.944580078125,-0.227783203125,0.21341463923454285,-0.4268292784690857,-1.0060975551605225,2.25,-16.200000762939453,7.050000190734863,40.88798141479492,0,
 397797,-0.057861328125,-0.9453125,-0.224853515625,0.12195122241973877,-0.060975611209869385,-0.7012194991111755,4.650000095367432,-13.949999809265137,4.199999809265137,41.22344207763672,0,
 397807,-0.06103515625,-0.953369140625,-0.2314453125,0.21341463923454285,-0.12195122241973877,-0.18292683362960815,4.650000095367432,-13.949999809265137,4.199999809265137,40.9359016418457,0,
 397817,-0.066162109375,-0.958740234375,-0.225830078125,-0.24390244483947754,0.12195122241973877,-0.030487805604934692,3.75,-16.950000762939453,6.75,40.74421310424805,0,
 397827,-0.061767578125,-0.95849609375,-0.226318359375,-0.4573170840740204,0.030487805604934692,0.15243902802467346,5.099999904632568,-14.850000381469727,6.900000095367432,40.9359016418457,0,
 397837,-0.063720703125,-0.96484375,-0.236328125,-0.7621951103210449,0.3658536672592163,0.396341472864151,5.25,-16.5,7.5,40.79213333129883,0,
 397847,-0.065673828125,-0.964111328125,-0.23779296875,-0.7012194991111755,0.27439025044441223,0.27439025044441223,5.25,-16.5,7.5,41.0317497253418,0,
 397857,-0.063232421875,-0.96630859375,-0.232666015625,-0.6402438879013062,0.396341472864151,0.6097561120986938,3.75,-17.700000762939453,8.25,41.127593994140625,0,
 397867,-0.062744140625,-0.965576171875,-0.231689453125,-0.7317073345184326,0.4268292784690857,0.7621951103210449,4.199999809265137,-16.200000762939453,6.75,40.74421310424805,0,
 397877,-0.069580078125,-0.967529296875,-0.23486328125,-0.7317073345184326,0.6707317233085632,0.5487805008888245,4.949999809265137,-15.75,8.550000190734863,41.127593994140625,0,
 397887,-0.06787109375,-0.9638671875,-0.2333984375,-0.792682945728302,0.18292683362960815,0.15243902802467346,4.5,-14.550000190734863,6.300000190734863,41.0317497253418,0,
 397897,-0.061767578125,-0.96044921875,-0.238525390625,-0.6097561120986938,0.3658536672592163,0.15243902802467346,4.5,-14.550000190734863,6.300000190734863,40.79213333129883,0,
 397907,-0.066650390625,-0.96630859375,-0.232177734375,-0.27439025044441223,0.27439025044441223,-0.18292683362960815,3.5999999046325684,-15.149999618530273,7.199999809265137,41.0317497253418,0,
 397917,-0.07177734375,-0.95556640625,-0.230224609375,0.4573170840740204,0.27439025044441223,-0.15243902802467346,4.650000095367432,-16.799999237060547,10.199999809265137,40.9359016418457,0,
 397927,-0.07373046875,-0.955810546875,-0.22607421875,1.0365853309631348,0.5182926654815674,-0.3048780560493469,3.5999999046325684,-17.100000381469727,6.900000095367432,40.79213333129883,0,
 397937,-0.064453125,-0.9609375,-0.2255859375,1.1890244483947754,0.030487805604934692,-0.27439025044441223,3.5999999046325684,-17.100000381469727,6.900000095367432,41.0317497253418,0,
 397947,-0.066650390625,-0.9599609375,-0.224609375,1.585365891456604,0.12195122241973877,-0.3353658616542816,3.299999952316284,-15.0,7.800000190734863,41.22344207763672,0,
 397957,-0.06103515625,-0.961669921875,-0.22509765625,1.25,0.396341472864151,-0.24390244483947754,5.25,-14.550000190734863,7.5,41.0317497253418,0,
 397967,-0.063720703125,-0.96484375,-0.223876953125,1.5548781156539917,-0.21341463923454285,-0.3658536672592163,3.75,-15.300000190734863,7.050000190734863,40.74421310424805,0,
 397977,-0.061279296875,-0.955810546875,-0.2197265625,1.25,-0.09146341681480408,-0.3658536672592163,3.75,-15.300000190734863,7.050000190734863,40.9359016418457,0,
 397987,-0.063720703125,-0.955810546875,-0.220703125,1.9512195587158203,0.15243902802467346,-0.4573170840740204,3.75,-15.75,5.550000190734863,41.0317497253418,0,
 397997,-0.06201171875,-0.95068359375,-0.220458984375,1.9512195587158203,0.060975611209869385,-0.3658536672592163,3.299999952316284,-15.300000190734863,6.75,40.9359016418457,0,
 398007,-0.057861328125,-0.95849609375,-0.22119140625,2.4390244483947754,-0.09146341681480408,-0.4878048896789551,4.5,-15.0,4.800000190734863,41.0317497253418,0,
 398017,-0.060546875,-0.94677734375,-0.2177734375,2.408536672592163,-0.12195122241973877,-0.5182926654815674,4.5,-15.0,4.800000190734863,40.74421310424805,0,
 398027,-0.06689453125,-0.95263671875,-0.222900390625,2.5609755516052246,-0.09146341681480408,-0.6097561120986938,3.5999999046325684,-15.149999618530273,6.449999809265137,41.0317497253418,0,
 398037,-0.0654296875,-0.95068359375,-0.2216796875,2.8353660106658936,-0.4268292784690857,-0.6097561120986938,3.75,-16.950000762939453,7.050000190734863,41.0317497253418,0,
 398047,-0.063720703125,-0.95068359375,-0.220458984375,3.079268455505371,-0.09146341681480408,-1.1890244483947754,6.300000190734863,-13.649999618530273,6.900000095367432,41.22344207763672,0,
 398057,-0.057373046875,-0.953125,-0.225830078125,3.3841464519500732,-0.24390244483947754,-0.9146341681480408,6.300000190734863,-13.649999618530273,6.900000095367432,41.0317497253418,0,
 398067,-0.055419921875,-0.944091796875,-0.22021484375,4.0853657722473145,-0.396341472864151,-1.097561001777649,4.949999809265137,-17.399999618530273,6.0,40.79213333129883,0,
 398077,-0.061279296875,-0.955810546875,-0.217529296875,4.695122241973877,-0.8231707215309143,-1.3719512224197388,4.349999904632568,-14.850000381469727,7.199999809265137,41.07966995239258,0,
 398087,-0.064453125,-0.9619140625,-0.2099609375,4.695122241973877,-0.6097561120986938,-1.25,4.949999809265137,-16.200000762939453,6.75,41.07966995239258,0,
 398097,-0.06298828125,-0.95263671875,-0.21826171875,4.512195110321045,-0.6402438879013062,-1.1585365533828735,3.5999999046325684,-15.899999618530273,6.449999809265137,41.0317497253418,0,
 398107,-0.067138671875,-0.953857421875,-0.212646484375,4.390244007110596,-0.3658536672592163,-1.097561001777649,2.8499999046325684,-16.799999237060547,4.199999809265137,40.79213333129883,0,
 398117,-0.05908203125,-0.951416015625,-0.217041015625,4.72560977935791,-0.396341472864151,-1.432926893234253,3.9000000953674316,-15.899999618530273,6.449999809265137,40.79213333129883,0,
 398127,-0.05712890625,-0.95166015625,-0.211669921875,4.786585330963135,-0.7012194991111755,-1.1585365533828735,4.349999904632568,-15.899999618530273,4.650000095367432,40.9359016418457,0,
 398137,-0.06005859375,-0.94970703125,-0.216064453125,5.060975551605225,-0.6097561120986938,-0.9451219439506531,2.0999999046325684,-15.149999618530273,6.150000095367432,40.9359016418457,0,
 398158,-0.05419921875,-0.950927734375,-0.2099609375,6.95121955871582,-0.792682945728302,-1.097561001777649,4.199999809265137,-16.200000762939453,7.5,41.0317497253418,0,
 398168,-0.057861328125,-0.970458984375,-0.20361328125,6.95121955871582,-0.7621951103210449,-0.8841463327407837,4.5,-13.050000190734863,7.050000190734863,41.0317497253418,0,
 398178,-0.05419921875,-0.971923828125,-0.20263671875,6.981707572937012,-0.8536585569381714,-0.4268292784690857,2.8499999046325684,-14.850000381469727,6.449999809265137,41.0317497253418,0,
 398188,-0.05322265625,-0.974609375,-0.20166015625,5.396341800689697,-0.4573170840740204,-0.030487805604934692,2.8499999046325684,-14.850000381469727,6.449999809265137,41.07966995239258,0,
 398198,-0.05908203125,-0.982177734375,-0.20263671875,4.72560977935791,-0.3048780560493469,0.6097561120986938,4.5,-15.75,6.75,41.0317497253418,0,
 398208,-0.060791015625,-0.965087890625,-0.19287109375,2.103658676147461,0.060975611209869385,1.3719512224197388,5.25,-15.75,6.300000190734863,41.0317497253418,0,
 398218,-0.06298828125,-0.9609375,-0.196533203125,1.8902438879013062,0.15243902802467346,1.402438998222351,3.299999952316284,-15.0,6.75,40.9359016418457,0,
 398228,-0.064208984375,-0.963134765625,-0.205322265625,1.5243902206420898,0.12195122241973877,1.585365891456604,3.299999952316284,-15.0,6.75,41.0317497253418,0,
 398238,-0.0546875,-0.96142578125,-0.201416015625,1.3719512224197388,0.4268292784690857,1.0365853309631348,4.650000095367432,-14.399999618530273,7.199999809265137,40.9359016418457,0,
 398248,-0.05712890625,-0.9619140625,-0.20361328125,1.1585365533828735,0.5487805008888245,1.0670732259750366,4.5,-15.0,6.75,40.9359016418457,0,
 398258,-0.0634765625,-0.95654296875,-0.198974609375,1.1280487775802612,-0.060975611209869385,1.2195122241973877,3.5999999046325684,-15.600000381469727,6.150000095367432,40.79213333129883,0,
 398268,-0.062744140625,-0.96142578125,-0.196533203125,1.402438998222351,0.24390244483947754,1.0060975551605225,3.5999999046325684,-15.600000381469727,6.150000095367432,40.79213333129883,0,
 398278,-0.063720703125,-0.97021484375,-0.2021484375,0.8231707215309143,0.15243902802467346,0.7012194991111755,3.75,-14.25,7.5,41.07966995239258,0,
 398288,-0.063232421875,-0.96240234375,-0.1904296875,0.8231707215309143,0.5182926654815674,0.4268292784690857,4.5,-16.200000762939453,6.300000190734863,41.127593994140625,0,
 398298,-0.06201171875,-0.96484375,-0.20947265625,0.4878048896789551,0.4268292784690857,0.21341463923454285,4.349999904632568,-13.949999809265137,8.399999618530273,41.0317497253418,0,
 398308,-0.068115234375,-0.96630859375,-0.18994140625,0.0,-0.060975611209869385,-0.3048780560493469,5.400000095367432,-11.550000190734863,5.400000095367432,40.74421310424805,0,
 398318,-0.06494140625,-0.978759765625,-0.193359375,-0.8231707215309143,0.3658536672592163,-0.6402438879013062,3.1500000953674316,-15.149999618530273,6.900000095367432,40.9359016418457,0,
 398328,-0.07177734375,-0.96875,-0.19482421875,-1.1585365533828735,0.18292683362960815,-0.396341472864151,4.650000095367432,-14.850000381469727,6.449999809265137,41.0317497253418,0,
 398338,-0.057373046875,-0.974365234375,-0.208740234375,-1.6158536672592163,0.5792682766914368,-0.9451219439506531,3.75,-15.300000190734863,7.5,41.07966995239258,0,
 398348,-0.06201171875,-0.958740234375,-0.19775390625,-2.103658676147461,0.24390244483947754,-1.0670732259750366,4.5,-15.0,6.300000190734863,41.127593994140625,0,
 398358,-0.061279296875,-0.96728515625,-0.195556640625,-2.4695122241973877,0.4573170840740204,-1.0060975551605225,4.5,-15.0,6.300000190734863,40.74421310424805,0,
 398368,-0.05712890625,-0.966064453125,-0.198974609375,-3.1097562313079834,0.5487805008888245,-1.5243902206420898,5.099999904632568,-14.399999618530273,8.699999809265137,40.9359016418457,0,
 398378,-0.061279296875,-0.963134765625,-0.1982421875,-3.47560977935791,0.4878048896789551,-0.792682945728302,4.650000095367432,-14.399999618530273,6.449999809265137,41.0317497253418,0,
 398388,-0.06298828125,-0.959228515625,-0.204833984375,-3.353658676147461,0.6402438879013062,-1.1280487775802612,5.099999904632568,-15.149999618530273,6.449999809265137,40.79213333129883,0,
 398398,-0.070068359375,-0.952392578125,-0.208251953125,-3.262195110321045,0.6707317233085632,-1.0365853309631348,5.099999904632568,-15.149999618530273,6.449999809265137,41.127593994140625,0,
 398408,-0.056884765625,-0.95068359375,-0.203125,-3.6890244483947754,0.9756097793579102,-1.1585365533828735,4.199999809265137,-13.800000190734863,4.800000190734863,40.9359016418457,0,
 398418,-0.056396484375,-0.955810546875,-0.21435546875,-2.8353660106658936,0.6707317233085632,-1.2804877758026123,4.199999809265137,-16.5,7.5,40.9359016418457,0,
 398428,-0.059814453125,-0.950927734375,-0.201416015625,-2.5,0.7317073345184326,-1.1585365533828735,3.9000000953674316,-15.899999618530273,6.900000095367432,41.07966995239258,0,
 398438,-0.059814453125,-0.955078125,-0.204833984375,-2.4390244483947754,0.7621951103210449,-0.9756097793579102,3.9000000953674316,-15.899999618530273,6.900000095367432,40.9359016418457,0,
 398448,-0.052734375,-0.949951171875,-0.212646484375,-2.5609755516052246,0.3353658616542816,-0.7621951103210449,5.25,-16.5,6.300000190734863,41.0317497253418,0,
 398458,-0.054443359375,-0.953125,-0.209228515625,-1.7073171138763428,0.4878048896789551,-0.6402438879013062,3.299999952316284,-15.0,6.75,40.552520751953125,0,
 398468,-0.052978515625,-0.95166015625,-0.210205078125,-1.1890244483947754,0.4878048896789551,-0.396341472864151,5.25,-15.75,6.300000190734863,41.0317497253418,0,
 398478,-0.05029296875,-0.96240234375,-0.20654296875,-0.7621951103210449,0.15243902802467346,-0.3048780560493469,5.25,-15.75,6.300000190734863,40.88798141479492,0,
 398488,-0.058837890625,-0.957275390625,-0.21044921875,-1.0060975551605225,0.3353658616542816,0.12195122241973877,3.5999999046325684,-14.399999618530273,7.650000095367432,41.0317497253418,0,
 398498,-0.05615234375,-0.959228515625,-0.20654296875,-0.6097561120986938,0.3353658616542816,0.3658536672592163,5.099999904632568,-15.149999618530273,7.650000095367432,41.127593994140625,0,
 398508,-0.05908203125,-0.957763671875,-0.21044921875,-0.6402438879013062,0.4573170840740204,0.060975611209869385,4.199999809265137,-15.75,7.5,40.74421310424805,0,
 398518,-0.060302734375,-0.960205078125,-0.204345703125,-0.3658536672592163,0.18292683362960815,0.5792682766914368,4.199999809265137,-15.75,7.5,40.9359016418457,0,
 398528,-0.052978515625,-0.963134765625,-0.204345703125,-0.6402438879013062,0.5487805008888245,0.24390244483947754,6.599999904632568,-14.399999618530273,4.949999809265137,41.127593994140625,0,
 398538,-0.057373046875,-0.955810546875,-0.205078125,-1.2195122241973877,0.5792682766914368,0.27439025044441223,4.349999904632568,-16.799999237060547,5.699999809265137,40.9359016418457,0,
 398548,-0.05517578125,-0.956787109375,-0.204833984375,-0.9146341681480408,0.27439025044441223,0.792682945728302,4.349999904632568,-13.649999618530273,7.949999809265137,40.88798141479492,0,
 398558,-0.05615234375,-0.960205078125,-0.20654296875,-0.6707317233085632,0.6097561120986938,0.7621951103210449,3.9000000953674316,-14.399999618530273,7.199999809265137,40.9359016418457,0,
 398568,-0.056396484375,-0.9609375,-0.204833984375,-0.8536585569381714,0.5182926654815674,1.0365853309631348,3.9000000953674316,-14.399999618530273,7.199999809265137,41.127593994140625,0,
 398578,-0.062744140625,-0.96337890625,-0.20751953125,-1.3414634466171265,0.792682945728302,1.432926893234253,3.9000000953674316,-15.600000381469727,5.699999809265137,40.9359016418457,0,
 398588,-0.057861328125,-0.9619140625,-0.20361328125,-1.097561001777649,0.7012194991111755,1.4634146690368652,5.400000095367432,-13.949999809265137,6.150000095367432,41.22344207763672,0,
 398598,-0.056640625,-0.96875,-0.204345703125,-1.737804889678955,0.4268292784690857,1.3719512224197388,2.4000000953674316,-14.399999618530273,6.150000095367432,41.07966995239258,0,
 398608,-0.061279296875,-0.96728515625,-0.203857421875,-2.682926893234253,0.8231707215309143,1.3414634466171265,2.4000000953674316,-14.399999618530273,6.150000095367432,40.9359016418457,0,
 398618,-0.059326171875,-0.962646484375,-0.203125,-3.445122003555298,0.8536585569381714,1.2195122241973877,5.25,-15.300000190734863,4.800000190734863,41.0317497253418,0,
 398628,-0.05810546875,-0.9580078125,-0.205810546875,-3.5060975551605225,1.0670732259750366,0.792682945728302,5.25,-15.0,7.5,40.9359016418457,0,
 398638,-0.05908203125,-0.963623046875,-0.210693359375,-3.841463565826416,0.7317073345184326,0.5182926654815674,3.9000000953674316,-16.350000381469727,8.399999618530273,40.79213333129883,0,
 398648,-0.06005859375,-0.952392578125,-0.212158203125,-3.5975611209869385,1.0060975551605225,0.5487805008888245,3.9000000953674316,-16.350000381469727,8.399999618530273,41.07966995239258,0,
 398658,-0.0546875,-0.962646484375,-0.2109375,-3.3841464519500732,0.7317073345184326,0.060975611209869385,4.949999809265137,-15.0,7.5,41.0317497253418,0,
 398668,-0.060791015625,-0.957763671875,-0.208740234375,-3.170731782913208,0.7621951103210449,0.3353658616542816,5.25,-14.550000190734863,6.75,41.127593994140625,0,
 398678,-0.059814453125,-0.96728515625,-0.20556640625,-3.932926893234253,0.9146341681480408,0.5487805008888245,3.5999999046325684,-15.600000381469727,6.900000095367432,40.9359016418457,0,
 398688,-0.06005859375,-0.973388671875,-0.207763671875,-5.487804889678955,1.25,-0.060975611209869385,3.5999999046325684,-15.600000381469727,6.900000095367432,41.07966995239258,0,
 398698,-0.060791015625,-0.966552734375,-0.207763671875,-6.25,1.3109756708145142,0.4268292784690857,3.9000000953674316,-15.149999618530273,6.900000095367432,40.9359016418457,0,
 398708,-0.051513671875,-0.9677734375,-0.20556640625,-6.646341800689697,1.25,-0.12195122241973877,5.099999904632568,-13.949999809265137,7.650000095367432,41.0317497253418,0,
 398718,-0.06103515625,-0.96533203125,-0.210205078125,-7.408536911010742,1.3719512224197388,-0.24390244483947754,5.699999809265137,-13.050000190734863,3.75,41.07966995239258,0,
 398728,-0.062255859375,-0.955322265625,-0.208251953125,-7.469512462615967,1.3414634466171265,-0.9146341681480408,5.099999904632568,-15.600000381469727,7.949999809265137,41.127593994140625,0,
 398738,-0.058837890625,-0.949951171875,-0.221435546875,-6.737804889678955,1.3719512224197388,-1.1280487775802612,4.949999809265137,-15.75,6.0,40.88798141479492,0,
 398748,-0.057373046875,-0.94921875,-0.227783203125,-5.731707572937012,1.1280487775802612,-1.3414634466171265,4.5,-15.75,6.75,40.88798141479492,0,
 398758,-0.0498046875,-0.932373046875,-0.228515625,-3.7804877758026123,0.7012194991111755,-1.1890244483947754,4.199999809265137,-16.950000762939453,6.300000190734863,41.0317497253418,0,
 398768,-0.05029296875,-0.93310546875,-0.239501953125,-1.3719512224197388,0.4268292784690857,-1.0670732259750366,4.349999904632568,-15.600000381469727,6.150000095367432,41.22344207763672,0,
 398778,-0.056884765625,-0.94677734375,-0.23095703125,0.3353658616542816,-0.09146341681480408,-1.2804877758026123,4.349999904632568,-15.600000381469727,6.150000095367432,41.0317497253418,0,
 398788,-0.054931640625,-0.952392578125,-0.231201171875,1.432926893234253,-0.030487805604934692,-0.7317073345184326,4.5,-15.0,7.050000190734863,41.07966995239258,0,
 398798,-0.056640625,-0.955078125,-0.22021484375,2.0426828861236572,-0.030487805604934692,-0.3048780560493469,5.699999809265137,-15.75,6.300000190734863,40.74421310424805,0,
 398808,-0.05859375,-0.959716796875,-0.2236328125,1.9817073345184326,-0.15243902802467346,0.3048780560493469,3.299999952316284,-14.550000190734863,8.550000190734863,40.79213333129883,0,
 398818,-0.057861328125,-0.956787109375,-0.216796875,1.8292683362960815,0.0,-0.12195122241973877,3.299999952316284,-14.550000190734863,8.550000190734863,40.88798141479492,0,
 398828,-0.055419921875,-0.9560546875,-0.2177734375,1.6768293380737305,0.030487805604934692,-0.24390244483947754,3.75,-16.5,6.0,41.0317497253418,0,
 398838,-0.057861328125,-0.95654296875,-0.21142578125,1.737804889678955,-0.27439025044441223,-0.21341463923454285,3.5999999046325684,-16.350000381469727,7.650000095367432,40.9359016418457,0,
 398848,-0.05517578125,-0.966064453125,-0.211669921875,1.1280487775802612,-0.18292683362960815,-0.8536585569381714,2.8499999046325684,-16.350000381469727,7.650000095367432,41.0317497253418,0,
 398858,-0.05126953125,-0.959716796875,-0.2099609375,0.3658536672592163,0.0,-0.7012194991111755,2.8499999046325684,-16.350000381469727,7.650000095367432,41.0317497253418,0,
 398868,-0.057861328125,-0.966796875,-0.210205078125,-0.8841463327407837,-0.15243902802467346,-0.8536585569381714,4.949999809265137,-13.800000190734863,4.800000190734863,41.0317497253418,0,
 398878,-0.05810546875,-0.964111328125,-0.210693359375,-1.8292683362960815,0.09146341681480408,-1.3719512224197388,4.349999904632568,-15.149999618530273,6.900000095367432,41.127593994140625,0,
 398888,-0.055908203125,-0.952880859375,-0.21875,-2.408536672592163,0.27439025044441223,-1.4634146690368652,4.199999809265137,-16.200000762939453,5.550000190734863,41.07966995239258,0,
 398898,-0.032958984375,-0.950927734375,-0.220458984375,-3.079268455505371,0.15243902802467346,-1.3109756708145142,4.199999809265137,-16.200000762939453,5.550000190734863,40.74421310424805,0,
 398918,-0.063720703125,-1.0068359375,-0.198974609375,-6.219512462615967,-1.432926893234253,2.1341464519500732,2.8499999046325684,-14.399999618530273,8.399999618530273,41.0317497253418,0,
 398928,-0.059326171875,-0.974609375,-0.2060546875,-10.670731544494629,0.9451219439506531,3.3841464519500732,5.099999904632568,-18.0,5.400000095367432,41.0317497253418,0,
 398938,-0.056640625,-0.987548828125,-0.219482421875,-13.018293380737305,1.5548781156539917,5.3353657722473145,4.949999809265137,-17.399999618530273,6.75,41.07966995239258,0,
 398948,-0.047119140625,-0.98486328125,-0.22314453125,-14.359756469726562,1.3109756708145142,6.920732021331787,4.949999809265137,-17.399999618530273,6.75,40.60044479370117,0,
 398959,-0.067626953125,-0.961181640625,-0.225341796875,-16.4939022064209,1.0060975551605225,7.134146690368652,5.25,-16.950000762939453,6.0,41.0317497253418,0,
 398979,-0.056884765625,-0.93310546875,-0.248291015625,-13.079268455505371,0.8536585569381714,7.012195110321045,4.349999904632568,-15.600000381469727,6.150000095367432,41.0317497253418,0,
 398989,-0.060546875,-0.937744140625,-0.247314453125,-10.518293380737305,0.4573170840740204,6.7682929039001465,4.349999904632568,-15.600000381469727,6.150000095367432,41.0317497253418,0,
 398999,-0.064697265625,-0.940185546875,-0.24560546875,-8.59756088256836,0.12195122241973877,6.432927131652832,4.650000095367432,-15.600000381469727,7.650000095367432,40.79213333129883,0,
 399009,-0.07177734375,-0.9521484375,-0.241455078125,-6.95121955871582,-0.060975611209869385,5.060975551605225,5.25,-16.950000762939453,6.300000190734863,40.9359016418457,0,
 399019,-0.072509765625,-0.956787109375,-0.228515625,-7.347561359405518,0.6707317233085632,3.75,5.099999904632568,-15.899999618530273,7.199999809265137,40.9359016418457,0,
 399029,-0.079345703125,-0.95751953125,-0.228271484375,-7.469512462615967,1.0365853309631348,1.8292683362960815,5.099999904632568,-15.899999618530273,7.199999809265137,41.07966995239258,0,
 399039,-0.1064453125,-0.951904296875,-0.237060546875,-8.87195110321045,1.6463414430618286,-0.792682945728302,3.1500000953674316,-15.899999618530273,7.949999809265137,41.0317497253418,0,
 399049,-0.10498046875,-0.953857421875,-0.22265625,-9.695121765136719,1.6158536672592163,-3.262195110321045,5.400000095367432,-17.100000381469727,7.199999809265137,40.79213333129883,0,
 399059,-0.070068359375,-0.927001953125,-0.256591796875,-10.670731544494629,3.079268455505371,-4.5731706619262695,3.299999952316284,-15.75,6.75,40.79213333129883,0,
 399079,-0.052978515625,-0.93310546875,-0.263671875,-6.8597564697265625,1.7073171138763428,-4.115853786468506,5.099999904632568,-15.600000381469727,7.650000095367432,40.79213333129883,0,
 399089,-0.052978515625,-0.934814453125,-0.26806640625,-4.481707572937012,1.3414634466171265,-3.5975611209869385,3.5999999046325684,-16.799999237060547,6.900000095367432,41.0317497253418,0,
 399099,-0.050048828125,-0.927734375,-0.27587890625,-2.0426828861236572,1.3109756708145142,-2.195122003555298,4.949999809265137,-16.200000762939453,7.050000190734863,41.415130615234375,0,
 399109,-0.057861328125,-0.937744140625,-0.27197265625,0.7317073345184326,0.7012194991111755,-0.8841463327407837,4.949999809265137,-16.200000762939453,7.050000190734863,40.9359016418457,0,
 399119,-0.059326171875,-0.945556640625,-0.262451171875,2.987804889678955,0.18292683362960815,0.0,3.299999952316284,-15.75,7.800000190734863,40.79213333129883,0,
 399129,-0.06396484375,-0.95361328125,-0.245361328125,5.030488014221191,-0.060975611209869385,0.6402438879013062,4.949999809265137,-16.5,5.25,41.22344207763672,0,
 399139,-0.067626953125,-0.959716796875,-0.24072265625,3.5975611209869385,-0.060975611209869385,0.030487805604934692,4.949999809265137,-16.200000762939453,5.550000190734863,40.6962890625,0,
 399149,-0.06005859375,-0.96337890625,-0.232177734375,2.5,0.24390244483947754,-1.3109756708145142,4.349999904632568,-15.899999618530273,5.400000095367432,41.07966995239258,0,
 399159,-0.06005859375,-0.96533203125,-0.2373046875,2.2865853309631348,0.27439025044441223,-1.585365891456604,4.349999904632568,-16.350000381469727,6.900000095367432,41.07966995239258,0,
 399179,-0.058837890625,-0.951171875,-0.2421875,1.6463414430618286,0.030487805604934692,-2.682926893234253,3.75,-15.300000190734863,6.75,40.9359016418457,0,
 399189,-0.06005859375,-0.942626953125,-0.246337890625,2.7439024448394775,0.0,-2.8353660106658936,3.0,-16.5,7.5,40.88798141479492,0,
 399199,-0.056396484375,-0.946533203125,-0.249755859375,3.1402440071105957,-0.24390244483947754,-3.0182926654815674,3.0,-16.5,7.5,41.0317497253418,0,
 399209,-0.0595703125,-0.947265625,-0.244384765625,3.2926828861236572,-0.15243902802467346,-3.353658676147461,3.9000000953674316,-15.600000381469727,7.650000095367432,41.07966995239258,0,
 399219,-0.052734375,-0.951416015625,-0.2431640625,3.8109757900238037,-0.4268292784690857,-3.5365853309631348,3.5999999046325684,-15.149999618530273,6.150000095367432,40.9359016418457,0,
 399229,-0.054443359375,-0.94873046875,-0.245849609375,3.8109757900238037,-0.12195122241973877,-3.3231709003448486,4.199999809265137,-13.050000190734863,6.0,40.9359016418457,0,
 399239,-0.05419921875,-0.9580078125,-0.24560546875,3.75,-0.24390244483947754,-3.0182926654815674,4.199999809265137,-13.050000190734863,6.0,40.9359016418457,0,
 399249,-0.053955078125,-0.950927734375,-0.235595703125,3.628048896789551,-0.4268292784690857,-1.8292683362960815,4.5,-16.200000762939453,6.0,41.0317497253418,0,
 399259,-0.054443359375,-0.955322265625,-0.239013671875,3.628048896789551,0.18292683362960815,-1.0670732259750366,3.5999999046325684,-15.899999618530273,7.949999809265137,41.0317497253418,0,
 399269,-0.052490234375,-0.9501953125,-0.24853515625,4.5731706619262695,-0.12195122241973877,-0.060975611209869385,3.1500000953674316,-15.149999618530273,7.949999809265137,40.9359016418457,0,
 399279,-0.05322265625,-0.94287109375,-0.247314453125,5.365853786468506,-0.060975611209869385,0.792682945728302,3.1500000953674316,-15.149999618530273,7.949999809265137,41.07966995239258,0,
 399289,-0.05126953125,-0.932373046875,-0.24755859375,7.103658676147461,-0.3048780560493469,1.3109756708145142,5.099999904632568,-15.899999618530273,8.399999618530273,40.9359016418457,0,
 399299,-0.0517578125,-0.938232421875,-0.258544921875,8.780488014221191,-0.396341472864151,2.012195110321045,3.1500000953674316,-15.899999618530273,6.449999809265137,40.9359016418457,0,
 399309,-0.05908203125,-0.952880859375,-0.238037109375,10.70121955871582,-0.8841463327407837,2.0731706619262695,4.199999809265137,-14.550000190734863,6.0,41.07966995239258,0,
 399319,-0.06591796875,-0.972412109375,-0.23583984375,10.762195587158203,-0.7012194991111755,2.408536672592163,4.199999809265137,-14.550000190734863,6.0,40.88798141479492,0,
 399329,-0.0615234375,-0.9755859375,-0.228515625,8.170731544494629,0.792682945728302,3.1097562313079834,4.199999809265137,-15.0,6.75,41.07966995239258,0,
 399339,-0.05517578125,-0.98486328125,-0.195556640625,5.670732021331787,1.5548781156539917,3.7804877758026123,3.0,-17.700000762939453,6.75,40.79213333129883,0,
 399349,-0.06494140625,-0.98583984375,-0.19189453125,3.6890244483947754,1.0365853309631348,3.47560977935791,5.25,-13.350000381469727,7.050000190734863,41.22344207763672,0,
 399359,-0.0595703125,-0.97412109375,-0.215087890625,-0.15243902802467346,1.4634146690368652,3.47560977935791,4.349999904632568,-16.350000381469727,6.900000095367432,40.79213333129883,0,
 399369,-0.053955078125,-0.949462890625,-0.2333984375,-0.6707317233085632,1.6768293380737305,3.4146342277526855,4.349999904632568,-16.350000381469727,6.900000095367432,41.0317497253418,0,
 399379,-0.0576171875,-0.948486328125,-0.23583984375,0.4573170840740204,1.432926893234253,3.47560977935791,4.650000095367432,-14.399999618530273,5.400000095367432,40.9359016418457,0,
 399389,-0.054931640625,-0.936767578125,-0.23974609375,1.3109756708145142,1.25,3.9939024448394775,3.9000000953674316,-15.149999618530273,7.199999809265137,40.88798141479492,0,
 399399,-0.05615234375,-0.935302734375,-0.245361328125,3.4146342277526855,1.1280487775802612,4.390244007110596,4.349999904632568,-15.600000381469727,6.449999809265137,41.0317497253418,0,
 399409,-0.057861328125,-0.952392578125,-0.23095703125,4.634146213531494,1.0060975551605225,4.847560882568359,4.349999904632568,-15.600000381469727,6.449999809265137,40.79213333129883,0,
 399419,-0.0576171875,-0.954833984375,-0.22119140625,5.396341800689697,0.6402438879013062,4.634146213531494,4.5,-15.300000190734863,6.75,40.88798141479492,0,
 399429,-0.063232421875,-0.96630859375,-0.220947265625,5.213414669036865,0.5182926654815674,4.45121955871582,3.5999999046325684,-15.600000381469727,5.699999809265137,41.07966995239258,0,
 399439,-0.063232421875,-0.973388671875,-0.20751953125,4.512195110321045,0.5487805008888245,4.634146213531494,3.1500000953674316,-18.299999237060547,4.650000095367432,40.9359016418457,0,
 399449,-0.068603515625,-0.981689453125,-0.20458984375,2.195122003555298,1.4939024448394775,3.8109757900238037,3.1500000953674316,-18.299999237060547,4.650000095367432,40.9359016418457,0,
 399459,-0.06884765625,-0.964111328125,-0.207763671875,-0.09146341681480408,1.5243902206420898,2.682926893234253,4.650000095367432,-17.100000381469727,7.199999809265137,40.79213333129883,0,
 399469,-0.0693359375,-0.94970703125,-0.197998046875,-0.5792682766914368,1.4634146690368652,2.22560977935791,4.5,-14.550000190734863,6.0,40.9359016418457,0,
 399489,-0.06103515625,-0.939453125,-0.23046875,1.1280487775802612,0.18292683362960815,1.4634146690368652,3.75,-16.950000762939453,8.550000190734863,40.79213333129883,0,
 399499,-0.057373046875,-0.94677734375,-0.235595703125,3.445122003555298,0.09146341681480408,1.6158536672592163,4.199999809265137,-14.550000190734863,7.800000190734863,41.127593994140625,0,
 399509,-0.05810546875,-0.957763671875,-0.2158203125,4.420732021331787,0.27439025044441223,1.7682926654815674,5.099999904632568,-16.350000381469727,8.399999618530273,41.0317497253418,0,
 399519,-0.0634765625,-0.96484375,-0.205810546875,4.45121955871582,0.12195122241973877,1.7987805604934692,3.1500000953674316,-15.149999618530273,7.650000095367432,41.0317497253418,0,
 399529,-0.065673828125,-0.965576171875,-0.2099609375,3.9024391174316406,0.15243902802467346,2.0426828861236572,3.1500000953674316,-15.149999618530273,7.650000095367432,41.07966995239258,0,
 399539,-0.071533203125,-0.97119140625,-0.202880859375,3.353658676147461,-0.060975611209869385,2.0426828861236572,5.699999809265137,-17.399999618530273,4.800000190734863,40.74421310424805,0,
 399549,-0.067626953125,-0.97119140625,-0.20361328125,2.3475611209869385,0.09146341681480408,1.6158536672592163,3.1500000953674316,-16.350000381469727,8.399999618530273,40.79213333129883,0,
 399559,-0.072509765625,-0.974609375,-0.19970703125,0.6402438879013062,0.3658536672592163,1.0060975551605225,4.349999904632568,-14.850000381469727,6.900000095367432,40.88798141479492,0,
 399569,-0.0712890625,-0.96923828125,-0.205810546875,-0.7621951103210449,0.060975611209869385,0.5792682766914368,4.199999809265137,-17.399999618530273,6.75,41.07966995239258,0,
 399579,-0.07080078125,-0.966796875,-0.2080078125,-2.7439024448394775,0.5182926654815674,-0.7012194991111755,4.199999809265137,-17.399999618530273,6.75,40.9359016418457,0,
 399589,-0.068115234375,-0.9638671875,-0.208740234375,-2.987804889678955,0.27439025044441223,-0.9756097793579102,3.1500000953674316,-13.649999618530273,5.400000095367432,41.07966995239258,0,
 399599,-0.064697265625,-0.965087890625,-0.213623046875,-4.2682929039001465,0.5792682766914368,-1.585365891456604,5.099999904632568,-15.149999618530273,7.650000095367432,40.9359016418457,0,
 399609,-0.06494140625,-0.96875,-0.209228515625,-5.792683124542236,0.3353658616542816,-2.1646342277526855,4.5,-16.950000762939453,5.550000190734863,41.07966995239258,0,
 399619,-0.067626953125,-0.964111328125,-0.2099609375,-6.7682929039001465,0.7012194991111755,-2.77439022064209,4.5,-16.950000762939453,5.550000190734863,40.9359016418457,0,
 399629,-0.068115234375,-0.957763671875,-0.208251953125,-7.682927131652832,0.4573170840740204,-2.865853786468506,3.5999999046325684,-15.600000381469727,6.900000095367432,40.88798141479492,0,
 399639,-0.064697265625,-0.965576171875,-0.2197265625,-7.957317352294922,0.27439025044441223,-3.1097562313079834,5.400000095367432,-15.149999618530273,5.400000095367432,41.0317497253418,0,
 399650,-0.068603515625,-0.9619140625,-0.2158203125,-8.445121765136719,0.6402438879013062,-3.262195110321045,3.299999952316284,-14.550000190734863,6.75,41.0317497253418,0,
 399660,-0.0595703125,-0.96875,-0.214111328125,-10.091464042663574,0.7621951103210449,-2.9268293380737305,3.299999952316284,-14.550000190734863,6.75,41.0317497253418,0,
 399670,-0.06884765625,-0.984375,-0.20849609375,-12.22560977935791,1.2195122241973877,-3.6890244483947754,4.949999809265137,-17.399999618530273,6.300000190734863,40.88798141479492,0,
 399690,-0.080322265625,-0.978271484375,-0.207275390625,-18.35365867614746,1.9512195587158203,-4.237804889678955,4.199999809265137,-17.399999618530273,7.800000190734863,40.9359016418457,0,
 399700,-0.050537109375,-0.95068359375,-0.228271484375,-17.774391174316406,1.7987805604934692,-3.8719513416290283,4.199999809265137,-17.399999618530273,7.800000190734863,41.127593994140625,0,
 399710,-0.06396484375,-0.957763671875,-0.2412109375,-17.530488967895508,2.0426828861236572,-3.658536672592163,4.349999904632568,-15.899999618530273,7.199999809265137,40.79213333129883,0,
 399720,-0.058837890625,-0.94677734375,-0.2470703125,-17.5,2.2865853309631348,-3.658536672592163,3.9000000953674316,-14.850000381469727,6.900000095367432,40.88798141479492,0,
 399730,-0.056884765625,-0.939208984375,-0.247802734375,-15.82317066192627,2.4695122241973877,-3.5365853309631348,3.5999999046325684,-16.350000381469727,6.449999809265137,41.0317497253418,0,
 399740,-0.05029296875,-0.922607421875,-0.260986328125,-14.969512939453125,2.7439024448394775,-2.9573171138763428,3.0,-15.300000190734863,6.300000190734863,40.9359016418457,0,
 399750,-0.0439453125,-0.90771484375,-0.279052734375,-12.713415145874023,2.3475611209869385,-2.4390244483947754,3.1500000953674316,-16.350000381469727,7.949999809265137,41.0317497253418,0,
 399760,-0.0419921875,-0.895751953125,-0.28955078125,-9.237805366516113,2.1341464519500732,-1.6768293380737305,4.949999809265137,-16.950000762939453,6.75,40.9359016418457,0,
 399770,0.110107421875,-0.945556640625,-0.374755859375,-3.9939024448394775,1.585365891456604,-0.09146341681480408,3.9000000953674316,-15.600000381469727,7.199999809265137,41.127593994140625,0,
 399780,-0.011962890625,-0.918212890625,-0.272705078125,2.865853786468506,0.3353658616542816,3.4146342277526855,4.5,-16.200000762939453,7.5,40.79213333129883,0,
 399790,-0.05126953125,-0.915283203125,-0.2783203125,3.353658676147461,1.1890244483947754,3.9024391174316406,4.5,-16.200000762939453,7.5,41.07966995239258,0,
 399800,-0.062255859375,-0.944580078125,-0.26025390625,6.493902683258057,-0.4573170840740204,3.628048896789551,3.5999999046325684,-17.549999237060547,7.949999809265137,41.07966995239258,0,
 399810,-0.05126953125,-0.93701171875,-0.254638671875,6.707317352294922,0.8231707215309143,4.207317352294922,3.75,-16.200000762939453,7.800000190734863,41.0317497253418,0,
 399820,-0.05126953125,-0.95703125,-0.239990234375,7.134146690368652,1.0060975551605225,4.786585330963135,3.5999999046325684,-16.799999237060547,8.399999618530273,40.9359016418457,0,
 399830,-0.072265625,-0.953369140625,-0.234619140625,6.6768293380737305,0.9756097793579102,5.091463565826416,3.5999999046325684,-16.799999237060547,8.399999618530273,40.74421310424805,0,
 399840,-0.06982421875,-0.968505859375,-0.237060546875,6.006097793579102,0.9756097793579102,6.25,4.199999809265137,-16.200000762939453,7.050000190734863,40.9359016418457,0,
 399850,-0.05810546875,-0.96142578125,-0.2333984375,4.817073345184326,1.25,5.579268455505371,3.5999999046325684,-17.549999237060547,6.150000095367432,41.0317497253418,0,
 399860,-0.05126953125,-0.95458984375,-0.243896484375,3.3231709003448486,1.5243902206420898,5.70121955871582,2.8499999046325684,-17.100000381469727,6.150000095367432,41.0317497253418,0,
 399870,-0.06640625,-0.94970703125,-0.2412109375,3.2926828861236572,0.9451219439506531,5.121951103210449,2.8499999046325684,-17.100000381469727,6.150000095367432,40.79213333129883,0,
 399880,-0.0625,-0.95458984375,-0.232177734375,3.658536672592163,0.6402438879013062,4.390244007110596,4.349999904632568,-16.799999237060547,7.199999809265137,40.9359016418457,0,
 399890,-0.06640625,-0.9580078125,-0.227783203125,2.591463565826416,0.6402438879013062,3.7195122241973877,2.549999952316284,-17.399999618530273,7.800000190734863,41.0317497253418,0,
 399900,-0.064697265625,-0.94873046875,-0.232421875,1.585365891456604,0.7621951103210449,3.47560977935791,3.299999952316284,-15.75,8.550000190734863,40.9359016418457,0,
 399910,-0.063232421875,-0.9453125,-0.2392578125,1.097561001777649,1.2195122241973877,3.0182926654815674,3.299999952316284,-15.75,8.550000190734863,41.127593994140625,0,
 399920,-0.066650390625,-0.923583984375,-0.245849609375,1.1890244483947754,1.3414634466171265,2.9573171138763428,3.299999952316284,-16.200000762939453,7.5,40.79213333129883,0,
 399930,-0.055908203125,-0.925048828125,-0.2578125,4.1768293380737305,1.0060975551605225,2.682926893234253,5.400000095367432,-16.350000381469727,7.650000095367432,40.9359016418457,0,
 399940,-0.0517578125,-0.91552734375,-0.26416015625,7.0731706619262695,0.3048780560493469,2.5304877758026123,3.1500000953674316,-16.799999237060547,6.449999809265137,41.0317497253418,0,
 399950,-0.05810546875,-0.919921875,-0.27001953125,11.493903160095215,-1.3719512224197388,2.8353660106658936,3.9000000953674316,-17.549999237060547,4.949999809265137,40.9359016418457,0,
 399960,-0.0546875,-0.92626953125,-0.26416015625,15.396342277526855,-1.9512195587158203,2.9268293380737305,5.25,-16.200000762939453,6.0,41.0317497253418,0,
 399970,-0.064208984375,-0.9375,-0.25,18.5060977935791,-2.0426828861236572,3.7804877758026123,5.400000095367432,-15.149999618530273,7.949999809265137,40.9359016418457,0,
 399980,-0.083251953125,-0.945556640625,-0.2353515625,20.091463088989258,-1.7682926654815674,5.060975551605225,2.25,-16.200000762939453,6.300000190734863,40.9359016418457,0,
 399990,-0.0849609375,-0.940673828125,-0.195556640625,21.09756088256836,-1.6463414430618286,6.036585330963135,3.75,-16.200000762939453,6.75,41.0317497253418,0,
 400000,-0.08837890625,-0.97802734375,-0.218505859375,21.64634132385254,-1.2195122241973877,7.77439022064209,3.75,-16.200000762939453,6.75,41.0317497253418,0,
 400010,-0.067138671875,-0.95849609375,-0.205322265625,18.93292808532715,-0.030487805604934692,8.75,4.349999904632568,-14.850000381469727,7.199999809265137,41.127593994140625,0,
 400020,-0.070556640625,-0.932861328125,-0.21728515625,18.04878044128418,-0.030487805604934692,8.536585807800293,5.400000095367432,-15.600000381469727,6.449999809265137,41.0317497253418,0,
 400030,-0.057861328125,-0.908203125,-0.22998046875,24.14634132385254,-1.5243902206420898,8.20121955871582,4.650000095367432,-15.899999618530273,7.199999809265137,41.127593994140625,0,
 400040,-0.0634765625,-0.923828125,-0.22705078125,26.920732498168945,-1.7073171138763428,7.835366249084473,4.650000095367432,-15.899999618530273,7.199999809265137,41.0317497253418,0,
 400050,-0.0703125,-0.939453125,-0.194580078125,27.19512176513672,-2.195122003555298,6.067073345184326,4.5,-11.850000381469727,3.75,41.22344207763672,0,
 400060,-0.087646484375,-0.973876953125,-0.178955078125,24.573171615600586,-1.3109756708145142,4.115853786468506,2.549999952316284,-14.550000190734863,5.550000190734863,41.07966995239258,0,
 400070,-0.0908203125,-0.961181640625,-0.173583984375,22.13414764404297,-1.1890244483947754,1.25,5.099999904632568,-14.850000381469727,6.900000095367432,40.6962890625,0,
 400080,-0.08935546875,-0.955810546875,-0.177978515625,20.88414764404297,-0.396341472864151,-1.0060975551605225,5.099999904632568,-14.850000381469727,6.900000095367432,41.0317497253418,0,
 400090,-0.08642578125,-0.961181640625,-0.17529296875,19.84756088256836,-0.396341472864151,-3.1097562313079834,5.25,-15.0,7.050000190734863,41.07966995239258,0,
 400100,-0.080322265625,-0.956787109375,-0.17333984375,19.45121955871582,-0.9146341681480408,-5.243902683258057,4.949999809265137,-15.0,8.550000190734863,40.9359016418457,0,
 400110,-0.084716796875,-0.97314453125,-0.17041015625,18.871952056884766,-0.9756097793579102,-6.371951580047607,4.949999809265137,-13.350000381469727,6.300000190734863,41.0317497253418,0,
 400120,-0.0849609375,-0.98388671875,-0.15771484375,16.737804412841797,-0.8841463327407837,-7.256097793579102,4.949999809265137,-13.350000381469727,6.300000190734863,40.74421310424805,0,
 400130,-0.075439453125,-0.98583984375,-0.15869140625,15.82317066192627,-1.0670732259750366,-6.310975551605225,5.099999904632568,-15.149999618530273,6.449999809265137,41.0317497253418,0,
 400140,-0.07763671875,-0.985107421875,-0.15673828125,13.780488014221191,-0.9451219439506531,-5.670732021331787,4.650000095367432,-13.199999809265137,5.699999809265137,40.74421310424805,0,
 400150,-0.089599609375,-1.004638671875,-0.14404296875,11.67682933807373,-1.097561001777649,-6.158536911010742,4.5,-12.149999618530273,6.0,41.127593994140625,0,
 400160,-0.09228515625,-1.01904296875,-0.129150390625,7.865853786468506,-0.9451219439506531,-7.439024448394775,4.349999904632568,-14.850000381469727,5.699999809265137,40.9359016418457,0,
 400170,-0.081787109375,-0.987548828125,-0.1455078125,6.097560882568359,-1.0365853309631348,-6.79878044128418,4.349999904632568,-14.850000381469727,5.699999809265137,41.0317497253418,0,
 400180,-0.06982421875,-0.97509765625,-0.156982421875,6.219512462615967,-1.2195122241973877,-6.646341800689697,6.300000190734863,-15.149999618530273,8.699999809265137,40.9359016418457,0,
 400190,-0.069091796875,-0.975830078125,-0.1513671875,6.432927131652832,-1.585365891456604,-6.067073345184326,3.9000000953674316,-13.649999618530273,5.699999809265137,41.0317497253418,0,
 400200,-0.061767578125,-0.980224609375,-0.16015625,6.95121955871582,-1.6158536672592163,-5.670732021331787,4.5,-13.350000381469727,4.800000190734863,40.9359016418457,0,
 400210,-0.05810546875,-0.98388671875,-0.14794921875,6.280488014221191,-1.737804889678955,-4.878048896789551,4.5,-13.350000381469727,4.800000190734863,40.9359016418457,0,
 400220,-0.06298828125,-0.989501953125,-0.14501953125,5.3353657722473145,-2.012195110321045,-3.628048896789551,4.949999809265137,-14.550000190734863,6.300000190734863,40.74421310424805,0,
 400230,-0.061279296875,-0.976806640625,-0.15869140625,4.603658676147461,-2.0426828861236572,-3.2012195587158203,4.650000095367432,-14.850000381469727,5.699999809265137,41.127593994140625,0,
 400240,-0.06103515625,-0.970703125,-0.16455078125,5.0,-2.1646342277526855,-2.5609755516052246,3.9000000953674316,-13.649999618530273,5.699999809265137,40.9359016418457,0,
 400250,-0.064208984375,-0.9619140625,-0.15869140625,5.243902683258057,-2.012195110321045,-2.103658676147461,3.9000000953674316,-13.649999618530273,5.699999809265137,41.0317497253418,0,
 400260,-0.0634765625,-0.969970703125,-0.14990234375,5.762195110321045,-2.195122003555298,-1.402438998222351,5.400000095367432,-14.399999618530273,4.949999809265137,41.07966995239258,0,
 400270,-0.071533203125,-0.975341796875,-0.151611328125,5.945122241973877,-2.4695122241973877,-1.3414634466171265,5.699999809265137,-13.350000381469727,6.300000190734863,40.9359016418457,0,
 400280,-0.068359375,-0.99169921875,-0.13818359375,6.402439117431641,-2.317073106765747,-0.9756097793579102,5.099999904632568,-14.399999618530273,5.400000095367432,41.127593994140625,0,
 400290,-0.07080078125,-0.985107421875,-0.1376953125,4.6646342277526855,-1.8902438879013062,-0.6097561120986938,5.099999904632568,-14.399999618530273,5.400000095367432,40.9359016418457,0,
 400300,-0.066162109375,-0.994873046875,-0.138671875,3.3841464519500732,-1.5548781156539917,-0.060975611209869385,5.099999904632568,-13.199999809265137,6.150000095367432,40.9359016418457,0,
 400310,-0.062744140625,-0.986083984375,-0.135986328125,1.4634146690368652,-1.585365891456604,0.09146341681480408,6.300000190734863,-14.850000381469727,6.449999809265137,41.0317497253418,0,
 400320,-0.0595703125,-0.98486328125,-0.1474609375,0.396341472864151,-1.3719512224197388,-0.27439025044441223,6.449999809265137,-15.300000190734863,6.75,40.88798141479492,0,
 400330,-0.068603515625,-0.979736328125,-0.139892578125,-0.5487805008888245,-0.7317073345184326,-0.060975611209869385,3.9000000953674316,-13.649999618530273,6.449999809265137,41.0317497253418,0,
 400341,-0.0634765625,-0.989990234375,-0.135009765625,-1.1280487775802612,-0.7012194991111755,0.21341463923454285,4.650000095367432,-13.199999809265137,5.400000095367432,41.127593994140625,0,
 400351,-0.067138671875,-0.989501953125,-0.13134765625,-3.47560977935791,-0.6097561120986938,-0.030487805604934692,5.099999904632568,-13.199999809265137,6.150000095367432,41.0317497253418,0,
 400361,-0.064208984375,-0.97998046875,-0.145751953125,-6.219512462615967,-0.030487805604934692,-0.030487805604934692,5.400000095367432,-13.949999809265137,2.4000000953674316,41.07966995239258,0,
 400371,-0.0625,-0.966796875,-0.15625,-7.77439022064209,0.6097561120986938,0.3353658616542816,3.75,-12.600000381469727,6.0,41.0317497253418,0,
 400381,-0.05810546875,-0.9599609375,-0.162109375,-7.347561359405518,0.6402438879013062,0.6402438879013062,3.75,-12.600000381469727,6.0,41.22344207763672,0,
 400391,-0.062255859375,-0.964599609375,-0.15966796875,-6.128048896789551,0.6707317233085632,1.097561001777649,6.599999904632568,-13.949999809265137,5.400000095367432,41.0317497253418,0,
 400401,-0.06298828125,-0.961181640625,-0.15625,-5.54878044128418,0.7012194991111755,1.6768293380737305,5.699999809265137,-13.050000190734863,6.300000190734863,41.0317497253418,0,
 400411,-0.05615234375,-0.962890625,-0.16650390625,-4.1768293380737305,0.6707317233085632,2.0731706619262695,5.849999904632568,-12.449999809265137,7.199999809265137,41.127593994140625,0,
 400421,-0.068603515625,-0.9755859375,-0.155029296875,-3.3841464519500732,0.4573170840740204,2.103658676147461,5.849999904632568,-12.449999809265137,7.199999809265137,40.79213333129883,0,
 400431,-0.066650390625,-0.98974609375,-0.146484375,-4.45121955871582,0.4878048896789551,2.2560975551605225,4.5,-14.550000190734863,6.0,40.9359016418457,0,
 400441,-0.07275390625,-0.99462890625,-0.14111328125,-6.920732021331787,1.3719512224197388,1.8597561120986938,5.699999809265137,-15.300000190734863,7.050000190734863,40.9359016418457,0,
 400451,-0.068115234375,-0.980712890625,-0.140869140625,-9.603658676147461,1.920731782913208,1.0060975551605225,3.75,-11.850000381469727,6.300000190734863,40.88798141479492,0,
 400461,-0.068359375,-0.96484375,-0.145751953125,-11.890244483947754,2.2560975551605225,0.396341472864151,3.75,-11.850000381469727,6.300000190734863,41.127593994140625,0,
 400471,-0.063232421875,-0.95556640625,-0.17041015625,-12.92682933807373,2.5304877758026123,-0.396341472864151,5.099999904632568,-13.649999618530273,4.949999809265137,41.07966995239258,0,
 400481,-0.052734375,-0.9384765625,-0.17138671875,-12.469512939453125,2.5304877758026123,-0.9756097793579102,4.5,-13.350000381469727,6.300000190734863,40.88798141479492,0,
 400491,-0.05419921875,-0.927001953125,-0.180908203125,-7.042683124542236,1.737804889678955,-0.5792682766914368,4.650000095367432,-14.850000381469727,5.400000095367432,40.9359016418457,0,
 400501,-0.05322265625,-0.921142578125,-0.18359375,-3.445122003555298,1.2195122241973877,-0.24390244483947754,4.650000095367432,-14.850000381469727,5.400000095367432,41.127593994140625,0,
 400511,-0.0537109375,-0.92333984375,-0.20068359375,0.9756097793579102,0.6402438879013062,0.4573170840740204,5.25,-15.0,5.550000190734863,40.79213333129883,0,
 400521,-0.06005859375,-0.94140625,-0.19921875,3.9939024448394775,0.3658536672592163,0.3353658616542816,5.25,-15.0,6.300000190734863,41.0317497253418,0,
 400531,-0.06005859375,-0.963623046875,-0.16943359375,4.146341323852539,0.27439025044441223,0.4268292784690857,5.699999809265137,-14.25,6.75,40.9359016418457,0,
 400541,-0.0625,-0.976806640625,-0.16552734375,3.658536672592163,0.5182926654815674,0.7317073345184326,4.5,-14.25,6.75,40.79213333129883,0,
 400551,-0.068603515625,-0.974365234375,-0.16259765625,2.5,0.8536585569381714,-0.060975611209869385,4.5,-14.25,6.75,41.07966995239258,0,
 400561,-0.07373046875,-0.979248046875,-0.150390625,1.0365853309631348,1.1280487775802612,-0.24390244483947754,3.9000000953674316,-12.449999809265137,3.450000047683716,40.74421310424805,0,
 400571,-0.070068359375,-0.983642578125,-0.14111328125,-1.9512195587158203,1.6158536672592163,-1.0365853309631348,4.650000095367432,-13.949999809265137,5.400000095367432,41.127593994140625,0,
 400581,-0.064453125,-0.978271484375,-0.14208984375,-3.841463565826416,1.737804889678955,-0.9451219439506531,3.9000000953674316,-15.600000381469727,5.400000095367432,41.31928634643555,0,
 400591,-0.060546875,-0.968017578125,-0.15185546875,-4.1768293380737305,1.6768293380737305,-1.3414634466171265,3.9000000953674316,-15.600000381469727,5.400000095367432,40.9359016418457,0,
 400601,-0.0595703125,-0.953857421875,-0.160400390625,-3.567073345184326,1.4634146690368652,-0.5792682766914368,5.699999809265137,-15.0,6.75,40.9359016418457,0,
 400611,-0.05615234375,-0.949951171875,-0.172607421875,-2.3475611209869385,1.25,0.18292683362960815,5.099999904632568,-14.399999618530273,5.699999809265137,40.88798141479492,0,
 400621,-0.056640625,-0.9521484375,-0.1787109375,-1.2804877758026123,1.2804877758026123,0.8536585569381714,4.349999904632568,-13.199999809265137,5.400000095367432,41.0317497253418,0,
 400631,-0.0556640625,-0.958984375,-0.17822265625,-0.12195122241973877,0.9756097793579102,1.1585365533828735,4.349999904632568,-13.199999809265137,5.400000095367432,41.0317497253418,0,
 400641,-0.060302734375,-0.95849609375,-0.174072265625,0.3353658616542816,0.9451219439506531,1.3109756708145142,2.549999952316284,-16.5,5.25,41.0317497253418,0,
 400651,-0.0625,-0.964111328125,-0.162353515625,0.8231707215309143,0.9146341681480408,1.5548781156539917,4.199999809265137,-13.800000190734863,5.25,40.88798141479492,0,
 400661,-0.064453125,-0.96484375,-0.165283203125,1.402438998222351,0.9451219439506531,1.4634146690368652,2.8499999046325684,-12.0,6.449999809265137,40.88798141479492,0,
 400671,-0.0712890625,-0.968994140625,-0.158935546875,1.5243902206420898,0.6707317233085632,1.3109756708145142,2.8499999046325684,-12.0,6.449999809265137,41.0317497253418,0,
 400681,-0.0615234375,-0.968505859375,-0.165771484375,1.585365891456604,0.5792682766914368,0.9451219439506531,4.349999904632568,-14.399999618530273,4.949999809265137,41.0317497253418,0,
 400691,-0.068115234375,-0.97265625,-0.15576171875,1.8902438879013062,0.7012194991111755,0.27439025044441223,3.9000000953674316,-13.199999809265137,6.150000095367432,40.9359016418457,0,
 400701,-0.065185546875,-0.968017578125,-0.147216796875,1.0060975551605225,0.15243902802467346,-0.8841463327407837,4.349999904632568,-14.399999618530273,6.150000095367432,41.0317497253418,0,
 400711,-0.063720703125,-0.959228515625,-0.156494140625,0.4878048896789551,-0.030487805604934692,-1.8597561120986938,4.349999904632568,-14.399999618530273,6.150000095367432,40.74421310424805,0,
 400721,-0.067138671875,-0.961669921875,-0.164794921875,0.5792682766914368,-0.24390244483947754,-2.6219513416290283,4.949999809265137,-14.25,5.25,40.88798141479492,0,
 400731,-0.060302734375,-0.96142578125,-0.162841796875,0.5792682766914368,-0.18292683362960815,-3.353658676147461,5.25,-14.550000190734863,6.0,40.79213333129883,0,
 400741,-0.060791015625,-0.97509765625,-0.161865234375,0.6097561120986938,-0.6097561120986938,-3.7195122241973877,5.099999904632568,-13.949999809265137,7.199999809265137,40.9359016418457,0,
 400751,-0.060302734375,-0.97705078125,-0.15576171875,0.3048780560493469,-0.3048780560493469,-3.7804877758026123,3.75,-14.550000190734863,6.75,40.60044479370117,0,
 400761,-0.05908203125,-0.976318359375,-0.16015625,-1.3414634466171265,0.12195122241973877,-3.5975611209869385,3.75,-14.550000190734863,6.75,40.79213333129883,0,
 400771,-0.0673828125,-0.96533203125,-0.1689453125,-2.8353660106658936,0.18292683362960815,-3.3841464519500732,5.849999904632568,-14.850000381469727,3.1500000953674316,41.0317497253418,0,
 400781,-0.12255859375,-0.946533203125,-0.146728515625,-2.103658676147461,0.060975611209869385,-3.567073345184326,3.9000000953674316,-14.850000381469727,6.449999809265137,41.127593994140625,0,
 400791,-0.0732421875,-1.021728515625,-0.166015625,1.2804877758026123,-2.0426828861236572,-3.170731782913208,2.8499999046325684,-14.850000381469727,6.150000095367432,41.22344207763672,0,
 400801,-0.053955078125,-0.963623046875,-0.154541015625,-3.9634146690368652,1.25,-3.5365853309631348,2.8499999046325684,-14.850000381469727,6.150000095367432,41.127593994140625,0,
 400811,-0.055419921875,-0.964599609375,-0.1748046875,-2.4695122241973877,0.5182926654815674,-3.170731782913208,5.699999809265137,-13.350000381469727,6.300000190734863,40.9359016418457,0,
 400821,-0.05908203125,-0.9658203125,-0.178466796875,-2.1341464519500732,0.27439025044441223,-3.1097562313079834,5.099999904632568,-13.649999618530273,6.449999809265137,40.79213333129883,0,
 400831,-0.049072265625,-0.96875,-0.167236328125,-1.4634146690368652,0.4878048896789551,-2.8353660106658936,4.949999809265137,-14.550000190734863,7.050000190734863,41.0317497253418,0,
 400841,-0.055419921875,-0.986572265625,-0.15576171875,-1.5548781156539917,0.060975611209869385,-2.2865853309631348,4.949999809265137,-14.550000190734863,7.050000190734863,41.07966995239258,0,
 400851,-0.058349609375,-1.00244140625,-0.156982421875,-3.8719513416290283,0.7621951103210449,-2.103658676147461,2.25,-13.350000381469727,7.5,41.0317497253418,0,
 400861,-0.058349609375,-0.991455078125,-0.154296875,-6.737804889678955,1.432926893234253,-1.25,3.9000000953674316,-13.949999809265137,6.150000095367432,40.79213333129883,0,
 400871,-0.05517578125,-0.989013671875,-0.152587890625,-8.963415145874023,2.0731706619262695,-0.7317073345184326,5.699999809265137,-13.350000381469727,3.0,40.79213333129883,0,
 400881,-0.052978515625,-0.97607421875,-0.157470703125,-11.829268455505371,2.378048896789551,0.24390244483947754,5.699999809265137,-13.350000381469727,3.0,41.0317497253418,0,
 400891,-0.043212890625,-0.967041015625,-0.15771484375,-13.658536911010742,2.8353660106658936,1.4634146690368652,3.75,-14.550000190734863,6.300000190734863,40.79213333129883,0,
