timestamp,accl_x,accl_y,accl_z,gyro_x,gyro_y,gyro_z,mag_x,mag_y,mag_z,temp,emg,
 48383,-0.13818359375,-0.96435546875,-0.111572265625,-0.15243902802467346,0.4573170840740204,0.4878048896789551,-3.9000000953674316,-26.25,30.450000762939453,40.9359016418457,0,
 48393,-0.13720703125,-0.966552734375,-0.11083984375,-0.24390244483947754,0.21341463923454285,-0.060975611209869385,-3.5999999046325684,-27.450000762939453,30.450000762939453,41.127593994140625,0,
 48413,-0.13623046875,-0.964599609375,-0.1123046875,-0.5792682766914368,0.4573170840740204,0.4573170840740204,-5.849999904632568,-27.0,30.149999618530273,40.88798141479492,0,
 48423,-0.13525390625,-0.96142578125,-0.116455078125,-0.27439025044441223,0.6707317233085632,0.4268292784690857,-5.849999904632568,-27.0,30.149999618530273,40.88798141479492,0,
 48433,-0.136474609375,-0.96630859375,-0.119384765625,-0.6402438879013062,0.3353658616542816,0.3658536672592163,-4.349999904632568,-27.450000762939453,28.950000762939453,41.07966995239258,0,
 48443,-0.143310546875,-0.96826171875,-0.106689453125,-0.3353658616542816,0.3658536672592163,0.5487805008888245,-6.300000190734863,-26.700000762939453,30.149999618530273,40.9359016418457,0,
 48453,-0.13671875,-0.965087890625,-0.11328125,0.0,0.5182926654815674,-0.12195122241973877,-3.299999952316284,-27.299999237060547,30.75,41.127593994140625,0,
 48463,-0.137939453125,-0.959716796875,-0.114013671875,-0.3353658616542816,0.3658536672592163,0.396341472864151,-3.299999952316284,-27.299999237060547,30.75,40.9359016418457,0,
 48473,-0.138671875,-0.966064453125,-0.1123046875,-0.6707317233085632,0.396341472864151,0.3658536672592163,-3.299999952316284,-27.299999237060547,30.75,41.07966995239258,0,
 48483,-0.134033203125,-0.9658203125,-0.114013671875,-0.5792682766914368,0.09146341681480408,-0.060975611209869385,-3.75,-27.299999237060547,29.399999618530273,41.0317497253418,0,
 48493,-0.13525390625,-0.96630859375,-0.114501953125,-0.4878048896789551,0.5792682766914368,0.4878048896789551,-5.099999904632568,-27.450000762939453,30.450000762939453,41.0317497253418,0,
 48503,-0.1416015625,-0.963134765625,-0.11474609375,-0.3353658616542816,0.5182926654815674,-0.09146341681480408,-5.099999904632568,-27.450000762939453,30.450000762939453,41.0317497253418,0,
 48513,-0.143310546875,-0.9599609375,-0.111328125,-0.5792682766914368,0.27439025044441223,0.27439025044441223,-5.099999904632568,-27.450000762939453,30.450000762939453,40.88798141479492,0,
 48523,-0.137939453125,-0.966552734375,-0.1142578125,-0.4878048896789551,0.15243902802467346,0.18292683362960815,-5.099999904632568,-28.5,27.75,41.07966995239258,0,
 48533,-0.140625,-0.965087890625,-0.112060546875,-0.4268292784690857,0.4878048896789551,0.5182926654815674,-5.25,-26.100000381469727,30.0,40.88798141479492,0,
 48543,-0.1396484375,-0.964111328125,-0.115234375,-0.3353658616542816,0.5487805008888245,0.09146341681480408,-5.25,-26.100000381469727,30.0,41.0317497253418,0,
 48553,-0.14306640625,-0.968994140625,-0.1103515625,-0.396341472864151,0.5792682766914368,0.4573170840740204,-5.25,-26.100000381469727,30.0,41.0317497253418,0,
 48563,-0.138427734375,-0.9677734375,-0.10791015625,-0.5487805008888245,0.4268292784690857,0.4268292784690857,-6.0,-27.299999237060547,30.0,41.0317497253418,0,
 48573,-0.136962890625,-0.964599609375,-0.109619140625,-0.12195122241973877,0.6707317233085632,0.3048780560493469,-5.400000095367432,-25.5,30.899999618530273,41.0317497253418,0,
 48583,-0.1337890625,-0.9677734375,-0.108642578125,-0.3658536672592163,0.4878048896789551,0.030487805604934692,-5.400000095367432,-25.5,30.899999618530273,41.127593994140625,0,
 48593,-0.14111328125,-0.967041015625,-0.11376953125,-0.27439025044441223,0.3353658616542816,0.27439025044441223,-5.400000095367432,-25.5,30.899999618530273,41.07966995239258,0,
 48603,-0.138916015625,-0.967041015625,-0.113037109375,-0.18292683362960815,0.6097561120986938,0.3353658616542816,-5.25,-26.100000381469727,30.0,40.9359016418457,0,
 48613,-0.1357421875,-0.960205078125,-0.111328125,-0.5487805008888245,0.4573170840740204,0.4268292784690857,-5.099999904632568,-25.799999237060547,26.399999618530273,40.79213333129883,0,
 48623,-0.138916015625,-0.959228515625,-0.11083984375,-0.3658536672592163,0.4268292784690857,0.18292683362960815,-5.099999904632568,-25.799999237060547,26.399999618530273,40.9359016418457,0,
 48633,-0.138671875,-0.9638671875,-0.1103515625,-0.3658536672592163,0.5182926654815674,0.396341472864151,-5.099999904632568,-25.799999237060547,26.399999618530273,41.07966995239258,0,
 48643,-0.142578125,-0.96484375,-0.107421875,-0.6402438879013062,0.3658536672592163,0.21341463923454285,-5.400000095367432,-26.25,29.700000762939453,40.79213333129883,0,
 48653,-0.1376953125,-0.972900390625,-0.1103515625,-0.4268292784690857,0.3048780560493469,0.09146341681480408,-4.650000095367432,-27.450000762939453,30.149999618530273,40.9359016418457,0,
 48663,-0.133544921875,-0.96533203125,-0.109130859375,-0.27439025044441223,0.4878048896789551,0.12195122241973877,-4.650000095367432,-27.450000762939453,30.149999618530273,41.2713623046875,0,
 48673,-0.132568359375,-0.963623046875,-0.109130859375,-0.27439025044441223,0.27439025044441223,0.3353658616542816,-4.650000095367432,-27.450000762939453,30.149999618530273,40.74421310424805,0,
 48683,-0.13427734375,-0.961181640625,-0.11181640625,-0.4268292784690857,0.5487805008888245,0.4573170840740204,-5.099999904632568,-28.200000762939453,30.149999618530273,40.88798141479492,0,
 48693,-0.138916015625,-0.968505859375,-0.1123046875,-0.3353658616542816,0.4878048896789551,0.4573170840740204,-4.199999809265137,-27.600000381469727,30.299999237060547,41.127593994140625,0,
 48703,-0.133544921875,-0.960693359375,-0.111572265625,-0.4268292784690857,0.5792682766914368,0.5487805008888245,-4.199999809265137,-27.600000381469727,30.0,41.07966995239258,0,
 48714,-0.13671875,-0.959716796875,-0.107421875,-0.3353658616542816,0.4268292784690857,0.4573170840740204,-4.199999809265137,-27.600000381469727,30.0,40.9359016418457,0,
 48724,-0.13916015625,-0.96630859375,-0.111083984375,-0.27439025044441223,0.3353658616542816,0.396341472864151,-5.699999809265137,-25.649999618530273,30.299999237060547,41.127593994140625,0,
 48734,-0.1337890625,-0.966552734375,-0.118408203125,-0.6097561120986938,0.5792682766914368,0.12195122241973877,-4.349999904632568,-28.200000762939453,30.149999618530273,40.74421310424805,0,
 48744,-0.13623046875,-0.95849609375,-0.11181640625,-0.15243902802467346,0.4573170840740204,0.18292683362960815,-4.349999904632568,-25.799999237060547,29.700000762939453,41.0317497253418,0,
 48754,-0.1337890625,-0.9658203125,-0.112548828125,-0.3353658616542816,0.4573170840740204,0.18292683362960815,-4.349999904632568,-25.799999237060547,29.700000762939453,40.9359016418457,0,
 48764,-0.131103515625,-0.965087890625,-0.11572265625,-0.18292683362960815,0.3658536672592163,0.5792682766914368,-4.5,-26.399999618530273,28.799999237060547,41.07966995239258,0,
 48774,-0.135986328125,-0.96484375,-0.111328125,-0.4573170840740204,0.6097561120986938,-0.030487805604934692,-6.0,-27.0,29.399999618530273,40.88798141479492,0,
 48784,-0.140625,-0.96484375,-0.11279296875,-0.15243902802467346,0.4573170840740204,-0.3658536672592163,-5.25,-28.049999237060547,29.25,41.2713623046875,0,
 48794,-0.13671875,-0.9619140625,-0.113525390625,-0.3048780560493469,0.27439025044441223,0.18292683362960815,-5.25,-28.049999237060547,29.25,41.0317497253418,0,
 48804,-0.140625,-0.963623046875,-0.107421875,-0.3353658616542816,0.6402438879013062,0.15243902802467346,-5.099999904632568,-25.799999237060547,28.950000762939453,40.79213333129883,0,
 48814,-0.138671875,-0.9658203125,-0.114501953125,-0.6097561120986938,0.24390244483947754,0.24390244483947754,-4.650000095367432,-27.0,28.950000762939453,41.0317497253418,0,
 48824,-0.14306640625,-0.96728515625,-0.110595703125,-0.6707317233085632,0.396341472864151,0.09146341681480408,-5.400000095367432,-27.0,28.950000762939453,41.127593994140625,0,
 48834,-0.13427734375,-0.9619140625,-0.11279296875,0.12195122241973877,0.7012194991111755,0.3353658616542816,-5.400000095367432,-27.0,28.950000762939453,40.88798141479492,0,
 48844,-0.13330078125,-0.961669921875,-0.111328125,-0.15243902802467346,0.3353658616542816,0.18292683362960815,-5.400000095367432,-27.0,28.950000762939453,41.22344207763672,0,
 48854,-0.140380859375,-0.96484375,-0.109619140625,-0.3353658616542816,0.3048780560493469,0.4573170840740204,-3.9000000953674316,-26.700000762939453,29.399999618530273,40.74421310424805,0,
 48864,-0.1357421875,-0.961181640625,-0.11474609375,-0.27439025044441223,0.3353658616542816,0.3658536672592163,-4.5,-27.600000381469727,29.549999237060547,41.0317497253418,0,
 48874,-0.141357421875,-0.970947265625,-0.11279296875,-0.15243902802467346,0.396341472864151,0.5182926654815674,-4.5,-27.600000381469727,29.549999237060547,40.9359016418457,0,
 48884,-0.138671875,-0.962158203125,-0.111083984375,-0.6707317233085632,0.396341472864151,0.4573170840740204,-4.5,-27.600000381469727,29.549999237060547,41.07966995239258,0,
 48894,-0.13525390625,-0.966796875,-0.106689453125,-0.5182926654815674,0.396341472864151,0.4878048896789551,-4.949999809265137,-27.299999237060547,30.0,40.9359016418457,0,
 48904,-0.143310546875,-0.967529296875,-0.110595703125,-0.7317073345184326,0.5182926654815674,0.4878048896789551,-4.5,-28.049999237060547,30.299999237060547,40.9359016418457,0,
 48914,-0.135009765625,-0.960205078125,-0.115478515625,-0.5487805008888245,0.4268292784690857,0.4268292784690857,-4.5,-28.049999237060547,30.299999237060547,41.127593994140625,0,
 48924,-0.13916015625,-0.96435546875,-0.117919921875,-0.6097561120986938,0.6097561120986938,0.6707317233085632,-4.5,-28.049999237060547,30.299999237060547,40.9359016418457,0,
 48934,-0.1376953125,-0.9658203125,-0.1103515625,-0.3048780560493469,0.396341472864151,0.4268292784690857,-4.5,-28.5,28.049999237060547,41.0317497253418,0,
 48944,-0.13671875,-0.9599609375,-0.109619140625,-0.5792682766914368,0.3353658616542816,0.5792682766914368,-5.849999904632568,-26.700000762939453,28.649999618530273,41.07966995239258,0,
 48954,-0.138671875,-0.966552734375,-0.11376953125,-0.4878048896789551,0.4878048896789551,0.27439025044441223,-5.849999904632568,-26.700000762939453,28.649999618530273,40.79213333129883,0,
 48964,-0.13623046875,-0.96435546875,-0.1123046875,-0.5182926654815674,0.24390244483947754,0.18292683362960815,-5.849999904632568,-26.700000762939453,28.649999618530273,41.0317497253418,0,
 48974,-0.14208984375,-0.96923828125,-0.113525390625,-0.4573170840740204,0.6097561120986938,0.4268292784690857,-5.099999904632568,-27.450000762939453,30.899999618530273,40.9359016418457,0,
 48984,-0.135009765625,-0.9638671875,-0.114013671875,-0.5182926654815674,0.5487805008888245,0.396341472864151,-5.699999809265137,-28.049999237060547,31.5,40.79213333129883,0,
 48994,-0.140380859375,-0.962158203125,-0.114013671875,-0.7012194991111755,0.3353658616542816,0.21341463923454285,-5.699999809265137,-28.049999237060547,30.0,41.07966995239258,0,
 49004,-0.13427734375,-0.96435546875,-0.113525390625,-0.6097561120986938,0.6402438879013062,0.21341463923454285,-5.699999809265137,-28.049999237060547,30.0,40.74421310424805,0,
 49014,-0.138427734375,-0.965087890625,-0.113037109375,-0.6707317233085632,0.5487805008888245,0.5792682766914368,-4.5,-26.399999618530273,31.049999237060547,40.88798141479492,0,
 49024,-0.13720703125,-0.9619140625,-0.109375,-0.4573170840740204,0.5182926654815674,0.4268292784690857,-3.5999999046325684,-28.5,31.5,41.127593994140625,0,
 49034,-0.13623046875,-0.96435546875,-0.1123046875,-0.5487805008888245,0.27439025044441223,0.24390244483947754,-3.5999999046325684,-26.25,28.200000762939453,41.07966995239258,0,
 49044,-0.1337890625,-0.97021484375,-0.114501953125,-0.3048780560493469,0.396341472864151,0.3353658616542816,-3.5999999046325684,-26.25,28.200000762939453,41.0317497253418,0,
 49054,-0.139404296875,-0.9677734375,-0.114990234375,-0.4268292784690857,0.4268292784690857,0.6097561120986938,-4.199999809265137,-26.399999618530273,31.5,40.79213333129883,0,
 49064,-0.140625,-0.966796875,-0.10888671875,-0.4573170840740204,0.3658536672592163,0.3658536672592163,-5.099999904632568,-27.600000381469727,29.549999237060547,41.127593994140625,0,
 49074,-0.136474609375,-0.968017578125,-0.112548828125,-0.5792682766914368,0.18292683362960815,-0.15243902802467346,-5.099999904632568,-27.450000762939453,30.149999618530273,40.79213333129883,0,
 49084,-0.138427734375,-0.959716796875,-0.109130859375,-0.8536585569381714,0.396341472864151,0.15243902802467346,-5.099999904632568,-27.450000762939453,30.149999618530273,41.0317497253418,0,
 49094,-0.137939453125,-0.963134765625,-0.113525390625,-0.3048780560493469,0.4878048896789551,0.18292683362960815,-4.349999904632568,-26.700000762939453,28.200000762939453,40.9359016418457,0,
 49104,-0.143310546875,-0.96875,-0.1123046875,-0.3048780560493469,0.5792682766914368,0.5487805008888245,-4.650000095367432,-26.700000762939453,29.700000762939453,40.79213333129883,0,
 49114,-0.13232421875,-0.962158203125,-0.1123046875,-0.8231707215309143,0.7012194991111755,0.5487805008888245,-5.849999904632568,-27.899999618530273,29.399999618530273,41.127593994140625,0,
 49124,-0.13671875,-0.962890625,-0.11181640625,-0.8231707215309143,0.4878048896789551,0.21341463923454285,-5.849999904632568,-27.899999618530273,29.399999618530273,40.79213333129883,0,
 49134,-0.14111328125,-0.96435546875,-0.114013671875,-0.4268292784690857,0.27439025044441223,0.4573170840740204,-5.849999904632568,-26.700000762939453,28.649999618530273,41.07966995239258,0,
 49144,-0.13720703125,-0.965576171875,-0.107666015625,-0.7621951103210449,0.5182926654815674,0.09146341681480408,-3.9000000953674316,-27.0,29.700000762939453,40.9359016418457,0,
 49154,-0.1337890625,-0.969970703125,-0.103515625,-0.18292683362960815,0.4878048896789551,0.3048780560493469,-5.25,-27.600000381469727,31.5,40.79213333129883,0,
 49164,-0.137451171875,-0.96923828125,-0.11474609375,-0.3658536672592163,0.18292683362960815,0.3658536672592163,-5.25,-27.600000381469727,31.5,41.127593994140625,0,
 49174,-0.13427734375,-0.967041015625,-0.113525390625,-0.27439025044441223,0.15243902802467346,0.27439025044441223,-5.25,-27.600000381469727,31.5,40.88798141479492,0,
 49184,-0.1455078125,-0.96240234375,-0.111083984375,-0.18292683362960815,0.27439025044441223,0.3658536672592163,-5.099999904632568,-27.450000762939453,30.450000762939453,41.0317497253418,0,
 49194,-0.1376953125,-0.96240234375,-0.119140625,-0.3048780560493469,0.24390244483947754,0.3658536672592163,-3.1500000953674316,-24.75,30.149999618530273,40.79213333129883,0,
 49204,-0.140869140625,-0.965576171875,-0.111572265625,-0.4573170840740204,0.4268292784690857,0.3048780560493469,-3.1500000953674316,-24.75,30.149999618530273,41.07966995239258,0,
 49214,-0.141357421875,-0.963623046875,-0.109375,-0.3353658616542816,0.3048780560493469,0.15243902802467346,-3.1500000953674316,-24.75,30.149999618530273,40.9359016418457,0,
 49224,-0.13916015625,-0.96630859375,-0.111572265625,-0.21341463923454285,0.4573170840740204,0.060975611209869385,-4.5,-27.299999237060547,32.54999923706055,41.127593994140625,0,
 49234,-0.1337890625,-0.966064453125,-0.11767578125,-0.5792682766914368,0.24390244483947754,0.21341463923454285,-5.25,-27.600000381469727,29.25,41.127593994140625,0,
 49244,-0.135986328125,-0.9697265625,-0.108642578125,-0.5487805008888245,-0.030487805604934692,0.21341463923454285,-5.25,-27.600000381469727,29.25,40.552520751953125,0,
 49254,-0.140625,-0.965576171875,-0.112060546875,-0.4573170840740204,0.12195122241973877,0.09146341681480408,-5.25,-27.600000381469727,29.25,41.127593994140625,0,
 49264,-0.143798828125,-0.965576171875,-0.114990234375,-0.4573170840740204,0.18292683362960815,0.21341463923454285,-5.099999904632568,-25.5,30.149999618530273,40.9359016418457,0,
 49274,-0.142333984375,-0.96484375,-0.11181640625,-0.7317073345184326,0.4573170840740204,0.09146341681480408,-4.5,-27.600000381469727,29.549999237060547,41.127593994140625,0,
 49284,-0.137939453125,-0.963623046875,-0.113037109375,-0.4268292784690857,0.21341463923454285,0.4268292784690857,-4.5,-27.600000381469727,29.25,41.07966995239258,0,
 49294,-0.13671875,-0.970703125,-0.113037109375,-0.27439025044441223,0.24390244483947754,0.09146341681480408,-4.5,-27.600000381469727,29.25,40.9359016418457,0,
 49304,-0.1328125,-0.96337890625,-0.109375,-0.4268292784690857,0.4573170840740204,0.3353658616542816,-6.300000190734863,-27.899999618530273,29.399999618530273,40.88798141479492,0,
 49314,-0.142822265625,-0.96630859375,-0.111572265625,-0.5487805008888245,0.4878048896789551,0.18292683362960815,-4.949999809265137,-27.600000381469727,30.75,41.0317497253418,0,
 49324,-0.138916015625,-0.967529296875,-0.11572265625,-0.21341463923454285,0.3048780560493469,0.4573170840740204,-4.949999809265137,-27.600000381469727,30.0,40.9359016418457,0,
 49334,-0.137939453125,-0.961181640625,-0.11083984375,-0.396341472864151,0.4268292784690857,0.4573170840740204,-4.949999809265137,-27.600000381469727,30.0,41.127593994140625,0,
 49344,-0.13623046875,-0.965087890625,-0.114501953125,-0.3658536672592163,0.21341463923454285,0.3658536672592163,-3.299999952316284,-28.049999237060547,27.75,40.74421310424805,0,
 49354,-0.14111328125,-0.9638671875,-0.108642578125,-0.4878048896789551,0.4573170840740204,0.3048780560493469,-4.199999809265137,-26.850000381469727,29.549999237060547,40.9359016418457,0,
 49364,-0.137451171875,-0.9609375,-0.110595703125,-0.21341463923454285,0.396341472864151,0.21341463923454285,-4.199999809265137,-26.100000381469727,30.0,41.127593994140625,0,
 49374,-0.133056640625,-0.966552734375,-0.111328125,-0.4573170840740204,0.3353658616542816,0.5487805008888245,-4.199999809265137,-26.100000381469727,30.0,41.127593994140625,0,
 49384,-0.139892578125,-0.962890625,-0.11328125,-0.5792682766914368,0.21341463923454285,0.3658536672592163,-3.5999999046325684,-27.0,29.399999618530273,41.0317497253418,0,
 49394,-0.13671875,-0.96533203125,-0.11181640625,-0.6707317233085632,0.21341463923454285,0.3048780560493469,-4.199999809265137,-26.850000381469727,29.549999237060547,40.9359016418457,0,
 49404,-0.136474609375,-0.971435546875,-0.112548828125,-0.27439025044441223,0.4268292784690857,0.3048780560493469,-5.099999904632568,-26.700000762939453,30.149999618530273,40.9359016418457,0,
 49414,-0.134033203125,-0.966552734375,-0.110595703125,-0.27439025044441223,0.3353658616542816,0.18292683362960815,-5.099999904632568,-26.700000762939453,30.149999618530273,41.0317497253418,0,
 49424,-0.13720703125,-0.96630859375,-0.109619140625,-0.5792682766914368,0.3658536672592163,0.4573170840740204,-5.099999904632568,-27.899999618530273,30.899999618530273,41.07966995239258,0,
 49434,-0.134033203125,-0.965576171875,-0.11181640625,-0.396341472864151,0.4878048896789551,0.27439025044441223,-4.5,-26.399999618530273,29.549999237060547,41.07966995239258,0,
 49444,-0.137451171875,-0.963134765625,-0.11767578125,-0.5487805008888245,0.4268292784690857,0.4573170840740204,-5.25,-27.299999237060547,30.299999237060547,40.79213333129883,0,
 49454,-0.13916015625,-0.9609375,-0.112548828125,-0.6402438879013062,0.4573170840740204,0.4573170840740204,-5.25,-27.299999237060547,30.299999237060547,41.07966995239258,0,
 49464,-0.141357421875,-0.963623046875,-0.111572265625,-0.5182926654815674,0.21341463923454285,0.4268292784690857,-3.75,-26.399999618530273,29.549999237060547,41.07966995239258,0,
 49474,-0.1396484375,-0.964599609375,-0.11328125,-0.6707317233085632,0.3658536672592163,0.21341463923454285,-6.0,-26.850000381469727,30.299999237060547,41.0317497253418,0,
 49485,-0.14404296875,-0.97021484375,-0.112060546875,-0.8231707215309143,0.396341472864151,0.5487805008888245,-5.699999809265137,-27.299999237060547,29.25,40.9359016418457,0,
 49495,-0.134521484375,-0.963623046875,-0.114990234375,-0.7621951103210449,0.396341472864151,0.0,-5.699999809265137,-27.299999237060547,29.25,40.88798141479492,0,
 49505,-0.1396484375,-0.966796875,-0.1064453125,-0.5487805008888245,0.5487805008888245,0.4268292784690857,-5.699999809265137,-27.299999237060547,29.25,41.22344207763672,0,
 49515,-0.13525390625,-0.96484375,-0.111328125,-0.6707317233085632,0.6402438879013062,0.4573170840740204,-3.5999999046325684,-26.25,29.700000762939453,40.9359016418457,0,
 49525,-0.136962890625,-0.9658203125,-0.1123046875,-0.24390244483947754,0.3048780560493469,0.6097561120986938,-5.699999809265137,-26.850000381469727,29.399999618530273,41.127593994140625,0,
 49535,-0.138916015625,-0.9638671875,-0.10595703125,-0.5792682766914368,0.3658536672592163,0.24390244483947754,-5.699999809265137,-26.850000381469727,30.0,40.88798141479492,0,
 49545,-0.1396484375,-0.96826171875,-0.1103515625,-0.7621951103210449,0.24390244483947754,0.396341472864151,-5.699999809265137,-26.850000381469727,30.0,40.9359016418457,0,
 49555,-0.138916015625,-0.964111328125,-0.1103515625,-0.5182926654815674,0.5792682766914368,0.3353658616542816,-5.25,-26.850000381469727,30.299999237060547,41.127593994140625,0,
 49565,-0.137939453125,-0.96435546875,-0.115234375,-0.396341472864151,0.4573170840740204,0.24390244483947754,-4.199999809265137,-28.5,30.299999237060547,40.9359016418457,0,
 49575,-0.1328125,-0.9619140625,-0.106689453125,-0.4573170840740204,0.21341463923454285,0.396341472864151,-4.199999809265137,-28.5,31.5,40.88798141479492,0,
 49585,-0.13330078125,-0.967041015625,-0.111083984375,-0.15243902802467346,0.4878048896789551,0.3048780560493469,-4.199999809265137,-28.5,31.5,41.22344207763672,0,
 49595,-0.134765625,-0.96484375,-0.1142578125,-0.18292683362960815,0.15243902802467346,0.15243902802467346,-5.400000095367432,-26.25,29.700000762939453,41.0317497253418,0,
 49605,-0.141845703125,-0.9609375,-0.113525390625,-0.4878048896789551,0.24390244483947754,0.396341472864151,-4.349999904632568,-25.350000381469727,30.0,41.127593994140625,0,
 49615,-0.138671875,-0.9658203125,-0.111328125,-0.3353658616542816,0.3353658616542816,0.15243902802467346,-4.349999904632568,-27.0,30.149999618530273,41.07966995239258,0,
 49625,-0.13671875,-0.968017578125,-0.111083984375,-0.3048780560493469,0.3353658616542816,0.3353658616542816,-4.349999904632568,-27.0,30.149999618530273,41.0317497253418,0,
 49635,-0.1357421875,-0.960205078125,-0.112548828125,-0.4573170840740204,0.27439025044441223,0.4573170840740204,-4.5,-27.600000381469727,31.049999237060547,40.79213333129883,0,
 49645,-0.14404296875,-0.96826171875,-0.1123046875,-0.21341463923454285,0.5182926654815674,0.15243902802467346,-7.050000190734863,-25.799999237060547,27.899999618530273,41.0317497253418,0,
 49655,-0.138427734375,-0.96533203125,-0.107666015625,-0.396341472864151,0.396341472864151,0.0,-7.5,-28.049999237060547,28.049999237060547,41.0317497253418,0,
 49665,-0.143798828125,-0.965576171875,-0.11279296875,-0.7621951103210449,0.3048780560493469,0.24390244483947754,-7.5,-28.049999237060547,28.049999237060547,41.0317497253418,0,
 49675,-0.138671875,-0.963623046875,-0.111328125,-0.6707317233085632,0.18292683362960815,0.12195122241973877,-4.650000095367432,-25.799999237060547,30.899999618530273,41.0317497253418,0,
 49685,-0.1396484375,-0.962158203125,-0.110595703125,-0.3048780560493469,0.4268292784690857,-0.030487805604934692,-2.549999952316284,-27.299999237060547,30.0,40.79213333129883,0,
 49695,-0.139892578125,-0.961669921875,-0.11376953125,-0.6402438879013062,0.4573170840740204,0.21341463923454285,-5.699999809265137,-26.100000381469727,30.299999237060547,41.0317497253418,0,
 49705,-0.14208984375,-0.961181640625,-0.115234375,-0.4268292784690857,0.396341472864151,0.27439025044441223,-5.699999809265137,-26.100000381469727,30.299999237060547,41.07966995239258,0,
 49715,-0.13818359375,-0.9638671875,-0.11328125,-0.5182926654815674,0.3658536672592163,0.24390244483947754,-4.5,-25.649999618530273,31.5,40.88798141479492,0,
 49725,-0.13720703125,-0.957275390625,-0.11328125,-0.4268292784690857,0.7317073345184326,0.3353658616542816,-5.400000095367432,-27.899999618530273,29.399999618530273,41.2713623046875,0,
 49735,-0.135009765625,-0.96533203125,-0.108642578125,-0.8841463327407837,0.3353658616542816,0.21341463923454285,-4.949999809265137,-25.350000381469727,30.0,40.9359016418457,0,
 49745,-0.137451171875,-0.957275390625,-0.118896484375,-0.5792682766914368,0.396341472864151,0.3353658616542816,-4.949999809265137,-25.350000381469727,30.0,41.0317497253418,0,
 49755,-0.1396484375,-0.966064453125,-0.1123046875,-0.5487805008888245,0.4878048896789551,0.4878048896789551,-5.699999809265137,-27.299999237060547,30.299999237060547,41.0317497253418,0,
 49765,-0.138427734375,-0.9599609375,-0.114013671875,-0.5487805008888245,0.4878048896789551,0.21341463923454285,-4.199999809265137,-26.100000381469727,30.299999237060547,41.0317497253418,0,
 49775,-0.135498046875,-0.96337890625,-0.10791015625,-0.792682945728302,0.4878048896789551,0.24390244483947754,-3.1500000953674316,-25.5,31.200000762939453,40.9359016418457,0,
 49785,-0.13818359375,-0.969970703125,-0.112060546875,-0.3353658616542816,0.5792682766914368,0.24390244483947754,-3.1500000953674316,-25.5,31.200000762939453,41.0317497253418,0,
 49795,-0.138671875,-0.963134765625,-0.113525390625,-0.3658536672592163,0.5487805008888245,0.396341472864151,-4.199999809265137,-26.850000381469727,30.299999237060547,41.0317497253418,0,
 49805,-0.13720703125,-0.969482421875,-0.111328125,-0.6097561120986938,0.4268292784690857,0.3353658616542816,-4.349999904632568,-27.0,30.450000762939453,40.9359016418457,0,
 49815,-0.13916015625,-0.966796875,-0.10693359375,-0.3658536672592163,0.6707317233085632,0.396341472864151,-4.349999904632568,-29.100000381469727,31.049999237060547,41.07966995239258,0,
 49825,-0.13720703125,-0.966064453125,-0.108642578125,-0.5182926654815674,0.18292683362960815,0.18292683362960815,-4.349999904632568,-29.100000381469727,30.899999618530273,41.0317497253418,0,
 49835,-0.130126953125,-0.964599609375,-0.1103515625,-0.6402438879013062,0.4573170840740204,0.396341472864151,-4.349999904632568,-29.100000381469727,30.899999618530273,40.9359016418457,0,
 49845,-0.138427734375,-0.96630859375,-0.10498046875,-0.4573170840740204,0.24390244483947754,0.3048780560493469,-3.0,-27.600000381469727,30.299999237060547,41.0317497253418,0,
 49855,-0.13818359375,-0.963623046875,-0.109375,-0.3048780560493469,0.27439025044441223,0.060975611209869385,-3.75,-29.100000381469727,27.450000762939453,41.22344207763672,0,
 49865,-0.142333984375,-0.970947265625,-0.1103515625,-0.27439025044441223,0.24390244483947754,0.18292683362960815,-3.75,-27.600000381469727,31.5,40.9359016418457,0,
 49875,-0.142333984375,-0.961669921875,-0.106689453125,-0.396341472864151,0.24390244483947754,0.6097561120986938,-3.75,-27.600000381469727,31.5,41.127593994140625,0,
 49885,-0.13427734375,-0.962890625,-0.112548828125,-0.5182926654815674,0.5487805008888245,0.396341472864151,-4.349999904632568,-27.450000762939453,29.700000762939453,41.0317497253418,0,
 49895,-0.135498046875,-0.9658203125,-0.1103515625,-0.4573170840740204,0.4878048896789551,0.3658536672592163,-3.75,-26.25,30.450000762939453,41.0317497253418,0,
 49905,-0.140625,-0.96435546875,-0.11328125,-0.3658536672592163,0.3658536672592163,0.5487805008888245,-3.75,-25.350000381469727,30.0,41.127593994140625,0,
 49915,-0.134521484375,-0.965087890625,-0.1083984375,-0.030487805604934692,0.396341472864151,0.24390244483947754,-3.75,-25.350000381469727,30.0,40.79213333129883,0,
 49925,-0.1396484375,-0.962158203125,-0.115234375,-0.5182926654815674,0.3048780560493469,0.4878048896789551,-4.349999904632568,-26.700000762939453,28.950000762939453,41.07966995239258,0,
 49935,-0.13623046875,-0.967041015625,-0.106201171875,-0.3353658616542816,0.6097561120986938,0.396341472864151,-2.549999952316284,-27.299999237060547,30.75,40.79213333129883,0,
 49945,-0.137939453125,-0.962158203125,-0.10498046875,-0.3048780560493469,0.3048780560493469,-0.030487805604934692,-5.849999904632568,-27.0,30.450000762939453,41.0317497253418,0,
 49955,-0.141357421875,-0.968505859375,-0.111328125,-0.18292683362960815,0.4268292784690857,-0.060975611209869385,-5.849999904632568,-27.0,30.450000762939453,40.9359016418457,0,
 49965,-0.136474609375,-0.964111328125,-0.10791015625,-0.3353658616542816,0.4268292784690857,0.09146341681480408,-4.349999904632568,-26.25,30.899999618530273,40.9359016418457,0,
 49975,-0.13818359375,-0.964599609375,-0.112060546875,-0.4573170840740204,0.5182926654815674,0.4878048896789551,-5.099999904632568,-26.25,29.700000762939453,41.127593994140625,0,
 49985,-0.144775390625,-0.9658203125,-0.1123046875,-0.3658536672592163,0.21341463923454285,0.27439025044441223,-3.299999952316284,-26.850000381469727,30.299999237060547,40.552520751953125,0,
 49995,-0.135986328125,-0.967529296875,-0.11474609375,-0.6402438879013062,0.5792682766914368,0.12195122241973877,-3.299999952316284,-26.850000381469727,30.299999237060547,41.127593994140625,0,
 50005,-0.138916015625,-0.963134765625,-0.109619140625,-0.5487805008888245,0.3048780560493469,0.4573170840740204,-3.5999999046325684,-27.0,29.399999618530273,40.9359016418457,0,
 50015,-0.133544921875,-0.97021484375,-0.11376953125,-0.3048780560493469,0.396341472864151,0.09146341681480408,-4.949999809265137,-26.399999618530273,29.25,41.0317497253418,0,
 50025,-0.1435546875,-0.966796875,-0.11376953125,-0.15243902802467346,0.24390244483947754,0.15243902802467346,-4.650000095367432,-27.450000762939453,28.649999618530273,41.0317497253418,0,
 50035,-0.133544921875,-0.968505859375,-0.11279296875,-0.3658536672592163,0.5487805008888245,0.24390244483947754,-4.650000095367432,-27.450000762939453,28.649999618530273,41.127593994140625,0,
 50045,-0.135986328125,-0.96826171875,-0.111083984375,-0.4268292784690857,0.24390244483947754,0.24390244483947754,-6.449999809265137,-26.399999618530273,29.549999237060547,40.79213333129883,0,
 50055,-0.14208984375,-0.962158203125,-0.113037109375,-0.3658536672592163,0.21341463923454285,0.6707317233085632,-6.0,-26.399999618530273,28.049999237060547,40.88798141479492,0,
 50065,-0.139404296875,-0.963623046875,-0.110595703125,-0.396341472864151,0.4878048896789551,0.18292683362960815,-5.699999809265137,-27.299999237060547,30.0,41.0317497253418,0,
 50075,-0.13037109375,-0.9677734375,-0.11181640625,-0.5182926654815674,0.4878048896789551,0.5792682766914368,-5.699999809265137,-27.299999237060547,30.0,40.9359016418457,0,
 50085,-0.1376953125,-0.965087890625,-0.11083984375,-0.4878048896789551,0.18292683362960815,0.060975611209869385,-4.5,-26.399999618530273,31.5,40.79213333129883,0,
 50095,-0.142333984375,-0.964111328125,-0.1044921875,-0.6707317233085632,0.3048780560493469,0.15243902802467346,-4.5,-26.399999618530273,29.549999237060547,40.88798141479492,0,
 50105,-0.139404296875,-0.9638671875,-0.111328125,-0.4268292784690857,0.18292683362960815,0.09146341681480408,-3.75,-25.350000381469727,30.0,41.07966995239258,0,
 50115,-0.143798828125,-0.95849609375,-0.11083984375,-0.6097561120986938,0.5487805008888245,0.030487805604934692,-3.75,-25.350000381469727,30.0,40.79213333129883,0,
 50125,-0.140625,-0.9697265625,-0.110107421875,-0.4573170840740204,0.4268292784690857,0.27439025044441223,-5.400000095367432,-26.700000762939453,30.450000762939453,40.74421310424805,0,
 50135,-0.13134765625,-0.961669921875,-0.10888671875,-0.24390244483947754,0.4268292784690857,0.24390244483947754,-5.099999904632568,-27.450000762939453,29.399999618530273,41.22344207763672,0,
 50145,-0.135498046875,-0.96630859375,-0.114990234375,-0.18292683362960815,0.4268292784690857,0.6097561120986938,-6.300000190734863,-26.25,30.75,41.0317497253418,0,
 50155,-0.142333984375,-0.969482421875,-0.12060546875,-0.7621951103210449,0.4268292784690857,-0.15243902802467346,-6.300000190734863,-26.25,30.450000762939453,41.07966995239258,0,
 50165,-0.134033203125,-0.964599609375,-0.10888671875,-1.0060975551605225,0.6707317233085632,0.4573170840740204,-6.300000190734863,-26.25,30.450000762939453,41.127593994140625,0,
 50175,-0.1396484375,-0.96142578125,-0.111083984375,-0.4878048896789551,0.3658536672592163,0.5487805008888245,-3.5999999046325684,-27.450000762939453,30.899999618530273,40.79213333129883,0,
 50185,-0.136962890625,-0.96923828125,-0.111328125,-0.6402438879013062,0.396341472864151,0.09146341681480408,-3.9000000953674316,-27.0,29.399999618530273,40.79213333129883,0,
 50195,-0.134521484375,-0.968994140625,-0.115966796875,-0.5182926654815674,0.09146341681480408,0.0,-3.9000000953674316,-27.0,29.399999618530273,41.127593994140625,0,
 50206,-0.13427734375,-0.967529296875,-0.112060546875,-0.5487805008888245,0.5487805008888245,0.4268292784690857,-3.9000000953674316,-27.0,29.399999618530273,41.0317497253418,0,
 50216,-0.13720703125,-0.965087890625,-0.114501953125,-0.5792682766914368,0.5487805008888245,0.27439025044441223,-4.349999904632568,-26.700000762939453,30.149999618530273,40.9359016418457,0,
 50226,-0.139404296875,-0.96142578125,-0.109375,-0.3048780560493469,0.5182926654815674,0.5487805008888245,-4.349999904632568,-27.299999237060547,30.75,40.79213333129883,0,
 50236,-0.137451171875,-0.959228515625,-0.111083984375,-0.27439025044441223,0.3353658616542816,0.24390244483947754,-4.349999904632568,-27.450000762939453,28.649999618530273,41.0317497253418,0,
 50246,-0.142822265625,-0.96533203125,-0.1083984375,-0.09146341681480408,0.12195122241973877,0.3353658616542816,-4.349999904632568,-27.450000762939453,28.649999618530273,40.9359016418457,0,
 50256,-0.140380859375,-0.966796875,-0.11376953125,-0.7317073345184326,0.24390244483947754,0.060975611209869385,-2.549999952316284,-27.600000381469727,31.049999237060547,41.0317497253418,0,
 50266,-0.137939453125,-0.96630859375,-0.104248046875,-0.4878048896789551,0.4878048896789551,0.6097561120986938,-4.349999904632568,-27.299999237060547,27.299999237060547,41.0317497253418,0,
 50276,-0.138916015625,-0.969970703125,-0.10986328125,-0.6097561120986938,0.5792682766914368,0.18292683362960815,-4.349999904632568,-26.700000762939453,30.149999618530273,40.74421310424805,0,
 50286,-0.13720703125,-0.968017578125,-0.1142578125,-0.15243902802467346,0.396341472864151,0.18292683362960815,-4.349999904632568,-26.700000762939453,30.149999618530273,41.07966995239258,0,
 50296,-0.132568359375,-0.963623046875,-0.11181640625,-0.3048780560493469,0.3658536672592163,0.18292683362960815,-4.5,-25.649999618530273,31.049999237060547,40.9359016418457,0,
 50306,-0.13232421875,-0.963134765625,-0.11181640625,-0.030487805604934692,0.3048780560493469,0.4573170840740204,-4.650000095367432,-25.350000381469727,29.25,41.07966995239258,0,
 50316,-0.13427734375,-0.96337890625,-0.107421875,-0.4573170840740204,0.3353658616542816,0.5487805008888245,-4.650000095367432,-26.25,30.149999618530273,41.0317497253418,0,
 50326,-0.138427734375,-0.971435546875,-0.112548828125,0.0,0.4573170840740204,0.4268292784690857,-4.650000095367432,-26.25,30.149999618530273,40.88798141479492,0,
 50336,-0.134521484375,-0.961181640625,-0.109619140625,-0.5487805008888245,0.3048780560493469,0.24390244483947754,-4.650000095367432,-27.0,29.399999618530273,40.9359016418457,0,
 50346,-0.138671875,-0.966796875,-0.1142578125,-0.4878048896789551,0.5487805008888245,0.4573170840740204,-4.949999809265137,-27.0,30.899999618530273,41.22344207763672,0,
 50356,-0.139404296875,-0.962646484375,-0.11083984375,-0.4573170840740204,0.4573170840740204,0.3048780560493469,-4.949999809265137,-28.049999237060547,30.75,41.07966995239258,0,
 50366,-0.134765625,-0.960693359375,-0.112548828125,-0.3048780560493469,0.4268292784690857,0.4268292784690857,-4.949999809265137,-28.049999237060547,30.75,41.0317497253418,0,
 50376,-0.1376953125,-0.96240234375,-0.11669921875,-0.24390244483947754,0.396341472864151,0.21341463923454285,-4.949999809265137,-26.850000381469727,29.549999237060547,40.79213333129883,0,
 50386,-0.139892578125,-0.967041015625,-0.112548828125,-0.396341472864151,0.24390244483947754,0.18292683362960815,-4.199999809265137,-27.299999237060547,29.549999237060547,40.9359016418457,0,
 50396,-0.142333984375,-0.966552734375,-0.1123046875,-0.396341472864151,0.3658536672592163,0.5182926654815674,-4.199999809265137,-27.600000381469727,30.0,40.79213333129883,0,
 50406,-0.13818359375,-0.962646484375,-0.11767578125,-0.4268292784690857,0.3048780560493469,0.12195122241973877,-4.199999809265137,-27.600000381469727,30.0,41.0317497253418,0,
 50416,-0.14013671875,-0.965087890625,-0.114990234375,-0.4573170840740204,0.21341463923454285,0.5792682766914368,-3.1500000953674316,-25.799999237060547,30.899999618530273,41.0317497253418,0,
 50426,-0.130615234375,-0.968017578125,-0.111572265625,-0.3048780560493469,0.4878048896789551,0.3353658616542816,-3.5999999046325684,-26.399999618530273,29.25,40.79213333129883,0,
 50436,-0.136962890625,-0.96923828125,-0.11181640625,-0.396341472864151,0.24390244483947754,0.21341463923454285,-3.5999999046325684,-26.700000762939453,30.450000762939453,41.0317497253418,0,
 50446,-0.136474609375,-0.97119140625,-0.109130859375,-0.4268292784690857,0.27439025044441223,0.4268292784690857,-3.5999999046325684,-26.700000762939453,30.450000762939453,41.0317497253418,0,
 50456,-0.13916015625,-0.960693359375,-0.112060546875,-0.8231707215309143,0.396341472864151,0.27439025044441223,-4.949999809265137,-25.350000381469727,30.75,41.07966995239258,0,
 50466,-0.141357421875,-0.966064453125,-0.10986328125,-0.4878048896789551,0.3353658616542816,0.4268292784690857,-3.299999952316284,-25.649999618530273,29.25,41.0317497253418,0,
 50476,-0.13720703125,-0.964599609375,-0.10693359375,-0.3048780560493469,0.6402438879013062,0.12195122241973877,-6.300000190734863,-27.0,29.399999618530273,41.127593994140625,0,
 50486,-0.138916015625,-0.962890625,-0.1103515625,-0.5487805008888245,0.4268292784690857,0.27439025044441223,-6.300000190734863,-27.0,29.399999618530273,41.0317497253418,0,
 50496,-0.13623046875,-0.9599609375,-0.109375,-0.3658536672592163,0.3658536672592163,0.3353658616542816,-5.699999809265137,-28.049999237060547,30.299999237060547,40.79213333129883,0,
 50506,-0.13818359375,-0.965576171875,-0.1103515625,-0.4573170840740204,0.396341472864151,0.396341472864151,-5.400000095367432,-27.899999618530273,29.700000762939453,41.07966995239258,0,
 50516,-0.143310546875,-0.967529296875,-0.108642578125,-0.396341472864151,0.7317073345184326,0.3353658616542816,-4.650000095367432,-27.0,30.149999618530273,41.07966995239258,0,
 50526,-0.135498046875,-0.966796875,-0.106689453125,-0.4573170840740204,0.4268292784690857,0.27439025044441223,-4.650000095367432,-27.0,30.149999618530273,41.07966995239258,0,
 50536,-0.13427734375,-0.96923828125,-0.111572265625,-0.6097561120986938,0.27439025044441223,0.3353658616542816,-4.650000095367432,-27.0,30.149999618530273,40.88798141479492,0,
 50546,-0.13916015625,-0.96240234375,-0.1162109375,-0.3048780560493469,0.4573170840740204,0.396341472864151,-4.349999904632568,-26.700000762939453,32.400001525878906,41.07966995239258,0,
 50556,-0.137939453125,-0.9658203125,-0.113037109375,-0.7012194991111755,0.21341463923454285,0.5792682766914368,-4.949999809265137,-26.399999618530273,30.0,41.07966995239258,0,
 50566,-0.13671875,-0.966064453125,-0.111328125,-0.6097561120986938,0.4268292784690857,0.6097561120986938,-4.949999809265137,-26.399999618530273,30.0,40.88798141479492,0,
 50576,-0.14013671875,-0.9619140625,-0.111328125,-0.3658536672592163,0.4268292784690857,0.18292683362960815,-4.949999809265137,-26.399999618530273,30.0,41.0317497253418,0,
 50586,-0.135986328125,-0.96240234375,-0.11083984375,-0.3658536672592163,0.4878048896789551,0.3658536672592163,-2.549999952316284,-27.600000381469727,30.0,40.88798141479492,0,
 50596,-0.13623046875,-0.965576171875,-0.112060546875,-0.27439025044441223,0.4573170840740204,0.4268292784690857,-5.400000095367432,-27.0,30.149999618530273,40.88798141479492,0,
 50606,-0.1396484375,-0.960693359375,-0.109375,-0.4268292784690857,0.3048780560493469,0.3658536672592163,-5.400000095367432,-27.0,30.149999618530273,41.07966995239258,0,
 50616,-0.138427734375,-0.966552734375,-0.112060546875,-0.27439025044441223,0.24390244483947754,0.4268292784690857,-5.400000095367432,-27.0,30.149999618530273,40.88798141479492,0,
 50626,-0.138916015625,-0.967041015625,-0.109130859375,-0.4878048896789551,0.3658536672592163,0.21341463923454285,-5.099999904632568,-26.700000762939453,28.649999618530273,40.88798141479492,0,
 50636,-0.14013671875,-0.963623046875,-0.11328125,-0.4878048896789551,0.3658536672592163,0.3048780560493469,-2.8499999046325684,-25.5,32.25,41.22344207763672,0,
 50646,-0.138427734375,-0.966064453125,-0.11474609375,-0.5487805008888245,0.4878048896789551,0.3048780560493469,-2.8499999046325684,-25.5,30.899999618530273,40.9359016418457,0,
 50656,-0.138916015625,-0.9658203125,-0.111328125,-0.5487805008888245,0.4268292784690857,0.396341472864151,-2.8499999046325684,-25.5,30.899999618530273,41.127593994140625,0,
 50666,-0.1396484375,-0.97119140625,-0.110595703125,-0.4878048896789551,0.27439025044441223,0.3658536672592163,-5.849999904632568,-25.049999237060547,30.450000762939453,40.79213333129883,0,
 50676,-0.1376953125,-0.961181640625,-0.109130859375,-0.3658536672592163,0.24390244483947754,-0.060975611209869385,-4.5,-26.100000381469727,29.25,40.79213333129883,0,
 50686,-0.140380859375,-0.966796875,-0.116455078125,-0.4878048896789551,0.5487805008888245,0.6097561120986938,-4.5,-26.100000381469727,29.549999237060547,41.0317497253418,0,
 50696,-0.135009765625,-0.96630859375,-0.113037109375,-0.8536585569381714,0.24390244483947754,0.4573170840740204,-4.5,-26.100000381469727,29.549999237060547,41.0317497253418,0,
 50706,-0.137451171875,-0.96435546875,-0.112060546875,-0.4573170840740204,0.6097561120986938,0.27439025044441223,-4.349999904632568,-27.450000762939453,32.400001525878906,41.2713623046875,0,
 50716,-0.1376953125,-0.96044921875,-0.11083984375,-0.4573170840740204,0.4268292784690857,0.24390244483947754,-4.199999809265137,-26.399999618530273,29.549999237060547,40.79213333129883,0,
 50726,-0.13818359375,-0.96826171875,-0.114013671875,-0.4573170840740204,0.27439025044441223,0.21341463923454285,-4.199999809265137,-26.850000381469727,30.0,41.07966995239258,0,
 50736,-0.1396484375,-0.960205078125,-0.1083984375,-0.24390244483947754,0.7012194991111755,0.6402438879013062,-4.199999809265137,-26.850000381469727,30.0,41.0317497253418,0,
 50746,-0.1376953125,-0.96142578125,-0.110595703125,-0.6097561120986938,0.4878048896789551,-0.030487805604934692,-5.099999904632568,-27.0,29.700000762939453,40.88798141479492,0,
 50756,-0.13525390625,-0.962158203125,-0.10986328125,-0.27439025044441223,0.4573170840740204,0.396341472864151,-5.400000095367432,-25.5,29.399999618530273,41.07966995239258,0,
 50766,-0.1435546875,-0.966064453125,-0.11279296875,-0.6097561120986938,0.3658536672592163,0.3658536672592163,-5.25,-26.399999618530273,29.549999237060547,40.79213333129883,0,
 50776,-0.140869140625,-0.96728515625,-0.114013671875,-0.12195122241973877,0.4268292784690857,0.6707317233085632,-5.25,-26.399999618530273,29.549999237060547,41.0317497253418,0,
 50786,-0.135009765625,-0.9638671875,-0.1083984375,-0.4268292784690857,0.4573170840740204,0.5182926654815674,-5.099999904632568,-26.700000762939453,28.950000762939453,40.88798141479492,0,
 50796,-0.13525390625,-0.963623046875,-0.108154296875,-0.5487805008888245,0.4878048896789551,0.18292683362960815,-5.849999904632568,-26.700000762939453,30.899999618530273,41.2713623046875,0,
 50806,-0.13916015625,-0.96630859375,-0.113525390625,-0.6097561120986938,0.3658536672592163,0.060975611209869385,-5.099999904632568,-27.0,31.200000762939453,41.0317497253418,0,
 50816,-0.136474609375,-0.9638671875,-0.109375,-0.3353658616542816,0.15243902802467346,0.030487805604934692,-5.099999904632568,-27.0,31.200000762939453,40.88798141479492,0,
 50826,-0.141845703125,-0.968994140625,-0.114501953125,-0.4573170840740204,0.3658536672592163,-0.21341463923454285,-5.25,-26.850000381469727,29.549999237060547,41.07966995239258,0,
 50836,-0.138916015625,-0.969482421875,-0.11181640625,-0.4878048896789551,0.6402438879013062,0.3048780560493469,-4.199999809265137,-27.299999237060547,30.299999237060547,41.07966995239258,0,
 50846,-0.13671875,-0.961669921875,-0.10986328125,-0.4573170840740204,0.3048780560493469,0.396341472864151,-4.949999809265137,-26.850000381469727,28.5,40.88798141479492,0,
 50856,-0.13427734375,-0.96630859375,-0.10986328125,-0.5792682766914368,0.5792682766914368,0.12195122241973877,-4.949999809265137,-26.850000381469727,28.5,41.0317497253418,0,
 50867,-0.14453125,-0.965576171875,-0.111083984375,-0.5487805008888245,0.3353658616542816,0.5487805008888245,-4.949999809265137,-26.850000381469727,28.5,40.9359016418457,0,
 50877,-0.13720703125,-0.96630859375,-0.111572265625,-0.5792682766914368,0.396341472864151,0.3658536672592163,-3.1500000953674316,-26.700000762939453,28.200000762939453,41.0317497253418,0,
 50887,-0.13916015625,-0.965087890625,-0.11279296875,-0.27439025044441223,0.4878048896789551,0.18292683362960815,-4.199999809265137,-28.049999237060547,30.899999618530273,40.88798141479492,0,
 50897,-0.134033203125,-0.969970703125,-0.113037109375,-0.3353658616542816,0.4878048896789551,0.4878048896789551,-4.199999809265137,-28.049999237060547,31.049999237060547,40.74421310424805,0,
 50907,-0.1328125,-0.959228515625,-0.10986328125,-0.3658536672592163,0.27439025044441223,0.5487805008888245,-4.199999809265137,-28.049999237060547,31.049999237060547,40.9359016418457,0,
 50917,-0.141357421875,-0.9638671875,-0.111083984375,-0.24390244483947754,0.24390244483947754,0.09146341681480408,-3.299999952316284,-28.5,30.299999237060547,40.9359016418457,0,
 50927,-0.1357421875,-0.962890625,-0.1162109375,-0.7317073345184326,0.396341472864151,0.15243902802467346,-5.699999809265137,-27.600000381469727,30.0,41.07966995239258,0,
 50937,-0.139404296875,-0.9619140625,-0.109130859375,-0.4878048896789551,0.5487805008888245,-0.030487805604934692,-5.699999809265137,-27.600000381469727,29.549999237060547,41.0317497253418,0,
 50947,-0.138671875,-0.961181640625,-0.111083984375,-0.4573170840740204,0.3353658616542816,0.3048780560493469,-5.699999809265137,-27.600000381469727,29.549999237060547,40.88798141479492,0,
 50957,-0.131103515625,-0.966064453125,-0.1123046875,-0.4268292784690857,0.4573170840740204,0.18292683362960815,-5.099999904632568,-27.0,31.200000762939453,40.74421310424805,0,
 50967,-0.132568359375,-0.966552734375,-0.10986328125,-0.396341472864151,0.4268292784690857,0.3048780560493469,-5.25,-27.600000381469727,29.549999237060547,41.127593994140625,0,
 50977,-0.132568359375,-0.964111328125,-0.10986328125,-0.7012194991111755,0.4878048896789551,0.6097561120986938,-5.25,-27.299999237060547,26.25,41.127593994140625,0,
 50987,-0.133544921875,-0.9697265625,-0.109375,-0.5182926654815674,0.4268292784690857,0.5182926654815674,-5.25,-27.299999237060547,26.25,41.0317497253418,0,
 50997,-0.138916015625,-0.963134765625,-0.119140625,-0.7621951103210449,0.3353658616542816,0.4573170840740204,-5.400000095367432,-26.700000762939453,30.149999618530273,41.127593994140625,0,
 51017,-0.141357421875,-0.96875,-0.114990234375,-0.3658536672592163,0.27439025044441223,0.24390244483947754,-3.9000000953674316,-27.899999618530273,30.450000762939453,41.0317497253418,0,
 51027,-0.137451171875,-0.96484375,-0.110107421875,-0.792682945728302,0.5487805008888245,0.4268292784690857,-3.9000000953674316,-27.899999618530273,30.450000762939453,40.9359016418457,0,
 51037,-0.133544921875,-0.96533203125,-0.108642578125,-0.5182926654815674,0.6402438879013062,0.18292683362960815,-5.25,-27.299999237060547,30.0,40.9359016418457,0,
 51047,-0.13818359375,-0.965576171875,-0.106689453125,-0.5792682766914368,0.4268292784690857,0.396341472864151,-3.9000000953674316,-26.25,30.450000762939453,41.2713623046875,0,
 51057,-0.1396484375,-0.96435546875,-0.117431640625,-0.3353658616542816,0.6402438879013062,0.27439025044441223,-4.949999809265137,-26.850000381469727,29.25,40.9359016418457,0,
 51067,-0.1328125,-0.961669921875,-0.1123046875,-0.3048780560493469,0.24390244483947754,0.24390244483947754,-4.949999809265137,-26.850000381469727,29.25,41.0317497253418,0,
 51077,-0.141357421875,-0.96435546875,-0.1162109375,-0.5487805008888245,0.3048780560493469,0.27439025044441223,-6.75,-26.100000381469727,28.799999237060547,41.22344207763672,0,
 51087,-0.13623046875,-0.964111328125,-0.11767578125,-0.6402438879013062,0.3353658616542816,0.3658536672592163,-4.349999904632568,-26.25,31.649999618530273,41.0317497253418,0,
 51097,-0.139892578125,-0.96923828125,-0.107666015625,-0.27439025044441223,0.4268292784690857,0.24390244483947754,-4.5,-27.299999237060547,29.549999237060547,41.127593994140625,0,
 51107,-0.13818359375,-0.964111328125,-0.110595703125,-0.5487805008888245,0.5792682766914368,0.7621951103210449,-4.5,-27.299999237060547,29.549999237060547,40.88798141479492,0,
 51117,-0.1298828125,-0.9638671875,-0.108642578125,-0.3048780560493469,0.3048780560493469,0.4878048896789551,-4.349999904632568,-25.799999237060547,28.950000762939453,41.0317497253418,0,
 51127,-0.135498046875,-0.964111328125,-0.115478515625,-0.21341463923454285,0.27439025044441223,0.8536585569381714,-4.949999809265137,-28.5,29.549999237060547,41.0317497253418,0,
 51137,-0.13671875,-0.96875,-0.109375,-0.4573170840740204,0.3353658616542816,0.5487805008888245,-3.9000000953674316,-28.200000762939453,28.950000762939453,40.9359016418457,0,
 51147,-0.13720703125,-0.96484375,-0.11181640625,-0.6707317233085632,0.6402438879013062,0.15243902802467346,-3.9000000953674316,-28.200000762939453,28.950000762939453,41.0317497253418,0,
 51157,-0.136962890625,-0.96240234375,-0.107421875,-0.5487805008888245,0.3048780560493469,0.3048780560493469,-3.9000000953674316,-28.200000762939453,28.950000762939453,40.74421310424805,0,
 51167,-0.125732421875,-0.96044921875,-0.111083984375,-0.27439025044441223,0.4268292784690857,0.5487805008888245,-5.400000095367432,-26.700000762939453,29.700000762939453,41.127593994140625,0,
 51177,-0.134033203125,-0.96533203125,-0.113037109375,-0.8536585569381714,0.5792682766914368,0.24390244483947754,-3.9000000953674316,-27.899999618530273,28.950000762939453,40.79213333129883,0,
 51187,-0.137451171875,-0.96142578125,-0.115234375,-0.7012194991111755,0.09146341681480408,0.060975611209869385,-3.9000000953674316,-27.899999618530273,28.950000762939453,40.9359016418457,0,
 51197,-0.13720703125,-0.96142578125,-0.1064453125,-0.18292683362960815,0.5182926654815674,0.4878048896789551,-3.9000000953674316,-27.899999618530273,28.950000762939453,41.07966995239258,0,
 51207,-0.138427734375,-0.964599609375,-0.11328125,-0.6097561120986938,0.27439025044441223,0.27439025044441223,-4.199999809265137,-25.350000381469727,31.5,40.79213333129883,0,
 51217,-0.1318359375,-0.963623046875,-0.1162109375,-0.8231707215309143,0.4878048896789551,0.27439025044441223,-4.5,-26.100000381469727,30.299999237060547,41.0317497253418,0,
 51227,-0.14013671875,-0.966064453125,-0.109619140625,-0.3658536672592163,0.4268292784690857,0.3048780560493469,-4.5,-26.100000381469727,30.299999237060547,40.9359016418457,0,
 51237,-0.134521484375,-0.962646484375,-0.10791015625,-0.6402438879013062,0.396341472864151,0.27439025044441223,-4.5,-26.100000381469727,30.299999237060547,41.22344207763672,0,
 51247,-0.142333984375,-0.96142578125,-0.11181640625,-0.4878048896789551,0.4878048896789551,0.21341463923454285,-5.25,-28.049999237060547,30.299999237060547,41.127593994140625,0,
 51257,-0.136962890625,-0.966064453125,-0.11767578125,-0.3658536672592163,0.3353658616542816,0.18292683362960815,-5.400000095367432,-26.700000762939453,28.649999618530273,41.0317497253418,0,
 51267,-0.1357421875,-0.963623046875,-0.10498046875,-0.6402438879013062,0.396341472864151,0.12195122241973877,-5.400000095367432,-26.700000762939453,29.700000762939453,41.0317497253418,0,
 51277,-0.136474609375,-0.96142578125,-0.116943359375,-0.4878048896789551,0.18292683362960815,0.27439025044441223,-5.400000095367432,-26.700000762939453,29.700000762939453,41.127593994140625,0,
 51287,-0.13623046875,-0.9658203125,-0.10595703125,-0.6707317233085632,0.4878048896789551,0.6402438879013062,-2.549999952316284,-27.600000381469727,28.049999237060547,41.07966995239258,0,
 51297,-0.140625,-0.967041015625,-0.11181640625,-0.8536585569381714,0.396341472864151,0.3048780560493469,-3.75,-27.600000381469727,31.049999237060547,41.2713623046875,0,
 51307,-0.135498046875,-0.96337890625,-0.111083984375,-0.27439025044441223,0.18292683362960815,0.5792682766914368,-3.75,-27.299999237060547,31.5,40.9359016418457,0,
 51317,-0.13720703125,-0.961669921875,-0.109130859375,-0.24390244483947754,0.4268292784690857,0.396341472864151,-3.75,-27.299999237060547,31.5,41.0317497253418,0,
 51327,-0.139404296875,-0.9638671875,-0.110107421875,-0.5487805008888245,0.3658536672592163,0.396341472864151,-5.099999904632568,-27.0,31.200000762939453,41.127593994140625,0,
 51337,-0.138916015625,-0.959228515625,-0.10986328125,-0.5792682766914368,0.7012194991111755,0.396341472864151,-3.75,-27.299999237060547,30.75,40.88798141479492,0,
 51347,-0.137451171875,-0.966796875,-0.109619140625,-0.18292683362960815,0.7621951103210449,0.3658536672592163,-3.75,-26.100000381469727,30.75,41.127593994140625,0,
 51357,-0.134033203125,-0.967041015625,-0.109619140625,-0.4573170840740204,0.4878048896789551,0.18292683362960815,-3.75,-26.100000381469727,30.75,40.88798141479492,0,
 51367,-0.13427734375,-0.96142578125,-0.10791015625,-0.5792682766914368,0.3048780560493469,0.4878048896789551,-5.25,-27.299999237060547,30.75,40.79213333129883,0,
 51377,-0.134521484375,-0.96484375,-0.10888671875,-0.5487805008888245,0.3353658616542816,0.3658536672592163,-4.349999904632568,-27.899999618530273,30.899999618530273,40.9359016418457,0,
 51387,-0.1357421875,-0.972412109375,-0.107177734375,-0.5487805008888245,0.3658536672592163,0.060975611209869385,-4.349999904632568,-24.75,28.649999618530273,40.9359016418457,0,
 51397,-0.134521484375,-0.96533203125,-0.113037109375,-0.4878048896789551,0.15243902802467346,0.27439025044441223,-4.349999904632568,-24.75,28.649999618530273,40.88798141479492,0,
 51407,-0.141845703125,-0.96533203125,-0.110595703125,-0.3353658616542816,0.27439025044441223,0.21341463923454285,-4.199999809265137,-27.299999237060547,30.75,41.0317497253418,0,
 51417,-0.132080078125,-0.9677734375,-0.12109375,-0.3048780560493469,0.24390244483947754,0.3658536672592163,-4.199999809265137,-27.600000381469727,30.0,41.127593994140625,0,
 51427,-0.137451171875,-0.966552734375,-0.111572265625,-0.4878048896789551,0.4268292784690857,0.18292683362960815,-4.949999809265137,-28.049999237060547,30.299999237060547,40.9359016418457,0,
 51437,-0.14111328125,-0.965576171875,-0.1142578125,-0.4878048896789551,0.3658536672592163,0.3048780560493469,-4.949999809265137,-28.049999237060547,30.299999237060547,41.127593994140625,0,
 51447,-0.1376953125,-0.9638671875,-0.11328125,-0.21341463923454285,0.6097561120986938,0.4878048896789551,-7.050000190734863,-27.0,31.200000762939453,40.79213333129883,0,
 51457,-0.134765625,-0.971435546875,-0.109375,-0.3048780560493469,0.15243902802467346,0.5487805008888245,-4.949999809265137,-28.5,28.799999237060547,41.127593994140625,0,
 51467,-0.13330078125,-0.96142578125,-0.116455078125,-0.4268292784690857,0.3353658616542816,0.4573170840740204,-5.400000095367432,-27.0,30.450000762939453,40.9359016418457,0,
 51477,-0.13232421875,-0.9619140625,-0.1142578125,-0.21341463923454285,0.5487805008888245,0.5792682766914368,-5.400000095367432,-27.0,30.450000762939453,40.9359016418457,0,
 51487,-0.138427734375,-0.961669921875,-0.11767578125,-0.21341463923454285,0.4878048896789551,0.4573170840740204,-5.400000095367432,-27.0,30.450000762939453,41.07966995239258,0,
 51497,-0.138916015625,-0.96337890625,-0.115234375,-0.7012194991111755,0.27439025044441223,0.3353658616542816,-4.349999904632568,-27.450000762939453,28.950000762939453,40.74421310424805,0,
 51507,-0.139404296875,-0.96337890625,-0.1162109375,-0.6097561120986938,0.396341472864151,0.3353658616542816,-3.1500000953674316,-27.899999618530273,31.200000762939453,40.9359016418457,0,
 51517,-0.13330078125,-0.965576171875,-0.112060546875,-0.21341463923454285,0.4268292784690857,0.4268292784690857,-3.1500000953674316,-27.899999618530273,30.450000762939453,40.88798141479492,0,
 51527,-0.139892578125,-0.962890625,-0.112060546875,-0.4878048896789551,0.4268292784690857,0.5487805008888245,-3.1500000953674316,-27.899999618530273,30.450000762939453,40.9359016418457,0,
 51537,-0.137451171875,-0.962890625,-0.1103515625,-0.7621951103210449,0.27439025044441223,0.5487805008888245,-4.5,-27.299999237060547,30.75,41.0317497253418,0,
 51547,-0.138427734375,-0.965087890625,-0.109130859375,-0.3353658616542816,0.5182926654815674,0.4573170840740204,-5.25,-26.399999618530273,29.25,40.79213333129883,0,
 51557,-0.142578125,-0.962890625,-0.114501953125,-0.4573170840740204,0.18292683362960815,0.09146341681480408,-5.25,-25.649999618530273,30.299999237060547,41.0317497253418,0,
 51567,-0.138427734375,-0.9619140625,-0.113037109375,-0.5182926654815674,0.3658536672592163,0.3658536672592163,-5.25,-25.649999618530273,30.299999237060547,40.88798141479492,0,
 51577,-0.13916015625,-0.964111328125,-0.110107421875,-0.24390244483947754,0.3658536672592163,0.09146341681480408,-5.400000095367432,-26.25,30.899999618530273,41.127593994140625,0,
 51587,-0.138916015625,-0.965576171875,-0.11181640625,-0.792682945728302,0.396341472864151,0.24390244483947754,-2.8499999046325684,-27.899999618530273,30.450000762939453,41.0317497253418,0,
 51597,-0.1376953125,-0.962646484375,-0.110595703125,-0.4268292784690857,0.09146341681480408,0.24390244483947754,-2.8499999046325684,-27.899999618530273,27.899999618530273,40.88798141479492,0,
 51607,-0.1337890625,-0.967041015625,-0.112060546875,-0.4878048896789551,0.3048780560493469,0.21341463923454285,-2.8499999046325684,-27.899999618530273,27.899999618530273,40.9359016418457,0,
 51617,-0.140625,-0.963623046875,-0.116943359375,-0.4573170840740204,0.3658536672592163,0.21341463923454285,-4.650000095367432,-25.799999237060547,31.200000762939453,41.0317497253418,0,
 51627,-0.14208984375,-0.965087890625,-0.109619140625,-0.7012194991111755,0.4573170840740204,0.7012194991111755,-5.099999904632568,-27.899999618530273,31.649999618530273,41.0317497253418,0,
 51638,-0.138427734375,-0.966064453125,-0.11181640625,-0.5182926654815674,0.4268292784690857,0.24390244483947754,-4.650000095367432,-27.0,29.700000762939453,40.9359016418457,0,
 51648,-0.138427734375,-0.95751953125,-0.112060546875,-0.5487805008888245,0.5182926654815674,0.5792682766914368,-4.650000095367432,-27.0,29.700000762939453,40.74421310424805,0,
 51658,-0.13623046875,-0.96337890625,-0.11083984375,-0.5182926654815674,0.3353658616542816,0.3658536672592163,-4.949999809265137,-26.850000381469727,30.75,40.9359016418457,0,
 51668,-0.14013671875,-0.9619140625,-0.11181640625,-0.5182926654815674,0.4878048896789551,0.5182926654815674,-5.099999904632568,-27.899999618530273,30.899999618530273,41.31928634643555,0,
 51678,-0.13623046875,-0.969970703125,-0.108642578125,-0.5792682766914368,0.5487805008888245,0.6097561120986938,-3.299999952316284,-26.399999618530273,30.75,41.0317497253418,0,
 51688,-0.136474609375,-0.961669921875,-0.115966796875,-0.3353658616542816,0.24390244483947754,0.4268292784690857,-3.299999952316284,-26.399999618530273,30.75,40.79213333129883,0,
 51698,-0.1318359375,-0.97216796875,-0.105712890625,-0.7621951103210449,0.5487805008888245,0.21341463923454285,-4.949999809265137,-29.700000762939453,29.25,40.79213333129883,0,
 51708,-0.13671875,-0.96484375,-0.11328125,-0.4573170840740204,0.5792682766914368,0.3353658616542816,-3.9000000953674316,-26.25,30.450000762939453,40.88798141479492,0,
 51718,-0.139404296875,-0.964111328125,-0.111572265625,-0.6707317233085632,0.4573170840740204,0.24390244483947754,-3.299999952316284,-26.100000381469727,29.549999237060547,41.0317497253418,0,
 51728,-0.13330078125,-0.960693359375,-0.112548828125,-0.5792682766914368,0.396341472864151,0.4268292784690857,-3.299999952316284,-26.100000381469727,29.549999237060547,41.0317497253418,0,
 51738,-0.140380859375,-0.962158203125,-0.11181640625,-0.6707317233085632,0.5182926654815674,0.4268292784690857,-4.5,-27.299999237060547,29.25,41.22344207763672,0,
 51748,-0.137451171875,-0.965576171875,-0.10595703125,-0.4573170840740204,0.396341472864151,0.396341472864151,-5.099999904632568,-27.0,29.399999618530273,40.60044479370117,0,
 51758,-0.135498046875,-0.961181640625,-0.11376953125,-0.5792682766914368,0.396341472864151,0.3353658616542816,-4.949999809265137,-27.299999237060547,29.25,41.22344207763672,0,
 51768,-0.13623046875,-0.964599609375,-0.10595703125,-0.4268292784690857,0.3353658616542816,0.27439025044441223,-4.949999809265137,-27.299999237060547,29.25,40.9359016418457,0,
 51778,-0.140380859375,-0.9658203125,-0.107177734375,-0.4573170840740204,0.4573170840740204,0.24390244483947754,-3.75,-28.5,31.049999237060547,41.0317497253418,0,
 51788,-0.136474609375,-0.96630859375,-0.109619140625,-0.24390244483947754,0.6707317233085632,0.5182926654815674,-4.949999809265137,-26.399999618530273,31.049999237060547,41.0317497253418,0,
 51798,-0.13916015625,-0.965576171875,-0.10986328125,-0.5182926654815674,0.3353658616542816,0.15243902802467346,-3.75,-26.399999618530273,29.25,40.60044479370117,0,
 51808,-0.1376953125,-0.96044921875,-0.112548828125,-0.396341472864151,0.060975611209869385,0.3048780560493469,-3.75,-26.399999618530273,30.299999237060547,41.07966995239258,0,
 51818,-0.140625,-0.9609375,-0.11083984375,-0.24390244483947754,0.5792682766914368,0.24390244483947754,-3.75,-26.399999618530273,30.299999237060547,41.0317497253418,0,
 51828,-0.142578125,-0.965576171875,-0.110595703125,-0.4268292784690857,0.4573170840740204,0.3048780560493469,-5.099999904632568,-27.0,30.899999618530273,41.127593994140625,0,
 51838,-0.14208984375,-0.963623046875,-0.11181640625,-0.21341463923454285,0.3353658616542816,0.18292683362960815,-4.5,-26.399999618530273,29.25,41.07966995239258,0,
 51848,-0.135986328125,-0.964111328125,-0.106689453125,-0.15243902802467346,0.5182926654815674,0.4573170840740204,-4.5,-26.399999618530273,29.25,40.79213333129883,0,
 51858,-0.135009765625,-0.9658203125,-0.111572265625,-0.4878048896789551,0.27439025044441223,0.18292683362960815,-4.5,-26.399999618530273,29.25,41.0317497253418,0,
 51868,-0.13720703125,-0.965576171875,-0.1103515625,-0.4878048896789551,0.3048780560493469,0.24390244483947754,-4.949999809265137,-27.299999237060547,29.25,41.07966995239258,0,
 51878,-0.134765625,-0.966552734375,-0.112548828125,-0.3353658616542816,0.21341463923454285,0.24390244483947754,-4.199999809265137,-27.600000381469727,29.700000762939453,41.07966995239258,0,
 51888,-0.136962890625,-0.967041015625,-0.1162109375,-0.396341472864151,0.4573170840740204,0.3048780560493469,-4.199999809265137,-27.600000381469727,30.75,40.79213333129883,0,
 51898,-0.134521484375,-0.966796875,-0.11181640625,-0.7317073345184326,0.5182926654815674,0.3048780560493469,-4.199999809265137,-27.600000381469727,30.75,41.0317497253418,0,
 51908,-0.138427734375,-0.964599609375,-0.11279296875,-0.7621951103210449,0.21341463923454285,0.15243902802467346,-5.25,-27.299999237060547,31.5,41.0317497253418,0,
 51918,-0.137939453125,-0.963134765625,-0.11474609375,-0.3353658616542816,0.5487805008888245,0.4878048896789551,-4.199999809265137,-28.200000762939453,29.700000762939453,41.0317497253418,0,
 51928,-0.141357421875,-0.96484375,-0.10791015625,-0.6402438879013062,0.4573170840740204,0.24390244483947754,-4.199999809265137,-26.850000381469727,29.25,41.127593994140625,0,
 51938,-0.1357421875,-0.967529296875,-0.1123046875,-0.396341472864151,0.21341463923454285,0.6097561120986938,-4.199999809265137,-26.850000381469727,29.25,40.74421310424805,0,
 51948,-0.136474609375,-0.964599609375,-0.10791015625,-0.18292683362960815,0.5792682766914368,0.4268292784690857,-4.650000095367432,-27.450000762939453,30.899999618530273,41.0317497253418,0,
 51958,-0.13720703125,-0.969970703125,-0.1162109375,-0.5487805008888245,0.4268292784690857,0.24390244483947754,-5.699999809265137,-28.049999237060547,29.549999237060547,41.0317497253418,0,
 51968,-0.1396484375,-0.96435546875,-0.107421875,-0.7621951103210449,0.6402438879013062,0.396341472864151,-5.699999809265137,-26.100000381469727,30.299999237060547,40.9359016418457,0,
 51978,-0.136474609375,-0.96533203125,-0.11572265625,-0.396341472864151,0.3353658616542816,0.24390244483947754,-5.699999809265137,-26.100000381469727,30.299999237060547,41.0317497253418,0,
 51988,-0.13427734375,-0.96044921875,-0.108154296875,-0.4878048896789551,0.3353658616542816,0.21341463923454285,-4.949999809265137,-26.850000381469727,29.25,40.79213333129883,0,
 51998,-0.132568359375,-0.962890625,-0.116455078125,-0.15243902802467346,0.5182926654815674,0.18292683362960815,-4.5,-26.850000381469727,30.299999237060547,40.9359016418457,0,
 52008,-0.1337890625,-0.96337890625,-0.11083984375,-0.4268292784690857,0.4573170840740204,0.12195122241973877,-4.949999809265137,-27.600000381469727,28.799999237060547,40.79213333129883,0,
 52018,-0.133056640625,-0.96630859375,-0.111328125,-0.4573170840740204,0.3658536672592163,0.5182926654815674,-4.949999809265137,-27.600000381469727,28.799999237060547,41.127593994140625,0,
 52028,-0.134765625,-0.967041015625,-0.111083984375,-0.15243902802467346,0.21341463923454285,0.09146341681480408,-4.5,-27.299999237060547,30.299999237060547,41.0317497253418,0,
 52038,-0.1376953125,-0.968994140625,-0.107421875,-0.3658536672592163,0.24390244483947754,0.060975611209869385,-4.349999904632568,-25.049999237060547,28.200000762939453,40.74421310424805,0,
 52048,-0.136474609375,-0.968505859375,-0.1123046875,-0.5182926654815674,0.4878048896789551,0.15243902802467346,-4.650000095367432,-26.25,29.700000762939453,41.127593994140625,0,
 52058,-0.138671875,-0.96533203125,-0.114013671875,-0.6402438879013062,0.4573170840740204,0.4268292784690857,-4.650000095367432,-26.25,29.700000762939453,40.88798141479492,0,
 52068,-0.13427734375,-0.964599609375,-0.112548828125,-0.4878048896789551,0.15243902802467346,0.24390244483947754,-3.9000000953674316,-25.049999237060547,30.149999618530273,40.88798141479492,0,
 52078,-0.137451171875,-0.96337890625,-0.11181640625,-0.396341472864151,0.3048780560493469,0.21341463923454285,-2.0999999046325684,-27.0,30.450000762939453,41.07966995239258,0,
 52088,-0.13671875,-0.965576171875,-0.113525390625,-0.792682945728302,0.3048780560493469,0.27439025044441223,-3.5999999046325684,-27.450000762939453,31.649999618530273,40.88798141479492,0,
 52098,-0.1357421875,-0.960205078125,-0.110595703125,-0.7317073345184326,0.4878048896789551,0.396341472864151,-3.5999999046325684,-27.450000762939453,31.649999618530273,40.9359016418457,0,
 52108,-0.13427734375,-0.964599609375,-0.10888671875,-0.5487805008888245,0.4878048896789551,0.6402438879013062,-4.199999809265137,-30.0,28.049999237060547,41.0317497253418,0,
 52118,-0.14208984375,-0.966796875,-0.112548828125,-0.3658536672592163,0.3353658616542816,0.4878048896789551,-5.099999904632568,-27.450000762939453,30.450000762939453,41.0317497253418,0,
 52128,-0.136962890625,-0.966552734375,-0.109619140625,-0.5792682766914368,0.3658536672592163,0.5182926654815674,-4.5,-26.850000381469727,29.25,40.79213333129883,0,
 52138,-0.1376953125,-0.959716796875,-0.112060546875,-0.18292683362960815,0.5792682766914368,0.5487805008888245,-4.5,-26.850000381469727,31.5,41.0317497253418,0,
 52148,-0.137451171875,-0.964599609375,-0.10888671875,-0.12195122241973877,0.5182926654815674,0.12195122241973877,-5.699999809265137,-26.100000381469727,31.5,41.0317497253418,0,
 52158,-0.138427734375,-0.967529296875,-0.112548828125,-0.27439025044441223,0.4268292784690857,0.09146341681480408,-3.5999999046325684,-25.799999237060547,30.450000762939453,40.9359016418457,0,
 52168,-0.1318359375,-0.96728515625,-0.11181640625,-0.4573170840740204,0.3048780560493469,-0.12195122241973877,-6.0,-27.600000381469727,29.700000762939453,41.07966995239258,0,
 52178,-0.137451171875,-0.966064453125,-0.112548828125,-0.3658536672592163,0.396341472864151,0.27439025044441223,-6.0,-27.600000381469727,30.0,40.9359016418457,0,
 52188,-0.138671875,-0.963134765625,-0.1142578125,-0.7317073345184326,0.24390244483947754,0.4573170840740204,-6.0,-27.600000381469727,30.0,40.74421310424805,0,
 52198,-0.13623046875,-0.961181640625,-0.11181640625,-0.3353658616542816,0.5182926654815674,0.4573170840740204,-5.699999809265137,-25.350000381469727,31.5,41.07966995239258,0,
 52208,-0.137451171875,-0.966064453125,-0.112060546875,-0.4878048896789551,0.4573170840740204,0.4878048896789551,-4.650000095367432,-28.049999237060547,28.049999237060547,41.0317497253418,0,
 52218,-0.130615234375,-0.967529296875,-0.113525390625,-0.8536585569381714,0.7012194991111755,0.7012194991111755,-4.650000095367432,-27.450000762939453,30.450000762939453,40.79213333129883,0,
 52228,-0.131591796875,-0.960205078125,-0.10888671875,-0.4573170840740204,0.7317073345184326,1.0670732259750366,-4.650000095367432,-27.450000762939453,30.450000762939453,41.127593994140625,0,
 52238,-0.14013671875,-0.960693359375,-0.114501953125,-0.9756097793579102,1.097561001777649,1.920731782913208,-5.849999904632568,-26.700000762939453,30.149999618530273,40.74421310424805,0,
 52248,-0.14013671875,-0.96435546875,-0.114501953125,-1.2804877758026123,1.6158536672592163,2.4390244483947754,-4.199999809265137,-27.450000762939453,28.950000762939453,40.9359016418457,0,
 52258,-0.134521484375,-0.958251953125,-0.114013671875,-1.4939024448394775,1.7682926654815674,3.170731782913208,-4.199999809265137,-26.399999618530273,29.25,41.127593994140625,0,
 52268,-0.134521484375,-0.947998046875,-0.117431640625,-1.5243902206420898,1.8597561120986938,3.5060975551605225,-4.199999809265137,-26.399999618530273,29.25,41.127593994140625,0,
 52278,-0.147705078125,-0.9892578125,-0.10791015625,5.0,-0.12195122241973877,2.1341464519500732,-6.449999809265137,-24.450000762939453,30.75,41.07966995239258,0,
 52288,-0.141357421875,-0.96337890625,-0.109619140625,2.5,2.1646342277526855,3.8719513416290283,-4.199999809265137,-27.899999618530273,29.399999618530273,40.9359016418457,0,
 52298,-0.142578125,-0.966552734375,-0.1083984375,1.1585365533828735,2.103658676147461,4.146341323852539,-4.199999809265137,-26.100000381469727,30.299999237060547,41.0317497253418,0,
 52309,-0.142822265625,-0.92333984375,-0.123291015625,-0.9756097793579102,2.195122003555298,5.243902683258057,-4.199999809265137,-26.100000381469727,30.299999237060547,41.0317497253418,0,
 52319,-0.134521484375,-0.94580078125,-0.106201171875,1.0060975551605225,2.012195110321045,4.817073345184326,-4.650000095367432,-26.700000762939453,30.149999618530273,40.9359016418457,0,
 52329,-0.155517578125,-0.975341796875,-0.11572265625,2.0731706619262695,2.1341464519500732,5.213414669036865,-5.25,-28.049999237060547,31.799999237060547,40.9359016418457,0,
 52339,-0.154052734375,-0.981689453125,-0.09716796875,0.060975611209869385,0.9146341681480408,0.9146341681480408,-3.1500000953674316,-26.25,31.200000762939453,40.9359016418457,0,
 52349,-0.148681640625,-0.9775390625,-0.107666015625,-0.4268292784690857,0.6402438879013062,-0.24390244483947754,-3.1500000953674316,-26.25,31.200000762939453,41.127593994140625,0,
 52359,-0.140380859375,-0.94580078125,-0.116455078125,0.0,0.5182926654815674,0.6707317233085632,-4.949999809265137,-26.850000381469727,33.0,41.0317497253418,0,
 52369,-0.13916015625,-0.969970703125,-0.109375,-1.1585365533828735,0.5792682766914368,0.9756097793579102,-5.25,-27.299999237060547,31.049999237060547,41.127593994140625,0,
 52379,-0.142822265625,-0.958251953125,-0.109130859375,-1.3414634466171265,0.4878048896789551,0.7621951103210449,-4.5,-26.399999618530273,31.5,40.88798141479492,0,
 52389,-0.15087890625,-0.967041015625,-0.101806640625,-2.0426828861236572,0.5487805008888245,0.09146341681480408,-4.5,-26.399999618530273,31.5,40.9359016418457,0,
 52399,-0.13623046875,-0.96728515625,-0.10693359375,-2.7439024448394775,0.8841463327407837,0.5487805008888245,-5.400000095367432,-26.700000762939453,31.649999618530273,41.2713623046875,0,
 52409,-0.145751953125,-0.953369140625,-0.11865234375,-1.3414634466171265,0.7621951103210449,1.9512195587158203,-4.650000095367432,-26.700000762939453,30.450000762939453,41.0317497253418,0,
 52419,-0.1376953125,-0.94873046875,-0.119384765625,-0.7317073345184326,1.6158536672592163,2.804877996444702,-5.849999904632568,-26.700000762939453,30.149999618530273,40.9359016418457,0,
 52429,-0.143798828125,-0.95458984375,-0.114501953125,2.591463565826416,1.2804877758026123,1.7987805604934692,-5.849999904632568,-26.700000762939453,30.149999618530273,40.88798141479492,0,
 52439,-0.14990234375,-0.953857421875,-0.120361328125,4.542683124542236,1.737804889678955,1.7073171138763428,-6.0,-26.850000381469727,31.5,40.9359016418457,0,
 52449,-0.153564453125,-0.994384765625,-0.113525390625,2.012195110321045,2.3475611209869385,3.353658676147461,-5.849999904632568,-26.700000762939453,31.950000762939453,40.9359016418457,0,
 52459,-0.142822265625,-0.941162109375,-0.1171875,3.3841464519500732,2.0426828861236572,2.9268293380737305,-4.349999904632568,-26.700000762939453,30.899999618530273,41.0317497253418,0,
 52469,-0.148681640625,-0.97509765625,-0.095458984375,0.09146341681480408,2.591463565826416,4.2682929039001465,-4.349999904632568,-26.700000762939453,30.899999618530273,40.88798141479492,0,
 52479,-0.14697265625,-0.93408203125,-0.11572265625,3.7804877758026123,2.2560975551605225,3.1402440071105957,-7.199999809265137,-28.049999237060547,30.0,40.79213333129883,0,
 52489,-0.143798828125,-0.962646484375,-0.1103515625,2.103658676147461,2.987804889678955,5.365853786468506,-4.949999809265137,-26.100000381469727,30.299999237060547,40.9359016418457,0,
 52499,-0.140625,-1.033447265625,-0.07861328125,1.3109756708145142,4.45121955871582,7.865853786468506,-8.100000381469727,-27.0,31.950000762939453,41.0317497253418,0,
 52509,-0.1455078125,-0.84130859375,-0.148681640625,4.45121955871582,4.45121955871582,7.0731706619262695,-8.100000381469727,-27.0,30.450000762939453,41.0317497253418,0,
 52519,-0.15625,-0.96923828125,-0.103271484375,7.134146690368652,4.786585330963135,8.993902206420898,-8.100000381469727,-27.0,30.450000762939453,41.22344207763672,0,
 52529,-0.154052734375,-0.968017578125,-0.0986328125,5.030488014221191,5.792683124542236,10.030488014221191,-5.699999809265137,-24.899999618530273,30.299999237060547,41.0317497253418,0,
 52539,-0.1455078125,-0.93017578125,-0.111328125,4.847560882568359,6.310975551605225,11.829268455505371,-5.699999809265137,-26.700000762939453,31.649999618530273,41.0317497253418,0,
 52549,-0.149169921875,-0.920654296875,-0.107177734375,11.280488014221191,5.396341800689697,11.79878044128418,-5.699999809265137,-25.649999618530273,32.54999923706055,40.9359016418457,0,
 52559,-0.170166015625,-0.99560546875,-0.093505859375,11.493903160095215,7.042683124542236,15.792683601379395,-5.699999809265137,-25.649999618530273,32.54999923706055,41.07966995239258,0,
 52569,-0.157958984375,-0.96142578125,-0.0947265625,4.115853786468506,8.90243911743164,16.09756088256836,-5.699999809265137,-28.5,31.799999237060547,41.0317497253418,0,
 52579,-0.163818359375,-0.97705078125,-0.089111328125,3.628048896789551,8.262195587158203,16.615854263305664,-6.300000190734863,-26.25,31.950000762939453,41.0317497253418,0,
 52589,-0.176025390625,-0.9560546875,-0.10107421875,3.0182926654815674,7.317073345184326,15.243903160095215,-7.199999809265137,-26.100000381469727,33.0,41.127593994140625,0,
 52599,-0.177978515625,-0.9814453125,-0.09228515625,9.390244483947754,5.3353657722473145,12.957317352294922,-7.199999809265137,-26.100000381469727,33.0,40.9359016418457,0,
 52609,-0.172607421875,-0.956787109375,-0.093994140625,3.7804877758026123,6.79878044128418,12.469512939453125,-7.199999809265137,-26.850000381469727,31.799999237060547,41.0317497253418,0,
 52619,-0.1640625,-0.9541015625,-0.096435546875,7.22560977935791,5.640244007110596,10.731707572937012,-5.699999809265137,-26.850000381469727,27.299999237060547,41.0317497253418,0,
 52629,-0.177978515625,-0.97705078125,-0.08203125,5.579268455505371,5.640244007110596,11.432927131652832,-7.199999809265137,-26.850000381469727,32.54999923706055,40.79213333129883,0,
 52639,-0.1826171875,-0.9775390625,-0.092529296875,6.554878234863281,5.091463565826416,10.82317066192627,-7.199999809265137,-26.850000381469727,32.54999923706055,41.0317497253418,0,
 52649,-0.192138671875,-0.98193359375,-0.079833984375,5.396341800689697,3.8719513416290283,9.268292427062988,-8.550000190734863,-27.0,31.649999618530273,41.07966995239258,0,
 52659,-0.1787109375,-0.965576171875,-0.08544921875,2.9268293380737305,3.170731782913208,6.463414669036865,-6.449999809265137,-28.049999237060547,31.049999237060547,41.0317497253418,0,
 52669,-0.19091796875,-0.984130859375,-0.083251953125,2.9573171138763428,1.6463414430618286,4.634146213531494,-6.75,-26.100000381469727,33.0,40.9359016418457,0,
 52679,-0.183837890625,-0.970947265625,-0.0810546875,2.5,0.5792682766914368,2.317073106765747,-6.75,-26.100000381469727,33.0,40.79213333129883,0,
 52689,-0.1845703125,-0.9677734375,-0.08544921875,2.6219513416290283,-0.3353658616542816,0.6097561120986938,-7.800000190734863,-27.450000762939453,32.70000076293945,40.88798141479492,0,
 52699,-0.18505859375,-0.9658203125,-0.09375,1.8902438879013062,-1.0060975551605225,-1.5548781156539917,-7.349999904632568,-26.25,33.45000076293945,40.88798141479492,0,
 52709,-0.185302734375,-0.96728515625,-0.0849609375,2.5,-1.402438998222351,-2.0731706619262695,-8.699999809265137,-28.5,32.25,40.9359016418457,0,
 52719,-0.178466796875,-0.967529296875,-0.094482421875,2.896341562271118,-1.737804889678955,-2.77439022064209,-8.699999809265137,-28.5,32.25,40.79213333129883,0,
 52729,-0.178955078125,-0.962158203125,-0.080322265625,4.02439022064209,-1.7987805604934692,-2.896341562271118,-10.199999809265137,-27.299999237060547,32.54999923706055,40.9359016418457,0,
 52739,-0.183837890625,-0.97265625,-0.08642578125,3.7804877758026123,-2.6524391174316406,-4.146341323852539,-7.199999809265137,-26.100000381469727,31.5,40.9359016418457,0,
 52749,-0.1728515625,-0.96923828125,-0.0830078125,4.390244007110596,-3.567073345184326,-6.158536911010742,-8.399999618530273,-27.600000381469727,32.25,41.0317497253418,0,
 52759,-0.177001953125,-0.96875,-0.076904296875,4.542683124542236,-4.2682929039001465,-7.804878234863281,-8.399999618530273,-27.600000381469727,32.25,41.0317497253418,0,
 52769,-0.169189453125,-0.960693359375,-0.078125,3.5975611209869385,-5.3353657722473145,-9.115854263305664,-7.800000190734863,-26.700000762939453,32.400001525878906,41.0317497253418,0,
 52779,-0.16748046875,-0.961669921875,-0.083740234375,2.5304877758026123,-6.097560882568359,-9.29878044128418,-7.949999809265137,-26.850000381469727,33.29999923706055,40.9359016418457,0,
 52789,-0.168701171875,-0.95703125,-0.079345703125,-0.396341472864151,-7.530488014221191,-7.9268293380737305,-8.850000381469727,-27.450000762939453,31.200000762939453,41.127593994140625,0,
 52799,-0.16357421875,-0.968017578125,-0.076171875,-3.6890244483947754,-6.52439022064209,-7.439024448394775,-8.850000381469727,-27.450000762939453,31.200000762939453,41.07966995239258,0,
 52809,-0.157470703125,-0.970703125,-0.0810546875,-6.006097793579102,-7.012195110321045,-5.5182929039001465,-8.850000381469727,-27.450000762939453,31.200000762939453,41.2713623046875,0,
 52819,-0.12939453125,-0.99951171875,-0.08837890625,-7.865853786468506,-8.90243911743164,-5.365853786468506,-7.800000190734863,-24.75,31.649999618530273,40.9359016418457,0,
 52829,-0.160888671875,-1.0146484375,-0.07421875,-9.329268455505371,-10.670731544494629,-6.189024448394775,-7.800000190734863,-25.799999237060547,31.200000762939453,41.0317497253418,0,
 52839,-0.169189453125,-0.99853515625,-0.074951171875,-13.292683601379395,-11.280488014221191,-5.5182929039001465,-7.800000190734863,-25.799999237060547,33.45000076293945,41.0317497253418,0,
 52849,-0.1708984375,-0.936279296875,-0.08984375,-17.5,-8.384146690368652,-2.9573171138763428,-7.800000190734863,-25.799999237060547,33.45000076293945,40.9359016418457,0,
 52859,-0.148681640625,-0.96826171875,-0.08154296875,-23.170732498168945,-8.170731544494629,-0.3353658616542816,-6.75,-27.299999237060547,30.299999237060547,40.9359016418457,0,
 52869,-0.16943359375,-0.96875,-0.086181640625,-28.9939022064209,-8.04878044128418,0.5792682766914368,-5.400000095367432,-26.25,31.950000762939453,40.79213333129883,0,
 52879,-0.1884765625,-1.07763671875,-0.0458984375,-34.664634704589844,-9.969511985778809,-4.207317352294922,-5.400000095367432,-26.25,31.950000762939453,40.79213333129883,0,
 52889,-0.217529296875,-1.061279296875,-0.072021484375,-44.84756088256836,-10.670731544494629,-7.378048896789551,-5.400000095367432,-26.25,31.950000762939453,41.0317497253418,0,
 52899,-0.173095703125,-1.00146484375,-0.0634765625,-47.07317352294922,-7.317073345184326,-14.085366249084473,-5.400000095367432,-27.899999618530273,31.950000762939453,41.0317497253418,0,
 52909,-0.189453125,-0.996337890625,-0.07080078125,-57.621952056884766,-3.7804877758026123,-14.29878044128418,-3.75,-27.450000762939453,30.450000762939453,40.88798141479492,0,
 52919,-0.19287109375,-1.03662109375,-0.08935546875,-58.90243911743164,-1.25,-20.121952056884766,-3.75,-27.299999237060547,31.5,40.88798141479492,0,
 52929,-0.199951171875,-1.050048828125,-0.087646484375,-63.810977935791016,4.603658676147461,-24.512195587158203,-3.75,-27.299999237060547,31.5,41.0317497253418,0,
 52939,-0.1787109375,-1.0400390625,-0.09912109375,-69.42073059082031,6.95121955871582,-27.5,-2.25,-27.600000381469727,29.25,41.127593994140625,0,
 52949,-0.193115234375,-1.04541015625,-0.149169921875,-76.64634704589844,8.90243911743164,-29.45121955871582,-1.5,-26.399999618530273,30.0,40.9359016418457,0,
 52959,-0.226806640625,-1.088623046875,-0.175048828125,-80.03048706054688,9.969511985778809,-36.6158561706543,-1.649999976158142,-30.299999237060547,30.149999618530273,41.127593994140625,0,
 52969,-0.197265625,-1.116455078125,-0.142333984375,-83.99390411376953,12.439024925231934,-47.835365295410156,-1.649999976158142,-30.299999237060547,30.149999618530273,40.79213333129883,0,
 52979,-0.17236328125,-1.1708984375,-0.1396484375,-92.1036605834961,13.963415145874023,-55.57926940917969,0.75,-29.25,27.75,41.07966995239258,0,
 52989,-0.146240234375,-1.179931640625,-0.113037109375,-106.006103515625,17.225610733032227,-58.68902587890625,0.30000001192092896,-28.5,27.75,41.0317497253418,0,
 52999,-0.102783203125,-1.073974609375,-0.142578125,-124.51219940185547,17.65243911743164,-61.64634323120117,-0.15000000596046448,-29.100000381469727,26.700000762939453,41.07966995239258,0,
 53009,-0.090576171875,-1.066162109375,-0.173583984375,-135.5792694091797,14.115854263305664,-64.84756469726562,-0.15000000596046448,-29.100000381469727,26.700000762939453,40.9359016418457,0,
 53019,-0.068115234375,-1.033447265625,-0.207275390625,-143.78048706054688,12.439024925231934,-66.18902587890625,2.25,-30.450000762939453,24.299999237060547,40.60044479370117,0,
 53029,-0.009521484375,-0.9658203125,-0.203857421875,-150.0,10.243902206420898,-66.79878234863281,3.0,-31.200000762939453,21.75,41.0317497253418,0,
 53039,0.044189453125,-0.916748046875,-0.200927734375,-149.66464233398438,3.3231709003448486,-65.60975646972656,2.4000000953674316,-30.299999237060547,25.649999618530273,40.79213333129883,0,
 53050,0.096923828125,-0.9169921875,-0.1982421875,-143.9634246826172,-7.682927131652832,-65.94512176513672,2.4000000953674316,-30.299999237060547,25.649999618530273,41.127593994140625,0,
 53060,0.225830078125,-0.884521484375,-0.20068359375,-129.8780517578125,-21.43292808532715,-65.76219940185547,5.400000095367432,-33.0,24.450000762939453,41.0317497253418,0,
 53070,0.160888671875,-0.865234375,-0.056396484375,-113.87195587158203,-43.23170852661133,-68.04878234863281,4.650000095367432,-31.799999237060547,24.149999618530273,40.88798141479492,0,
 53080,0.13720703125,-0.980224609375,-0.002685546875,-92.7743911743164,-66.79878234863281,-72.31707763671875,6.300000190734863,-33.45000076293945,24.450000762939453,41.07966995239258,0,
 53090,-0.02294921875,-1.022216796875,0.050537109375,-95.48780822753906,-88.07926940917969,-76.85975646972656,6.300000190734863,-33.45000076293945,23.399999618530273,41.07966995239258,0,
 53100,0.179931640625,-0.838623046875,-0.0634765625,-95.12195587158203,-103.44512176513672,-77.86585235595703,7.800000190734863,-34.95000076293945,24.899999618530273,40.79213333129883,0,
 53110,0.017822265625,-0.83056640625,-0.171875,-81.58536529541016,-123.10975646972656,-79.75609588623047,8.399999618530273,-31.950000762939453,24.75,40.9359016418457,0,
 53120,-0.08935546875,-0.921142578125,-0.337158203125,-69.6036605834961,-134.72561645507812,-81.06707763671875,11.699999809265137,-33.150001525878906,22.649999618530273,40.79213333129883,0,
 53130,-0.195068359375,-0.85498046875,-0.39892578125,-67.34756469726562,-131.5548858642578,-74.69512176513672,11.699999809265137,-33.150001525878906,21.0,41.127593994140625,0,
 53140,-0.147216796875,-0.647216796875,-0.356201171875,-64.32926940917969,-125.76219940185547,-71.89024353027344,11.699999809265137,-33.150001525878906,21.0,41.07966995239258,0,
 53150,-0.189697265625,-0.504150390625,-0.230224609375,-37.408538818359375,-130.27439880371094,-61.82926940917969,12.300000190734863,-33.45000076293945,22.200000762939453,41.07966995239258,0,
 53160,-0.417724609375,-0.505615234375,-0.142822265625,-8.993902206420898,-136.49391174316406,-45.54878234863281,13.800000190734863,-32.25,22.200000762939453,41.0317497253418,0,
 53170,-0.32470703125,-0.4296875,-0.09326171875,12.164634704589844,-132.77439880371094,-20.426830291748047,13.800000190734863,-32.25,22.200000762939453,40.88798141479492,0,
 53180,-0.384033203125,-0.393798828125,0.058349609375,47.530487060546875,-133.78048706054688,6.25,13.800000190734863,-32.25,22.200000762939453,41.07966995239258,0,
 53190,-0.33837890625,-0.656494140625,0.067138671875,86.31097412109375,-136.09756469726562,24.60365867614746,16.350000381469727,-30.450000762939453,21.299999237060547,40.9359016418457,0,
 53200,-0.395263671875,-1.04833984375,0.0068359375,89.39024353027344,-144.4512176513672,33.17073059082031,15.75,-30.600000381469727,19.649999618530273,41.0317497253418,0,
 53210,-0.177001953125,-1.363037109375,-0.14599609375,76.9817123413086,-135.1219482421875,36.98170852661133,19.350000381469727,-26.850000381469727,18.299999237060547,41.0317497253418,0,
 53220,-0.296630859375,-1.2666015625,-0.30224609375,45.82317352294922,-132.01219177246094,24.542682647705078,19.350000381469727,-26.850000381469727,18.299999237060547,41.0317497253418,0,
 53230,-0.1220703125,-1.30419921875,-0.29443359375,26.371952056884766,-119.66463470458984,13.170731544494629,18.450000762939453,-26.25,17.700000762939453,41.127593994140625,0,
 53240,-0.04345703125,-0.9970703125,-0.19921875,15.945122718811035,-100.42683410644531,1.7682926654815674,20.100000381469727,-27.299999237060547,18.299999237060547,41.07966995239258,0,
 53250,0.06591796875,-1.1611328125,-0.370361328125,5.060975551605225,-92.89634704589844,2.5304877758026123,20.100000381469727,-25.350000381469727,17.549999237060547,41.127593994140625,0,
 53270,0.03271484375,-0.893798828125,-0.32568359375,32.560977935791016,-94.8780517578125,-1.1585365533828735,21.899999618530273,-24.75,15.899999618530273,40.9359016418457,0,
 53280,-0.135986328125,-0.72216796875,-0.229248046875,47.713417053222656,-103.2317123413086,-11.52439022064209,21.149999618530273,-25.799999237060547,15.899999618530273,41.0317497253418,0,
 53290,0.003662109375,-0.976318359375,-0.265380859375,48.10975646972656,-102.74390411376953,-5.365853786468506,21.450000762939453,-23.850000381469727,15.449999809265137,41.07966995239258,0,
 53300,-0.208740234375,-1.19189453125,-0.404052734375,16.920732498168945,-81.89024353027344,-5.97560977935791,21.450000762939453,-23.850000381469727,15.449999809265137,40.9359016418457,0,
 53310,-0.17333984375,-1.15625,-0.40185546875,-3.47560977935791,-72.40853881835938,-7.865853786468506,23.100000381469727,-22.649999618530273,13.949999809265137,40.79213333129883,0,
 53320,0.002197265625,-0.739501953125,-0.30712890625,3.2012195587158203,-71.00609588623047,-13.170731544494629,23.549999237060547,-22.049999237060547,13.5,41.07966995239258,0,
 53330,0.03369140625,-0.783447265625,-0.348388671875,35.09146499633789,-73.41463470458984,-12.195121765136719,22.049999237060547,-21.75,13.5,41.0317497253418,0,
 53340,-0.133544921875,-0.908203125,-0.21142578125,18.689023971557617,-71.73780822753906,-7.256097793579102,22.049999237060547,-21.75,13.5,41.0317497253418,0,
 53350,-0.137451171875,-0.974609375,-0.30859375,0.396341472864151,-62.68292999267578,-11.310976028442383,23.850000381469727,-21.899999618530273,11.699999809265137,40.88798141479492,0,
 53360,-0.119140625,-0.9951171875,-0.449462890625,-25.030488967895508,-52.34756088256836,-14.481707572937012,23.399999618530273,-21.899999618530273,11.399999618530273,40.60044479370117,0,
 53370,-0.1630859375,-0.934814453125,-0.5517578125,-16.158536911010742,-43.658538818359375,-15.731707572937012,24.600000381469727,-20.700000762939453,10.649999618530273,41.0317497253418,0,
 53380,-0.02685546875,-0.646484375,-0.3857421875,-0.9451219439506531,-43.780487060546875,-16.371952056884766,24.600000381469727,-20.700000762939453,10.649999618530273,41.127593994140625,0,
 53390,-0.240234375,-0.955810546875,-0.370849609375,5.4268293380737305,-40.39634323120117,-18.810976028442383,23.25,-20.549999237060547,9.300000190734863,41.0317497253418,0,
 53400,-0.286865234375,-0.869140625,-0.31884765625,12.591464042663574,-41.432926177978516,-21.463415145874023,22.5,-18.149999618530273,9.300000190734863,41.2713623046875,0,
 53410,-0.16650390625,-0.893798828125,-0.325927734375,19.725610733032227,-50.182926177978516,-25.091463088989258,24.450000762939453,-18.600000381469727,9.0,41.0317497253418,0,
 53420,-0.316650390625,-1.10693359375,-0.51123046875,8.079268455505371,-50.42683029174805,-25.121952056884766,24.450000762939453,-18.600000381469727,8.550000190734863,41.07966995239258,0,
 53430,-0.308837890625,-0.684326171875,-0.256103515625,-5.4268293380737305,-46.067073822021484,-25.823171615600586,24.75,-17.399999618530273,7.800000190734863,40.9359016418457,0,
 53440,-0.26708984375,-1.01123046875,-0.666748046875,-7.713414669036865,-44.39024353027344,-25.2439022064209,24.0,-19.799999237060547,7.5,41.0317497253418,0,
 53450,-0.3388671875,-0.822509765625,-0.574462890625,-3.9634146690368652,-40.0,-18.780488967895508,24.450000762939453,-18.899999618530273,8.25,40.79213333129883,0,
 53460,-0.378173828125,-0.793212890625,-0.57666015625,1.7073171138763428,-43.59756088256836,-15.792683601379395,24.450000762939453,-18.899999618530273,6.300000190734863,40.88798141479492,0,
 53470,-0.4375,-0.851806640625,-0.456787109375,11.158536911010742,-49.969512939453125,-14.939024925231934,24.149999618530273,-16.350000381469727,6.449999809265137,41.0317497253418,0,
 53480,-0.360107421875,-0.816162109375,-0.50537109375,-1.2195122241973877,-43.23170852661133,-11.646341323852539,24.0,-18.149999618530273,6.75,41.127593994140625,0,
 53490,-0.420166015625,-0.883544921875,-0.605712890625,0.9756097793579102,-42.835365295410156,-6.890244007110596,24.899999618530273,-17.399999618530273,6.300000190734863,41.127593994140625,0,
 53500,-0.424072265625,-0.77099609375,-0.533935546875,-0.6707317233085632,-36.09756088256836,-5.3353657722473145,24.899999618530273,-17.100000381469727,6.900000095367432,40.9359016418457,0,
 53510,-0.4228515625,-0.781982421875,-0.43701171875,8.75,-29.63414764404297,-4.329268455505371,24.899999618530273,-17.100000381469727,6.900000095367432,40.60044479370117,0,
 53520,-0.249267578125,-0.841796875,-0.523681640625,19.207317352294922,-30.518293380737305,-3.5365853309631348,24.600000381469727,-18.75,4.949999809265137,40.9359016418457,0,
 53530,-0.456298828125,-0.91796875,-0.399658203125,21.0060977935791,-33.871952056884766,-4.359755992889404,26.25,-17.700000762939453,6.300000190734863,41.0317497253418,0,
 53540,-0.394775390625,-0.92822265625,-0.577392578125,1.2804877758026123,-30.365854263305664,-7.682927131652832,26.549999237060547,-16.799999237060547,0.8999999761581421,41.0317497253418,0,
 53550,-0.26708984375,-0.82666015625,-0.712158203125,-6.402439117431641,-25.579269409179688,-7.378048896789551,26.549999237060547,-16.799999237060547,0.8999999761581421,41.07966995239258,0,
 53560,-0.458251953125,-0.890625,-0.6953125,-13.59756088256836,-21.09756088256836,-10.42682933807373,24.149999618530273,-19.200000762939453,4.199999809265137,40.74421310424805,0,
 53570,-0.4052734375,-0.6572265625,-0.656494140625,-25.64024543762207,-13.506097793579102,-10.914634704589844,25.200000762939453,-18.149999618530273,3.75,41.22344207763672,0,
 53580,-0.25634765625,-0.764404296875,-0.83740234375,-27.5,-2.682926893234253,-12.469512939453125,25.350000381469727,-16.799999237060547,4.199999809265137,40.9359016418457,0,
 53590,-0.263427734375,-0.91015625,-0.978515625,-20.18292808532715,5.457317352294922,-9.329268455505371,25.350000381469727,-16.799999237060547,4.199999809265137,40.88798141479492,0,
 53600,-0.269775390625,-0.80224609375,-0.9287109375,-19.939023971557617,17.713415145874023,-2.5,25.350000381469727,-18.0,4.199999809265137,40.88798141479492,0,
 53610,-0.16650390625,-0.62646484375,-0.80322265625,-33.90243911743164,25.64024543762207,-3.1402440071105957,26.100000381469727,-18.0,3.1500000953674316,40.79213333129883,0,
 53620,-0.230224609375,-0.8212890625,-0.841796875,-16.737804412841797,27.865854263305664,0.5792682766914368,25.5,-19.350000381469727,4.5,41.07966995239258,0,
 53630,-0.1796875,-0.86572265625,-0.928955078125,-23.871952056884766,36.55487823486328,-1.0670732259750366,25.5,-19.350000381469727,4.5,41.0317497253418,0,
 53640,-0.116455078125,-0.63427734375,-0.751708984375,-27.68292808532715,45.51829528808594,-5.152439117431641,25.950000762939453,-14.25,2.25,40.9359016418457,0,
 53650,-0.15380859375,-0.843505859375,-0.687255859375,-10.97560977935791,47.713417053222656,-3.445122003555298,25.5,-18.899999618530273,3.299999952316284,41.127593994140625,0,
 53660,-0.11328125,-0.956298828125,-0.6591796875,-13.719512939453125,49.35975646972656,-4.420732021331787,26.25,-17.399999618530273,5.25,41.07966995239258,0,
 53670,-0.015380859375,-0.8291015625,-0.509033203125,-24.329269409179688,53.567073822021484,-9.481707572937012,26.25,-17.399999618530273,5.25,41.0317497253418,0,
 53680,0.00390625,-0.881103515625,-0.44189453125,-20.2439022064209,46.310977935791016,-15.792683601379395,25.200000762939453,-19.350000381469727,5.25,40.9359016418457,0,
 53690,0.082763671875,-0.915283203125,-0.406005859375,-22.317073822021484,35.67073440551758,-22.621952056884766,24.149999618530273,-17.549999237060547,4.650000095367432,40.88798141479492,0,
 53700,0.108642578125,-0.896728515625,-0.38037109375,-32.225608825683594,12.77439022064209,-24.359756469726562,23.549999237060547,-18.600000381469727,5.25,41.0317497253418,0,
 53710,-0.011962890625,-0.72314453125,-0.460205078125,-18.658536911010742,7.713414669036865,-18.59756088256836,23.549999237060547,-18.600000381469727,5.25,40.9359016418457,0,
 53720,-0.034423828125,-0.638427734375,-0.5185546875,4.939024448394775,2.7134146690368652,-11.37195110321045,23.100000381469727,-19.200000762939453,6.449999809265137,41.07966995239258,0,
 53730,-0.0654296875,-0.76953125,-0.466552734375,16.524391174316406,0.8231707215309143,-7.957317352294922,24.899999618530273,-19.200000762939453,6.900000095367432,40.79213333129883,0,
 53740,-0.114990234375,-0.94091796875,-0.399169921875,11.25,2.3475611209869385,-9.634146690368652,22.049999237060547,-18.600000381469727,4.050000190734863,41.0317497253418,0,
 53750,-0.13916015625,-1.0146484375,-0.36572265625,-0.7317073345184326,5.091463565826416,-14.57317066192627,22.049999237060547,-18.600000381469727,4.050000190734863,40.88798141479492,0,
 53760,-0.151123046875,-0.982177734375,-0.37939453125,-9.786585807800293,7.865853786468506,-19.542682647705078,24.0,-18.899999618530273,7.050000190734863,40.88798141479492,0,
 53771,-0.126220703125,-0.874755859375,-0.420166015625,-8.018292427062988,9.29878044128418,-24.329269409179688,23.549999237060547,-18.899999618530273,7.050000190734863,41.0317497253418,0,
 53781,-0.08056640625,-0.7666015625,-0.4462890625,1.5243902206420898,7.957317352294922,-25.18292808532715,23.850000381469727,-19.950000762939453,7.5,41.0317497253418,0,
 53791,-0.03564453125,-0.732421875,-0.465087890625,15.731707572937012,4.542683124542236,-21.58536720275879,23.850000381469727,-19.950000762939453,6.900000095367432,41.127593994140625,0,
 53801,-0.0419921875,-0.817138671875,-0.453369140625,23.475610733032227,3.262195110321045,-15.304878234863281,24.149999618530273,-17.549999237060547,4.949999809265137,40.79213333129883,0,
 53811,-0.07373046875,-0.970458984375,-0.413818359375,18.35365867614746,3.567073345184326,-11.52439022064209,22.799999237060547,-18.149999618530273,6.75,41.0317497253418,0,
 53821,-0.070556640625,-1.038330078125,-0.353759765625,3.3231709003448486,4.878048896789551,-10.27439022064209,22.799999237060547,-18.0,7.199999809265137,41.127593994140625,0,
 53831,-0.065673828125,-0.998046875,-0.371826171875,-6.067073345184326,5.3353657722473145,-11.036585807800293,22.799999237060547,-18.600000381469727,7.050000190734863,40.9359016418457,0,
 53841,-0.049072265625,-0.86474609375,-0.426025390625,-2.2865853309631348,3.8719513416290283,-9.146341323852539,22.799999237060547,-18.600000381469727,7.050000190734863,41.127593994140625,0,
 53851,-0.001953125,-0.73583984375,-0.443115234375,9.84756088256836,-0.15243902802467346,-1.7682926654815674,22.799999237060547,-16.950000762939453,6.0,40.74421310424805,0,
 53861,0.001953125,-0.732177734375,-0.43603515625,21.25,-3.628048896789551,6.158536911010742,24.149999618530273,-17.100000381469727,6.900000095367432,40.9359016418457,0,
 53871,-0.0537109375,-0.866455078125,-0.400146484375,28.170732498168945,-7.012195110321045,12.103658676147461,24.450000762939453,-18.899999618530273,7.050000190734863,41.127593994140625,0,
 53881,-0.084716796875,-0.93994140625,-0.384765625,30.09146499633789,-9.085366249084473,13.536585807800293,24.450000762939453,-18.899999618530273,7.050000190734863,41.0317497253418,0,
 53891,-0.109375,-0.978515625,-0.375,27.378049850463867,-8.993902206420898,11.890244483947754,22.200000762939453,-16.799999237060547,6.449999809265137,41.07966995239258,0,
 53901,-0.12548828125,-1.01953125,-0.37744140625,21.55487823486328,-7.591463565826416,8.445121765136719,23.25,-16.950000762939453,6.0,40.88798141479492,0,
 53911,-0.112060546875,-0.968017578125,-0.379638671875,14.57317066192627,-4.878048896789551,2.804877996444702,23.850000381469727,-16.799999237060547,6.150000095367432,41.0317497253418,0,
 53921,-0.085693359375,-0.9189453125,-0.397705078125,12.439024925231934,-3.5365853309631348,-0.4573170840740204,23.850000381469727,-16.799999237060547,6.150000095367432,41.0317497253418,0,
 53931,-0.06689453125,-0.889404296875,-0.38671875,12.92682933807373,-3.47560977935791,1.7073171138763428,22.649999618530273,-16.799999237060547,5.400000095367432,41.127593994140625,0,
 53941,-0.0654296875,-0.875244140625,-0.379638671875,14.87804889678955,-3.841463565826416,5.5182929039001465,23.549999237060547,-16.5,6.0,41.127593994140625,0,
 53951,-0.076904296875,-0.889404296875,-0.3798828125,17.80487823486328,-4.695122241973877,8.018292427062988,24.600000381469727,-19.200000762939453,1.9500000476837158,40.79213333129883,0,
 53961,-0.077880859375,-0.90966796875,-0.369140625,19.14634132385254,-5.152439117431641,10.060976028442383,24.600000381469727,-19.200000762939453,1.9500000476837158,41.127593994140625,0,
 53971,-0.089599609375,-0.91064453125,-0.37255859375,19.69512176513672,-5.4268293380737305,11.79878044128418,23.399999618530273,-16.799999237060547,5.400000095367432,41.07966995239258,0,
 53981,-0.08984375,-0.91259765625,-0.363525390625,20.213415145874023,-5.396341800689697,11.768293380737305,24.450000762939453,-16.950000762939453,4.800000190734863,41.07966995239258,0,
 53991,-0.086181640625,-0.913818359375,-0.35986328125,20.94512176513672,-5.884146690368652,11.890244483947754,24.149999618530273,-16.350000381469727,3.450000047683716,40.9359016418457,0,
 54001,-0.101318359375,-0.9111328125,-0.367919921875,21.128049850463867,-5.579268455505371,13.018293380737305,24.149999618530273,-16.350000381469727,3.450000047683716,40.79213333129883,0,
 54011,-0.0966796875,-0.913330078125,-0.3701171875,22.530488967895508,-5.670732021331787,13.536585807800293,22.649999618530273,-15.899999618530273,5.699999809265137,41.0317497253418,0,
 54021,-0.099853515625,-0.92919921875,-0.339111328125,24.969512939453125,-5.853658676147461,13.841464042663574,24.0,-16.950000762939453,5.25,41.127593994140625,0,
 54031,-0.093994140625,-0.950439453125,-0.32373046875,24.23780632019043,-5.792683124542236,13.719512939453125,22.200000762939453,-15.899999618530273,4.199999809265137,41.07966995239258,0,
 54041,-0.1064453125,-0.957275390625,-0.321044921875,20.731708526611328,-5.5182929039001465,16.219512939453125,22.200000762939453,-15.899999618530273,4.199999809265137,40.88798141479492,0,
 54051,-0.109375,-0.976806640625,-0.308349609375,17.164634704589844,-5.396341800689697,17.317073822021484,24.149999618530273,-16.799999237060547,2.4000000953674316,40.79213333129883,0,
 54061,-0.11962890625,-1.000244140625,-0.29638671875,12.865854263305664,-5.304878234863281,17.408536911010742,23.549999237060547,-16.200000762939453,4.5,40.88798141479492,0,
 54071,-0.1474609375,-0.9853515625,-0.31787109375,5.091463565826416,-3.262195110321045,16.55487823486328,24.450000762939453,-15.75,4.800000190734863,41.0317497253418,0,
 54081,-0.137939453125,-0.94580078125,-0.336181640625,0.396341472864151,-2.2560975551605225,12.92682933807373,24.450000762939453,-15.75,4.800000190734863,41.0317497253418,0,
 54091,-0.09765625,-0.87060546875,-0.3408203125,0.060975611209869385,-1.6768293380737305,9.817073822021484,24.75,-18.899999618530273,4.5,41.127593994140625,0,
 54101,-0.104736328125,-0.927490234375,-0.326904296875,2.3475611209869385,-3.2317073345184326,10.762195587158203,25.350000381469727,-15.899999618530273,4.199999809265137,40.74421310424805,0,
 54111,-0.12890625,-0.93359375,-0.3291015625,0.4268292784690857,-3.0182926654815674,14.84756088256836,24.149999618530273,-17.100000381469727,4.650000095367432,41.127593994140625,0,
 54121,-0.14306640625,-0.93212890625,-0.338134765625,-0.24390244483947754,-2.378048896789551,13.445122718811035,24.0,-16.200000762939453,5.25,41.0317497253418,0,
 54131,-0.1279296875,-0.952392578125,-0.32861328125,0.3658536672592163,-2.1341464519500732,10.091464042663574,24.450000762939453,-16.5,4.800000190734863,41.0317497253418,0,
 54141,-0.1416015625,-0.947509765625,-0.329345703125,-1.1890244483947754,-1.6158536672592163,10.670731544494629,25.950000762939453,-17.399999618530273,5.25,41.127593994140625,0,
 54151,-0.102294921875,-0.90625,-0.324951171875,-2.682926893234253,-0.8841463327407837,9.695121765136719,22.799999237060547,-16.5,4.050000190734863,40.88798141479492,0,
 54161,-0.11767578125,-0.94189453125,-0.3203125,-7.103658676147461,-1.1585365533828735,14.786585807800293,24.149999618530273,-16.350000381469727,4.949999809265137,41.0317497253418,0,
 54171,-0.143798828125,-0.955810546875,-0.328857421875,-9.908536911010742,-0.6402438879013062,13.90243911743164,24.149999618530273,-16.350000381469727,4.949999809265137,41.22344207763672,0,
 54181,-0.14306640625,-0.926513671875,-0.3408203125,-9.359756469726562,-0.5182926654815674,12.682927131652832,26.850000381469727,-16.799999237060547,3.9000000953674316,41.127593994140625,0,
 54191,-0.1396484375,-0.91064453125,-0.343505859375,-7.957317352294922,-0.4878048896789551,12.682927131652832,24.899999618530273,-18.0,3.9000000953674316,40.79213333129883,0,
 54201,-0.14306640625,-0.913818359375,-0.344482421875,-6.615853786468506,-0.6707317233085632,12.92682933807373,24.149999618530273,-17.100000381469727,5.400000095367432,41.07966995239258,0,
 54211,-0.144775390625,-0.901123046875,-0.35302734375,-4.45121955871582,-1.1585365533828735,13.47560977935791,24.149999618530273,-17.100000381469727,5.400000095367432,41.0317497253418,0,
 54221,-0.1328125,-0.89892578125,-0.346435546875,-2.4695122241973877,-1.6463414430618286,14.939024925231934,24.75,-18.149999618530273,4.800000190734863,41.2713623046875,0,
 54231,-0.14453125,-0.939208984375,-0.33642578125,-4.115853786468506,-1.1280487775802612,15.82317066192627,24.450000762939453,-19.350000381469727,5.25,40.9359016418457,0,
 54241,-0.150634765625,-0.9248046875,-0.346435546875,-4.45121955871582,-0.9451219439506531,15.792683601379395,23.399999618530273,-17.100000381469727,5.400000095367432,40.74421310424805,0,
 54251,-0.151611328125,-0.90234375,-0.3544921875,-1.6463414430618286,-1.3414634466171265,14.817073822021484,23.399999618530273,-17.100000381469727,5.400000095367432,40.9359016418457,0,
 54261,-0.1552734375,-0.8955078125,-0.3583984375,1.3719512224197388,-1.7987805604934692,14.908536911010742,25.5,-20.850000381469727,3.75,40.88798141479492,0,
 54271,-0.162109375,-0.904052734375,-0.3564453125,2.1646342277526855,-1.8902438879013062,14.756097793579102,25.200000762939453,-17.700000762939453,3.299999952316284,40.9359016418457,0,
 54281,-0.157958984375,-0.892578125,-0.35009765625,4.237804889678955,-2.195122003555298,15.091464042663574,24.75,-18.600000381469727,4.800000190734863,40.9359016418457,0,
 54291,-0.152587890625,-0.883544921875,-0.352294921875,6.615853786468506,-2.5609755516052246,15.914634704589844,24.75,-18.600000381469727,4.800000190734863,41.0317497253418,0,
 54301,-0.165771484375,-0.9013671875,-0.341552734375,8.262195587158203,-2.804877996444702,16.310976028442383,24.600000381469727,-18.299999237060547,4.949999809265137,40.9359016418457,0,
 54311,-0.16455078125,-0.892333984375,-0.3466796875,10.396341323852539,-2.804877996444702,15.27439022064209,25.200000762939453,-18.600000381469727,4.5,41.22344207763672,0,
 54321,-0.171630859375,-0.878173828125,-0.35205078125,14.481707572937012,-3.170731782913208,14.115854263305664,24.0,-18.600000381469727,5.25,41.127593994140625,0,
 54331,-0.177978515625,-0.89892578125,-0.336669921875,17.926830291748047,-3.628048896789551,13.140244483947754,24.0,-18.600000381469727,5.25,41.0317497253418,0,
 54341,-0.18408203125,-0.920654296875,-0.328125,19.05487823486328,-3.567073345184326,11.646341323852539,24.600000381469727,-16.350000381469727,4.949999809265137,40.88798141479492,0,
 54351,-0.189697265625,-0.92138671875,-0.317138671875,18.93292808532715,-3.445122003555298,10.243902206420898,25.200000762939453,-18.899999618530273,5.25,41.0317497253418,0,
 54361,-0.194091796875,-0.93017578125,-0.31884765625,18.170732498168945,-3.1097562313079834,8.87195110321045,25.5,-18.600000381469727,0.30000001192092896,41.0317497253418,0,
 54371,-0.1923828125,-0.935546875,-0.315673828125,17.65243911743164,-2.7134146690368652,7.682927131652832,25.5,-18.600000381469727,0.30000001192092896,41.0317497253418,0,
 54381,-0.191162109375,-0.934326171875,-0.3046875,16.4939022064209,-2.317073106765747,5.945122241973877,26.700000762939453,-18.149999618530273,4.800000190734863,41.0317497253418,0,
 54391,-0.191650390625,-0.939697265625,-0.3056640625,15.579268455505371,-2.5304877758026123,4.5731706619262695,27.299999237060547,-19.200000762939453,3.9000000953674316,40.79213333129883,0,
 54401,-0.197265625,-0.93798828125,-0.30517578125,14.481707572937012,-2.0731706619262695,3.8719513416290283,26.100000381469727,-17.100000381469727,3.1500000953674316,41.22344207763672,0,
 54411,-0.18896484375,-0.929931640625,-0.3046875,13.59756088256836,-1.5243902206420898,2.77439022064209,26.100000381469727,-17.100000381469727,3.1500000953674316,41.127593994140625,0,
 54421,-0.18798828125,-0.94921875,-0.294921875,12.408536911010742,-1.6463414430618286,2.6524391174316406,24.899999618530273,-17.100000381469727,4.199999809265137,40.9359016418457,0,
 54431,-0.189208984375,-0.945556640625,-0.2958984375,9.969511985778809,-1.2804877758026123,2.804877996444702,25.5,-16.950000762939453,4.800000190734863,41.0317497253418,0,
 54441,-0.197509765625,-0.93798828125,-0.302001953125,7.957317352294922,-0.8231707215309143,2.5304877758026123,24.75,-17.399999618530273,3.75,40.79213333129883,0,
 54451,-0.19140625,-0.9326171875,-0.30078125,7.0731706619262695,-0.9756097793579102,1.8597561120986938,24.75,-17.399999618530273,3.75,41.0317497253418,0,
 54461,-0.18505859375,-0.939697265625,-0.294677734375,5.9146342277526855,-0.7317073345184326,2.012195110321045,27.299999237060547,-16.799999237060547,1.2000000476837158,41.0317497253418,0,
 54471,-0.1884765625,-0.9287109375,-0.297607421875,4.359755992889404,-0.6402438879013062,2.7439024448394775,25.350000381469727,-18.299999237060547,4.650000095367432,40.9359016418457,0,
 54481,-0.18994140625,-0.929931640625,-0.292724609375,4.1768293380737305,-0.6097561120986938,3.170731782913208,25.200000762939453,-16.5,5.550000190734863,41.0317497253418,0,
 54491,-0.18359375,-0.918701171875,-0.300048828125,3.628048896789551,-0.396341472864151,3.3841464519500732,25.350000381469727,-17.549999237060547,4.199999809265137,40.74421310424805,0,
 54501,-0.196044921875,-0.926025390625,-0.30126953125,4.0853657722473145,-0.8231707215309143,3.1097562313079834,25.350000381469727,-18.299999237060547,4.199999809265137,41.31928634643555,0,
 54511,-0.1845703125,-0.922607421875,-0.29638671875,4.237804889678955,-0.5487805008888245,3.079268455505371,25.950000762939453,-16.5,4.800000190734863,41.0317497253418,0,
 54521,-0.192138671875,-0.930419921875,-0.292724609375,4.695122241973877,-0.6097561120986938,3.262195110321045,27.299999237060547,-17.100000381469727,4.949999809265137,41.0317497253418,0,
 54531,-0.1953125,-0.949462890625,-0.27978515625,3.9024391174316406,-0.7621951103210449,3.2317073345184326,26.700000762939453,-16.200000762939453,2.549999952316284,41.127593994140625,0,
 54541,-0.19091796875,-0.9384765625,-0.28759765625,0.9451219439506531,0.12195122241973877,3.3231709003448486,26.700000762939453,-16.200000762939453,2.549999952316284,40.88798141479492,0,
 54551,-0.19482421875,-0.938720703125,-0.289794921875,-0.24390244483947754,0.24390244483947754,3.4146342277526855,24.899999618530273,-17.549999237060547,2.4000000953674316,41.127593994140625,0,
 54561,-0.195068359375,-0.92333984375,-0.2939453125,-0.9451219439506531,0.3048780560493469,3.567073345184326,25.5,-14.550000190734863,1.5,40.79213333129883,0,
 54581,-0.1845703125,-0.9296875,-0.29052734375,-0.4878048896789551,0.060975611209869385,3.0182926654815674,25.950000762939453,-17.399999618530273,4.050000190734863,41.07966995239258,0,
 54592,-0.191162109375,-0.92919921875,-0.291259765625,-1.1585365533828735,0.09146341681480408,3.5975611209869385,26.850000381469727,-17.549999237060547,3.9000000953674316,40.88798141479492,0,
 54602,-0.19677734375,-0.939453125,-0.291259765625,-2.22560977935791,0.3048780560493469,3.932926893234253,26.100000381469727,-16.350000381469727,5.699999809265137,41.0317497253418,0,
 54612,-0.1904296875,-0.936279296875,-0.29248046875,-3.079268455505371,0.7621951103210449,3.5365853309631348,27.450000762939453,-16.5,4.5,41.0317497253418,0,
 54622,-0.202392578125,-0.92724609375,-0.296142578125,-4.390244007110596,0.6097561120986938,3.170731782913208,27.450000762939453,-16.5,4.5,40.88798141479492,0,
 54632,-0.196044921875,-0.9140625,-0.2978515625,-3.0182926654815674,0.5792682766914368,2.4695122241973877,25.350000381469727,-16.799999237060547,3.450000047683716,40.88798141479492,0,
 54642,-0.1982421875,-0.91748046875,-0.303466796875,-2.591463565826416,0.24390244483947754,2.4390244483947754,24.899999618530273,-17.549999237060547,3.9000000953674316,40.9359016418457,0,
 54652,-0.193359375,-0.921875,-0.302734375,-2.4695122241973877,0.27439025044441223,2.1341464519500732,25.950000762939453,-16.950000762939453,3.75,40.79213333129883,0,
 54662,-0.203369140625,-0.928466796875,-0.296142578125,-2.5609755516052246,0.396341472864151,1.7987805604934692,25.950000762939453,-16.950000762939453,3.75,40.9359016418457,0,
 54672,-0.198486328125,-0.931884765625,-0.294677734375,-3.079268455505371,0.396341472864151,1.1890244483947754,24.600000381469727,-18.299999237060547,3.450000047683716,41.0317497253418,0,
 54682,-0.2021484375,-0.93017578125,-0.294677734375,-3.3231709003448486,0.5487805008888245,0.9146341681480408,24.450000762939453,-17.700000762939453,4.800000190734863,40.79213333129883,0,
 54692,-0.199951171875,-0.9130859375,-0.303466796875,-2.378048896789551,0.5487805008888245,-0.060975611209869385,26.700000762939453,-17.399999618530273,4.800000190734863,41.07966995239258,0,
 54702,-0.200927734375,-0.917236328125,-0.302978515625,-1.1585365533828735,0.396341472864151,-0.4573170840740204,26.700000762939453,-17.399999618530273,4.800000190734863,41.0317497253418,0,
 54712,-0.1982421875,-0.904541015625,-0.30615234375,-0.4573170840740204,0.3048780560493469,-0.6402438879013062,25.5,-18.600000381469727,2.549999952316284,41.07966995239258,0,
 54722,-0.196044921875,-0.92333984375,-0.302734375,-0.5487805008888245,0.12195122241973877,-0.6707317233085632,25.649999618530273,-18.299999237060547,3.450000047683716,41.0317497253418,0,
 54732,-0.197509765625,-0.92529296875,-0.297607421875,-0.6707317233085632,0.3658536672592163,-0.7317073345184326,24.149999618530273,-16.350000381469727,3.450000047683716,40.74421310424805,0,
 54742,-0.198974609375,-0.918212890625,-0.3017578125,-0.8841463327407837,0.6707317233085632,-0.6402438879013062,24.149999618530273,-16.350000381469727,3.450000047683716,40.88798141479492,0,
 54752,-0.19921875,-0.927001953125,-0.2978515625,-1.25,0.7621951103210449,-0.396341472864151,25.5,-17.399999618530273,6.0,41.0317497253418,0,
 54762,-0.197509765625,-0.920166015625,-0.300537109375,-0.5487805008888245,0.4573170840740204,-0.396341472864151,26.700000762939453,-17.399999618530273,5.25,41.127593994140625,0,
 54772,-0.19189453125,-0.92578125,-0.303466796875,-0.4878048896789551,0.4573170840740204,-0.3353658616542816,27.75,-18.149999618530273,2.549999952316284,40.9359016418457,0,
 54782,-0.1943359375,-0.926513671875,-0.29638671875,-0.8841463327407837,0.3048780560493469,-0.24390244483947754,27.75,-18.149999618530273,2.549999952316284,40.79213333129883,0,
 54792,-0.2001953125,-0.925537109375,-0.29541015625,-0.6402438879013062,0.24390244483947754,0.060975611209869385,26.549999237060547,-16.799999237060547,3.9000000953674316,41.0317497253418,0,
 54802,-0.200927734375,-0.925537109375,-0.2978515625,-0.5487805008888245,0.18292683362960815,0.3048780560493469,27.450000762939453,-17.700000762939453,4.050000190734863,41.0317497253418,0,
 54812,-0.19287109375,-0.926513671875,-0.298828125,-0.8536585569381714,0.4268292784690857,-0.24390244483947754,26.25,-16.950000762939453,3.75,41.127593994140625,0,
 54822,-0.197265625,-0.91796875,-0.302001953125,-0.7621951103210449,0.21341463923454285,-0.6707317233085632,26.549999237060547,-17.100000381469727,3.9000000953674316,41.0317497253418,0,
 54832,-0.202392578125,-0.918212890625,-0.30419921875,-0.3353658616542816,0.3353658616542816,-1.097561001777649,25.5,-15.75,4.800000190734863,40.79213333129883,0,
 54842,-0.18994140625,-0.915283203125,-0.298828125,0.3048780560493469,0.15243902802467346,-1.3109756708145142,25.200000762939453,-19.350000381469727,4.5,41.07966995239258,0,
 54852,-0.1943359375,-0.922607421875,-0.301513671875,-0.060975611209869385,0.396341472864151,-1.8292683362960815,27.0,-17.700000762939453,4.5,41.2713623046875,0,
 54862,-0.1943359375,-0.91748046875,-0.300537109375,0.396341472864151,-0.15243902802467346,-2.22560977935791,24.450000762939453,-18.600000381469727,5.25,41.22344207763672,0,
 54872,-0.193603515625,-0.915771484375,-0.299072265625,1.097561001777649,0.0,-2.195122003555298,24.450000762939453,-18.600000381469727,5.25,40.9359016418457,0,
 54882,-0.194580078125,-0.918701171875,-0.302978515625,1.2195122241973877,-0.21341463923454285,-2.2865853309631348,25.5,-18.600000381469727,3.0,40.9359016418457,0,
 54892,-0.19482421875,-0.923095703125,-0.29541015625,1.7073171138763428,-0.3658536672592163,-2.378048896789551,26.25,-17.399999618530273,4.050000190734863,40.9359016418457,0,
 54912,-0.189697265625,-0.927001953125,-0.296630859375,1.4939024448394775,-0.5182926654815674,-3.445122003555298,24.600000381469727,-17.100000381469727,3.9000000953674316,40.88798141479492,0,
 54922,-0.19140625,-0.92578125,-0.294189453125,1.585365891456604,-0.060975611209869385,-3.3841464519500732,26.700000762939453,-17.399999618530273,5.25,41.0317497253418,0,
 54932,-0.1943359375,-0.926513671875,-0.293701171875,1.7682926654815674,-0.12195122241973877,-3.1402440071105957,25.950000762939453,-18.600000381469727,3.75,40.88798141479492,0,
 54942,-0.185546875,-0.9267578125,-0.29296875,0.8231707215309143,-0.060975611209869385,-3.353658676147461,25.5,-16.950000762939453,3.75,41.0317497253418,0,
 54952,-0.189697265625,-0.939208984375,-0.29443359375,0.5182926654815674,-0.12195122241973877,-2.408536672592163,25.5,-16.950000762939453,3.75,41.0317497253418,0,
 54962,-0.187744140625,-0.93603515625,-0.287841796875,-1.0670732259750366,0.12195122241973877,-1.6463414430618286,24.899999618530273,-17.100000381469727,3.9000000953674316,41.0317497253418,0,
 54972,-0.188720703125,-0.938232421875,-0.290283203125,-1.9817073345184326,0.4573170840740204,-0.9146341681480408,25.649999618530273,-16.799999237060547,1.2000000476837158,41.0317497253418,0,
 54982,-0.19140625,-0.934814453125,-0.2958984375,-3.628048896789551,0.7012194991111755,-0.09146341681480408,27.299999237060547,-16.350000381469727,5.699999809265137,40.74421310424805,0,
 54992,-0.190185546875,-0.92919921875,-0.291748046875,-3.9634146690368652,0.7621951103210449,0.3658536672592163,27.299999237060547,-16.350000381469727,5.699999809265137,41.127593994140625,0,
 55002,-0.188232421875,-0.91357421875,-0.301025390625,-4.390244007110596,0.7317073345184326,0.12195122241973877,25.649999618530273,-16.799999237060547,3.9000000953674316,41.07966995239258,0,
 55012,-0.194580078125,-0.920166015625,-0.293701171875,-3.3841464519500732,0.6097561120986938,0.0,25.200000762939453,-16.950000762939453,3.299999952316284,41.07966995239258,0,
 55022,-0.189208984375,-0.916748046875,-0.31005859375,-3.170731782913208,0.5487805008888245,-0.792682945728302,25.200000762939453,-17.399999618530273,3.0,40.9359016418457,0,
 55032,-0.1904296875,-0.91357421875,-0.304931640625,-1.8902438879013062,0.3353658616542816,-1.2195122241973877,25.200000762939453,-17.399999618530273,3.0,40.9359016418457,0,
 55042,-0.186767578125,-0.919677734375,-0.2939453125,-1.402438998222351,0.4573170840740204,-1.4634146690368652,27.0,-17.700000762939453,4.800000190734863,41.0317497253418,0,
 55052,-0.184326171875,-0.914794921875,-0.305908203125,-0.7317073345184326,0.09146341681480408,-1.9512195587158203,26.100000381469727,-17.549999237060547,2.700000047683716,41.0317497253418,0,
 55062,-0.189453125,-0.908935546875,-0.306884765625,-0.8841463327407837,0.18292683362960815,-2.0426828861236572,25.5,-16.5,3.75,40.74421310424805,0,
 55072,-0.18994140625,-0.921875,-0.301025390625,0.8536585569381714,0.12195122241973877,-2.4390244483947754,25.5,-16.5,3.75,40.9359016418457,0,
 55082,-0.18701171875,-0.919189453125,-0.304443359375,1.3109756708145142,0.060975611209869385,-2.5,25.200000762939453,-17.700000762939453,3.75,41.127593994140625,0,
 55092,-0.18701171875,-0.917724609375,-0.3037109375,1.432926893234253,-0.21341463923454285,-2.0731706619262695,25.200000762939453,-18.600000381469727,3.75,41.0317497253418,0,
 55102,-0.181396484375,-0.926025390625,-0.302490234375,1.1280487775802612,0.24390244483947754,-1.6158536672592163,25.649999618530273,-18.0,3.1500000953674316,41.0317497253418,0,
 55112,-0.184326171875,-0.92578125,-0.29443359375,0.7621951103210449,-0.18292683362960815,-0.6097561120986938,25.649999618530273,-18.0,3.1500000953674316,41.07966995239258,0,
 55122,-0.181396484375,-0.93115234375,-0.296142578125,0.12195122241973877,0.18292683362960815,-0.6707317233085632,25.5,-17.700000762939453,4.5,40.88798141479492,0,
 55132,-0.187255859375,-0.9228515625,-0.3095703125,1.0670732259750366,-0.15243902802467346,-0.7012194991111755,26.549999237060547,-17.549999237060547,4.949999809265137,40.9359016418457,0,
 55142,-0.193359375,-0.9228515625,-0.30078125,1.3719512224197388,0.18292683362960815,-0.7621951103210449,24.75,-16.5,4.050000190734863,41.0317497253418,0,
 55152,-0.183837890625,-0.920166015625,-0.30419921875,1.4939024448394775,0.12195122241973877,-1.0060975551605225,24.75,-16.5,4.050000190734863,40.88798141479492,0,
 55162,-0.18359375,-0.913818359375,-0.303466796875,2.3475611209869385,0.030487805604934692,-1.432926893234253,24.450000762939453,-16.200000762939453,5.25,41.127593994140625,0,
