timestamp,accl_x,accl_y,accl_z,gyro_x,gyro_y,gyro_z,mag_x,mag_y,mag_z,temp,emg,
 500930,0.06103515625,-0.9765625,-0.09814453125,-0.5182926654815674,0.3048780560493469,-0.030487805604934692,-0.30000001192092896,-15.300000190734863,3.299999952316284,38.82729721069336,0,
 500940,0.060546875,-0.977294921875,-0.08837890625,-0.6707317233085632,0.3048780560493469,-0.24390244483947754,-0.30000001192092896,-15.300000190734863,3.299999952316284,38.683528900146484,0,
 500950,0.059814453125,-0.974853515625,-0.094482421875,-0.5487805008888245,0.3353658616542816,0.24390244483947754,0.0,-13.800000190734863,3.75,38.92314529418945,0,
 500960,0.056884765625,-0.97607421875,-0.09033203125,-0.27439025044441223,0.396341472864151,0.3353658616542816,-1.0499999523162842,-14.550000190734863,4.050000190734863,38.63560485839844,0,
 500970,0.060791015625,-0.97802734375,-0.09423828125,-0.5792682766914368,0.3048780560493469,0.15243902802467346,-1.2000000476837158,-13.949999809265137,4.949999809265137,38.77937698364258,0,
 500980,0.0615234375,-0.982666015625,-0.094970703125,-0.7317073345184326,0.4878048896789551,0.3658536672592163,-1.7999999523162842,-13.350000381469727,4.800000190734863,38.683528900146484,0,
 500990,0.05322265625,-0.97119140625,-0.089111328125,-0.8231707215309143,0.396341472864151,0.3048780560493469,-1.7999999523162842,-13.350000381469727,4.800000190734863,38.82729721069336,0,
 501020,0.05322265625,-0.972900390625,-0.091796875,-0.5487805008888245,0.09146341681480408,0.3353658616542816,-1.649999976158142,-13.649999618530273,4.949999809265137,38.82729721069336,0,
 501040,0.0546875,-0.972900390625,-0.088134765625,-0.6097561120986938,0.3048780560493469,0.12195122241973877,-0.15000000596046448,-14.850000381469727,3.9000000953674316,38.92314529418945,0,
 501050,0.056396484375,-0.972412109375,-0.092529296875,-0.5487805008888245,0.27439025044441223,0.18292683362960815,-0.30000001192092896,-14.550000190734863,3.299999952316284,38.92314529418945,0,
 501060,0.061279296875,-0.974365234375,-0.09521484375,-0.3658536672592163,0.3048780560493469,0.21341463923454285,-0.8999999761581421,-14.399999618530273,4.199999809265137,38.82729721069336,0,
 501070,0.062744140625,-0.974853515625,-0.0947265625,-0.4573170840740204,0.4268292784690857,-0.18292683362960815,-0.44999998807907104,-12.75,4.199999809265137,39.01898956298828,0,
 501080,0.05712890625,-0.97509765625,-0.0966796875,-0.3353658616542816,0.060975611209869385,0.24390244483947754,0.0,-14.550000190734863,5.25,38.82729721069336,0,
 501090,0.060302734375,-0.97607421875,-0.09326171875,-0.6402438879013062,0.24390244483947754,0.09146341681480408,-0.30000001192092896,-15.0,4.800000190734863,38.92314529418945,0,
 501100,0.055908203125,-0.974853515625,-0.095458984375,-0.5487805008888245,0.4878048896789551,0.21341463923454285,-1.0499999523162842,-14.550000190734863,4.800000190734863,39.01898956298828,0,
 501110,0.058837890625,-0.976318359375,-0.093505859375,-0.792682945728302,0.24390244483947754,0.24390244483947754,-1.2000000476837158,-15.149999618530273,4.199999809265137,38.587684631347656,0,
 501120,0.0615234375,-0.97509765625,-0.094970703125,-0.6097561120986938,-0.030487805604934692,0.09146341681480408,-1.2000000476837158,-15.149999618530273,4.199999809265137,38.77937698364258,0,
 501130,0.0537109375,-0.9697265625,-0.09716796875,-0.7621951103210449,0.12195122241973877,-0.15243902802467346,1.0499999523162842,-14.25,2.549999952316284,38.92314529418945,0,
 501140,0.0615234375,-0.981201171875,-0.0888671875,-0.7621951103210449,0.27439025044441223,0.030487805604934692,-1.0499999523162842,-15.75,4.800000190734863,38.92314529418945,0,
 501150,0.0546875,-0.977783203125,-0.0927734375,-0.8231707215309143,0.24390244483947754,0.09146341681480408,-1.5,-15.75,5.550000190734863,39.01898956298828,0,
 501240,0.052490234375,-0.977294921875,-0.093017578125,-1.585365891456604,0.12195122241973877,-0.030487805604934692,-0.44999998807907104,-13.649999618530273,3.9000000953674316,38.587684631347656,0,
 501250,0.05908203125,-0.974853515625,-0.09326171875,-1.4634146690368652,0.3048780560493469,0.09146341681480408,-0.44999998807907104,-13.649999618530273,3.9000000953674316,38.63560485839844,0,
 501260,0.061279296875,-0.974365234375,-0.0986328125,-1.9817073345184326,-0.09146341681480408,0.0,-1.5,-13.800000190734863,4.800000190734863,38.63560485839844,0,
 501270,0.061279296875,-0.97314453125,-0.09326171875,-2.2560975551605225,-0.24390244483947754,0.060975611209869385,-0.15000000596046448,-16.350000381469727,5.400000095367432,38.82729721069336,0,
 501280,0.056884765625,-0.970947265625,-0.092041015625,-1.9512195587158203,-0.21341463923454285,0.0,-0.75,-14.25,4.5,38.683528900146484,0,
 501290,0.056640625,-0.9736328125,-0.096435546875,-1.8902438879013062,-0.27439025044441223,0.060975611209869385,-0.75,-14.550000190734863,4.050000190734863,38.92314529418945,0,
 501310,0.055908203125,-0.970947265625,-0.102294921875,-1.3109756708145142,0.030487805604934692,0.15243902802467346,-0.30000001192092896,-16.200000762939453,4.5,38.92314529418945,0,
 501320,0.05322265625,-0.977783203125,-0.097900390625,-1.5548781156539917,-0.24390244483947754,0.27439025044441223,-2.0999999046325684,-14.399999618530273,5.400000095367432,39.01898956298828,0,
 501350,0.05859375,-0.9658203125,-0.10546875,-2.103658676147461,-0.4573170840740204,0.18292683362960815,0.0,-15.0,4.5,38.82729721069336,0,
 501360,0.0625,-0.971923828125,-0.09814453125,-1.432926893234253,-0.060975611209869385,0.030487805604934692,-1.2000000476837158,-14.850000381469727,5.400000095367432,38.77937698364258,0,
 501370,0.058349609375,-0.9677734375,-0.10400390625,-1.1890244483947754,-0.09146341681480408,0.5792682766914368,0.75,-14.25,4.5,38.82729721069336,0,
 501380,0.060546875,-0.9736328125,-0.103759765625,-0.6707317233085632,-0.12195122241973877,-0.060975611209869385,0.75,-14.25,4.5,38.82729721069336,0,
 501390,0.057861328125,-0.9677734375,-0.10302734375,-0.18292683362960815,-0.24390244483947754,0.3353658616542816,-0.44999998807907104,-15.600000381469727,3.1500000953674316,38.82729721069336,0,
 501400,0.062744140625,-0.962646484375,-0.10205078125,0.6097561120986938,-0.4268292784690857,-0.18292683362960815,-0.75,-15.0,5.25,38.63560485839844,0,
 501410,0.062744140625,-0.9677734375,-0.10302734375,1.1585365533828735,-0.3353658616542816,0.030487805604934692,-0.8999999761581421,-14.399999618530273,4.949999809265137,38.63560485839844,0,
 501440,0.0263671875,-0.9404296875,-0.062744140625,-7.835366249084473,-8.018292427062988,-1.3414634466171265,-1.2000000476837158,-16.799999237060547,3.9000000953674316,38.82729721069336,0,
 501450,0.06298828125,-0.928955078125,-0.150146484375,0.7012194991111755,-9.17682933807373,-1.6463414430618286,-1.7999999523162842,-14.550000190734863,6.0,38.683528900146484,0,
 501460,0.071044921875,-0.952880859375,-0.114013671875,3.0487804412841797,-7.195122241973877,-1.6768293380737305,-1.0499999523162842,-14.550000190734863,4.800000190734863,38.63560485839844,0,
 501480,0.04345703125,-0.996337890625,-0.0830078125,2.896341562271118,-5.762195110321045,-0.8231707215309143,-1.7999999523162842,-13.800000190734863,6.300000190734863,38.92314529418945,0,
 501490,0.05615234375,-0.9775390625,-0.08447265625,0.9756097793579102,-3.932926893234253,-1.8292683362960815,-0.44999998807907104,-14.850000381469727,3.9000000953674316,38.971065521240234,0,
 501500,0.0498046875,-0.99072265625,-0.080810546875,0.060975611209869385,-2.591463565826416,-1.2195122241973877,1.5,-13.350000381469727,4.800000190734863,38.683528900146484,0,
 501510,0.060791015625,-0.990478515625,-0.0849609375,-2.1646342277526855,-1.2195122241973877,-1.402438998222351,0.44999998807907104,-14.399999618530273,5.400000095367432,38.82729721069336,0,
 501520,0.050537109375,-0.987060546875,-0.084228515625,-3.4146342277526855,-0.15243902802467346,-1.5243902206420898,-0.44999998807907104,-15.899999618530273,4.650000095367432,38.92314529418945,0,
 501530,0.060302734375,-0.986328125,-0.0986328125,-5.152439117431641,0.15243902802467346,-1.3109756708145142,-1.0499999523162842,-14.550000190734863,5.550000190734863,38.971065521240234,0,
 501540,0.05810546875,-0.97607421875,-0.0986328125,-5.640244007110596,0.09146341681480408,-1.8292683362960815,0.0,-14.550000190734863,2.549999952316284,38.82729721069336,0,
 501550,0.06103515625,-0.96728515625,-0.097412109375,-5.9146342277526855,0.12195122241973877,-1.7073171138763428,0.15000000596046448,-13.949999809265137,4.650000095367432,38.683528900146484,0,
 501560,0.062744140625,-0.975341796875,-0.100341796875,-5.792683124542236,-0.09146341681480408,-1.9817073345184326,0.15000000596046448,-13.949999809265137,4.650000095367432,38.63560485839844,0,
 501570,0.06591796875,-0.97314453125,-0.102783203125,-5.640244007110596,-0.12195122241973877,-2.5304877758026123,-1.649999976158142,-17.100000381469727,5.400000095367432,38.92314529418945,0,
 501580,0.0703125,-0.97021484375,-0.10400390625,-6.341463565826416,-0.27439025044441223,-2.2560975551605225,-0.44999998807907104,-13.949999809265137,3.450000047683716,38.92314529418945,0,
 501590,0.058837890625,-0.9736328125,-0.103271484375,-5.9146342277526855,-0.24390244483947754,-1.6463414430618286,0.15000000596046448,-15.600000381469727,4.199999809265137,38.92314529418945,0,
 501600,0.058837890625,-0.97705078125,-0.106689453125,-5.70121955871582,0.0,-1.2804877758026123,0.15000000596046448,-15.600000381469727,4.199999809265137,38.63560485839844,0,
 501610,0.063232421875,-0.9736328125,-0.106201171875,-5.792683124542236,-0.12195122241973877,-1.1280487775802612,-1.0499999523162842,-15.300000190734863,2.549999952316284,38.92314529418945,0,
 501620,0.065185546875,-0.967529296875,-0.112548828125,-6.036585330963135,0.09146341681480408,-0.5182926654815674,-0.44999998807907104,-15.899999618530273,4.650000095367432,38.92314529418945,0,
 501630,0.0625,-0.9716796875,-0.118408203125,-5.304878234863281,0.18292683362960815,-0.12195122241973877,-0.44999998807907104,-15.149999618530273,6.150000095367432,38.971065521240234,0,
 501640,0.067626953125,-0.97119140625,-0.110595703125,-4.512195110321045,0.09146341681480408,0.6402438879013062,-0.75,-16.5,3.299999952316284,38.82729721069336,0,
 501650,0.065673828125,-0.9765625,-0.10888671875,-4.1768293380737305,0.4573170840740204,0.7621951103210449,-0.75,-16.5,3.299999952316284,38.77937698364258,0,
 501660,0.064208984375,-0.974609375,-0.111328125,-4.390244007110596,0.21341463923454285,0.9451219439506531,-0.44999998807907104,-15.600000381469727,5.699999809265137,39.01898956298828,0,
 501670,0.0625,-0.96630859375,-0.119140625,-4.29878044128418,0.3048780560493469,0.5792682766914368,0.75,-14.550000190734863,4.050000190734863,38.82729721069336,0,
 501680,0.071533203125,-0.96435546875,-0.114013671875,-3.628048896789551,0.27439025044441223,0.7012194991111755,-0.44999998807907104,-15.149999618530273,4.949999809265137,38.683528900146484,0,
 501690,0.061279296875,-0.96728515625,-0.113525390625,-2.804877996444702,0.3658536672592163,0.6097561120986938,-0.44999998807907104,-15.149999618530273,4.949999809265137,38.971065521240234,0,
 501700,0.061279296875,-0.967529296875,-0.116455078125,-2.3475611209869385,0.060975611209869385,0.5792682766914368,-0.75,-16.5,4.050000190734863,38.63560485839844,0,
 501721,0.05859375,-0.9775390625,-0.111572265625,-1.3414634466171265,0.3658536672592163,0.8841463327407837,1.5,-15.75,5.25,38.82729721069336,0,
 501731,0.061279296875,-0.975830078125,-0.10986328125,-1.1890244483947754,0.09146341681480408,0.792682945728302,-1.7999999523162842,-15.0,3.75,39.01898956298828,0,
 501741,0.06201171875,-0.97900390625,-0.111572265625,-2.317073106765747,0.21341463923454285,1.1280487775802612,-0.30000001192092896,-12.600000381469727,4.5,38.683528900146484,0,
 501751,0.064208984375,-0.975830078125,-0.109375,-2.8353660106658936,0.24390244483947754,1.0365853309631348,0.15000000596046448,-14.850000381469727,4.949999809265137,38.82729721069336,0,
 501761,0.06494140625,-0.981201171875,-0.109375,-3.4146342277526855,-0.030487805604934692,1.432926893234253,-0.8999999761581421,-15.600000381469727,4.650000095367432,38.82729721069336,0,
 501771,0.069580078125,-0.970703125,-0.108154296875,-4.146341323852539,0.27439025044441223,1.25,1.2000000476837158,-15.149999618530273,4.949999809265137,38.971065521240234,0,
 501781,0.138427734375,-0.99658203125,-0.1005859375,-10.0,-13.292683601379395,0.7012194991111755,1.2000000476837158,-15.149999618530273,4.949999809265137,38.82729721069336,0,
 501791,-0.022216796875,-1.009033203125,-0.082763671875,-3.2317073345184326,-12.34756088256836,0.5792682766914368,-1.5,-14.25,4.050000190734863,38.63560485839844,0,
 501801,0.0634765625,-0.906982421875,-0.184326171875,1.920731782913208,-11.585366249084473,0.6097561120986938,0.8999999761581421,-15.600000381469727,5.400000095367432,38.683528900146484,0,
 501811,0.1103515625,-0.973876953125,-0.13330078125,1.920731782913208,-13.140244483947754,0.9451219439506531,-0.75,-15.75,6.300000190734863,38.77937698364258,0,
 501821,0.07421875,-0.99365234375,-0.08056640625,-1.0060975551605225,-15.335366249084473,0.9146341681480408,-0.75,-15.75,6.300000190734863,38.77937698364258,0,
 501831,0.065185546875,-1.005859375,-0.11572265625,-3.3231709003448486,-14.939024925231934,0.3658536672592163,-0.15000000596046448,-13.199999809265137,4.199999809265137,38.82729721069336,0,
 501851,0.0908203125,-0.9951171875,-0.123291015625,-4.939024448394775,-14.634146690368652,0.5487805008888245,-0.44999998807907104,-16.350000381469727,4.199999809265137,38.63560485839844,0,
 501871,0.079345703125,-0.9775390625,-0.11474609375,-4.420732021331787,-14.512195587158203,0.6097561120986938,-0.75,-14.25,4.800000190734863,38.82729721069336,0,
 501881,0.066650390625,-0.9892578125,-0.120849609375,-4.969512462615967,-13.506097793579102,0.6097561120986938,-0.44999998807907104,-14.399999618530273,3.9000000953674316,38.92314529418945,0,
 501891,0.05126953125,-0.97802734375,-0.111083984375,-5.9146342277526855,-12.164634704589844,0.15243902802467346,0.15000000596046448,-16.799999237060547,4.949999809265137,38.587684631347656,0,
 501901,0.037353515625,-0.969482421875,-0.112060546875,-6.341463565826416,-10.945121765136719,-0.3353658616542816,-0.15000000596046448,-15.600000381469727,5.699999809265137,38.82729721069336,0,
 501911,0.041748046875,-0.962158203125,-0.12353515625,-6.310975551605225,-9.054878234863281,-0.5182926654815674,-0.15000000596046448,-15.600000381469727,5.699999809265137,38.683528900146484,0,
 501921,0.062255859375,-0.97412109375,-0.12841796875,-5.8231706619262695,-7.896341800689697,-0.6097561120986938,0.8999999761581421,-15.149999618530273,4.949999809265137,38.82729721069336,0,
 501931,0.0810546875,-0.967529296875,-0.135986328125,-6.219512462615967,-6.707317352294922,-0.7317073345184326,-0.44999998807907104,-15.600000381469727,6.150000095367432,38.82729721069336,0,
 501941,0.054443359375,-0.972900390625,-0.129638671875,-5.152439117431641,-6.219512462615967,-0.5182926654815674,-0.30000001192092896,-14.550000190734863,6.0,38.395992279052734,0,
 501961,0.076416015625,-0.9716796875,-0.132080078125,-5.091463565826416,-5.97560977935791,-0.6707317233085632,0.75,-15.75,5.25,38.92314529418945,0,
 501971,0.04296875,-0.952392578125,-0.12548828125,-5.152439117431641,-6.646341800689697,-1.3719512224197388,0.75,-15.300000190734863,5.25,38.92314529418945,0,
 501981,0.0546875,-0.961669921875,-0.142333984375,-3.841463565826416,-5.884146690368652,-1.0365853309631348,0.44999998807907104,-15.149999618530273,5.400000095367432,38.92314529418945,0,
 501991,0.039306640625,-0.95703125,-0.131591796875,-2.317073106765747,-6.554878234863281,-1.8902438879013062,0.30000001192092896,-16.200000762939453,5.25,38.683528900146484,0,
 502001,0.041015625,-0.951416015625,-0.129150390625,-1.097561001777649,-5.487804889678955,-2.1341464519500732,0.30000001192092896,-16.200000762939453,5.25,38.683528900146484,0,
 502011,0.031005859375,-0.96923828125,-0.119384765625,0.3353658616542816,-3.567073345184326,-1.8902438879013062,2.25,-15.75,4.800000190734863,38.82729721069336,0,
 502021,0.04248046875,-0.989501953125,-0.12255859375,0.9146341681480408,-0.6097561120986938,-1.8597561120986938,1.0499999523162842,-15.0,4.5,38.92314529418945,0,
 502031,0.05029296875,-1.0205078125,-0.104248046875,-1.7073171138763428,0.4878048896789551,-2.1646342277526855,0.44999998807907104,-15.600000381469727,6.900000095367432,38.77937698364258,0,
 502041,0.0654296875,-0.99951171875,-0.10009765625,-6.25,1.3109756708145142,-2.012195110321045,0.44999998807907104,-15.600000381469727,6.900000095367432,38.587684631347656,0,
 502051,0.068603515625,-0.968505859375,-0.1357421875,-9.329268455505371,1.3414634466171265,-2.5304877758026123,2.549999952316284,-15.0,1.5,38.82729721069336,0,
 502061,0.074462890625,-0.93994140625,-0.14892578125,-9.115854263305664,1.2195122241973877,-2.0731706619262695,1.0499999523162842,-16.200000762939453,6.300000190734863,38.63560485839844,0,
 502071,0.0615234375,-0.94970703125,-0.1474609375,-5.97560977935791,0.8841463327407837,-1.3719512224197388,-1.0499999523162842,-15.300000190734863,5.550000190734863,38.683528900146484,0,
 502081,0.064208984375,-0.963134765625,-0.144775390625,-3.5060975551605225,0.7621951103210449,-0.6097561120986938,0.44999998807907104,-16.350000381469727,6.150000095367432,38.92314529418945,0,
 502091,0.057861328125,-0.968505859375,-0.13525390625,-2.7134146690368652,0.7621951103210449,-0.5182926654815674,0.44999998807907104,-16.350000381469727,6.150000095367432,38.587684631347656,0,
 502101,0.066162109375,-0.96875,-0.13427734375,-3.2317073345184326,0.6097561120986938,-0.4573170840740204,1.2000000476837158,-14.850000381469727,6.150000095367432,38.63560485839844,0,
 502111,0.06005859375,-0.966064453125,-0.13818359375,-3.47560977935791,0.6402438879013062,-0.5487805008888245,1.2000000476837158,-15.149999618530273,5.699999809265137,38.92314529418945,0,
 502121,0.061767578125,-0.96630859375,-0.143798828125,-3.2926828861236572,0.8231707215309143,-0.5792682766914368,-1.0499999523162842,-15.0,5.25,38.683528900146484,0,
 502131,0.066650390625,-0.961669921875,-0.142578125,-2.4695122241973877,1.097561001777649,-0.6402438879013062,-1.0499999523162842,-15.0,5.25,38.92314529418945,0,
 502141,0.0634765625,-0.955810546875,-0.145751953125,-1.6158536672592163,0.9451219439506531,-0.4878048896789551,-0.44999998807907104,-15.600000381469727,4.650000095367432,38.77937698364258,0,
 502151,0.066162109375,-0.958984375,-0.1484375,-0.24390244483947754,0.6707317233085632,-0.5792682766914368,1.2000000476837158,-14.850000381469727,2.700000047683716,38.82729721069336,0,
 502161,0.065185546875,-0.961181640625,-0.14404296875,0.792682945728302,0.7317073345184326,-0.12195122241973877,0.44999998807907104,-15.149999618530273,6.150000095367432,38.77937698364258,0,
 502171,0.067626953125,-0.956787109375,-0.146240234375,1.6158536672592163,0.7317073345184326,-0.21341463923454285,0.44999998807907104,-15.149999618530273,6.150000095367432,39.01898956298828,0,
 502181,0.0615234375,-0.96728515625,-0.141845703125,3.2926828861236572,0.4878048896789551,0.24390244483947754,0.15000000596046448,-14.399999618530273,5.699999809265137,38.587684631347656,0,
 502191,0.0615234375,-0.9814453125,-0.13525390625,2.591463565826416,0.6097561120986938,0.3048780560493469,0.30000001192092896,-16.5,4.800000190734863,38.971065521240234,0,
 502201,0.06396484375,-0.976806640625,-0.126953125,1.9817073345184326,0.5487805008888245,0.6097561120986938,0.15000000596046448,-15.600000381469727,5.400000095367432,38.82729721069336,0,
 502211,0.06103515625,-0.975341796875,-0.132568359375,2.195122003555298,0.9146341681480408,0.9451219439506531,0.30000001192092896,-15.75,5.550000190734863,38.971065521240234,0,
 502221,0.0595703125,-0.975341796875,-0.1376953125,1.737804889678955,1.0060975551605225,1.1280487775802612,0.30000001192092896,-15.75,5.550000190734863,38.82729721069336,0,
 502231,0.06005859375,-0.96923828125,-0.134033203125,2.2865853309631348,0.6707317233085632,1.4939024448394775,1.0499999523162842,-15.300000190734863,5.550000190734863,38.77937698364258,0,
 502241,0.059814453125,-0.96923828125,-0.13232421875,2.5,0.6402438879013062,1.2195122241973877,0.8999999761581421,-15.600000381469727,4.949999809265137,38.683528900146484,0,
 502261,0.064208984375,-0.97265625,-0.130615234375,2.804877996444702,0.4573170840740204,0.8841463327407837,0.0,-13.800000190734863,3.299999952316284,38.92314529418945,0,
 502271,0.062744140625,-0.9677734375,-0.137939453125,3.3231709003448486,0.6097561120986938,1.25,0.15000000596046448,-14.399999618530273,5.699999809265137,38.82729721069336,0,
 502281,0.06396484375,-0.965087890625,-0.133544921875,3.353658676147461,0.4573170840740204,1.1890244483947754,0.0,-14.25,5.25,38.63560485839844,0,
 502291,0.06396484375,-0.97021484375,-0.131103515625,3.170731782913208,0.4878048896789551,1.3719512224197388,0.8999999761581421,-16.799999237060547,4.650000095367432,38.92314529418945,0,
 502301,0.066162109375,-0.968994140625,-0.129638671875,2.896341562271118,0.4268292784690857,1.6158536672592163,0.8999999761581421,-15.600000381469727,4.199999809265137,38.92314529418945,0,
 502311,0.051513671875,-0.9716796875,-0.13232421875,2.2865853309631348,0.5792682766914368,1.3414634466171265,0.8999999761581421,-15.600000381469727,4.199999809265137,38.92314529418945,0,
 502321,0.06396484375,-0.9716796875,-0.1318359375,2.7439024448394775,0.396341472864151,1.3719512224197388,0.0,-15.0,7.050000190734863,38.82729721069336,0,
 502331,0.06005859375,-0.9716796875,-0.1259765625,2.682926893234253,0.24390244483947754,1.5243902206420898,1.7999999523162842,-14.550000190734863,6.300000190734863,38.587684631347656,0,
 502341,0.05859375,-0.968505859375,-0.133056640625,3.079268455505371,0.4573170840740204,1.402438998222351,-0.30000001192092896,-15.300000190734863,5.25,38.77937698364258,0,
 502361,0.059814453125,-0.966796875,-0.123779296875,3.5975611209869385,-0.21341463923454285,-0.24390244483947754,1.5,-16.200000762939453,3.299999952316284,38.82729721069336,0,
 502371,0.05615234375,-0.966796875,-0.126708984375,4.207317352294922,-0.5487805008888245,-1.5548781156539917,0.75,-15.300000190734863,4.800000190734863,38.92314529418945,0,
 502381,0.055419921875,-0.96875,-0.139892578125,6.8597564697265625,-1.1280487775802612,-3.2012195587158203,0.0,-15.0,4.5,38.587684631347656,0,
 502391,0.045166015625,-0.9638671875,-0.136474609375,9.329268455505371,-1.9817073345184326,-5.579268455505371,0.0,-15.0,4.5,38.683528900146484,0,
 502401,0.069091796875,-0.978271484375,-0.12158203125,10.70121955871582,-1.9817073345184326,-7.560975551605225,0.75,-16.200000762939453,6.0,38.971065521240234,0,
 502411,0.067138671875,-0.989013671875,-0.11279296875,9.603658676147461,-2.7134146690368652,-8.658536911010742,-0.8999999761581421,-13.949999809265137,5.400000095367432,38.92314529418945,0,
 502421,0.070068359375,-1.00048828125,-0.090087890625,7.195122241973877,-3.262195110321045,-8.780488014221191,1.0499999523162842,-13.350000381469727,5.25,38.77937698364258,0,
 502431,0.08642578125,-0.99462890625,-0.08642578125,3.75,-3.1097562313079834,-7.530488014221191,0.8999999761581421,-15.149999618530273,5.699999809265137,38.63560485839844,0,
 502441,0.069091796875,-0.998291015625,-0.092041015625,1.8292683362960815,-3.9024391174316406,-6.7682929039001465,0.8999999761581421,-15.149999618530273,5.699999809265137,38.82729721069336,0,
 502451,0.059326171875,-0.992431640625,-0.104736328125,-0.7317073345184326,-4.6646342277526855,-6.981707572937012,0.0,-15.75,6.0,38.683528900146484,0,
 502471,0.072265625,-0.966552734375,-0.12890625,-0.3353658616542816,-4.1768293380737305,-9.02439022064209,0.15000000596046448,-15.600000381469727,5.400000095367432,38.971065521240234,0,
 502481,0.07470703125,-0.947265625,-0.14306640625,-0.27439025044441223,-3.170731782913208,-8.170731544494629,0.15000000596046448,-15.600000381469727,5.400000095367432,38.63560485839844,0,
 502491,0.081298828125,-0.9375,-0.155029296875,1.0670732259750366,-1.6768293380737305,-6.158536911010742,0.44999998807907104,-13.949999809265137,4.949999809265137,38.82729721069336,0,
 502501,0.086181640625,-0.93798828125,-0.130126953125,2.77439022064209,-0.27439025044441223,-4.0853657722473145,1.649999976158142,-14.399999618530273,4.949999809265137,38.92314529418945,0,
 502511,0.084716796875,-0.96435546875,-0.110107421875,4.420732021331787,-0.7317073345184326,-3.0182926654815674,0.0,-14.550000190734863,4.050000190734863,38.92314529418945,0,
 502522,0.07275390625,-0.97705078125,-0.11181640625,3.5975611209869385,-0.5182926654815674,-2.8353660106658936,0.15000000596046448,-15.600000381469727,5.400000095367432,38.92314529418945,0,
 502532,0.08251953125,-0.97607421875,-0.1025390625,1.6463414430618286,0.09146341681480408,-2.77439022064209,0.15000000596046448,-15.600000381469727,5.400000095367432,38.63560485839844,0,
 502542,0.077392578125,-0.978515625,-0.106201171875,0.27439025044441223,0.24390244483947754,-1.7073171138763428,0.44999998807907104,-16.799999237060547,4.199999809265137,38.587684631347656,0,
 502552,0.080322265625,-0.970458984375,-0.1181640625,-0.5487805008888245,0.6097561120986938,-1.8292683362960815,1.0499999523162842,-15.300000190734863,6.300000190734863,38.683528900146484,0,
 502572,0.079345703125,-0.986328125,-0.1103515625,-0.396341472864151,0.792682945728302,0.4573170840740204,1.7999999523162842,-15.300000190734863,3.0,38.82729721069336,0,
 502582,0.0771484375,-0.993408203125,-0.10009765625,-2.012195110321045,0.7621951103210449,0.27439025044441223,0.30000001192092896,-15.0,5.25,38.63560485839844,0,
 502592,0.080810546875,-0.981689453125,-0.106689453125,-3.7804877758026123,0.7621951103210449,0.3048780560493469,-0.15000000596046448,-16.799999237060547,5.699999809265137,38.92314529418945,0,
 502602,0.08203125,-0.9609375,-0.107666015625,-4.695122241973877,0.5792682766914368,1.0670732259750366,-0.44999998807907104,-16.350000381469727,5.400000095367432,38.683528900146484,0,
 502612,0.077392578125,-0.9609375,-0.129150390625,-4.0853657722473145,0.396341472864151,0.7621951103210449,1.5,-15.75,3.75,38.683528900146484,0,
 502622,0.07666015625,-0.95263671875,-0.13134765625,-2.682926893234253,0.6402438879013062,1.2195122241973877,1.0499999523162842,-15.0,5.25,38.49183654785156,0,
 502632,0.2919921875,-0.77197265625,-0.239501953125,0.8536585569381714,-1.432926893234253,4.390244007110596,0.30000001192092896,-15.300000190734863,6.75,38.683528900146484,0,
 502642,0.052978515625,-0.93017578125,-0.160888671875,-0.8841463327407837,-0.24390244483947754,1.4634146690368652,0.44999998807907104,-16.799999237060547,4.949999809265137,38.683528900146484,0,
 502652,-0.035400390625,-0.944091796875,-0.13134765625,-2.22560977935791,1.0670732259750366,3.47560977935791,0.15000000596046448,-14.399999618530273,4.199999809265137,38.683528900146484,0,
 502662,-0.084716796875,-0.94921875,-0.142578125,-2.378048896789551,1.1890244483947754,7.987804889678955,0.15000000596046448,-14.399999618530273,4.199999809265137,38.971065521240234,0,
 502672,-0.052978515625,-0.934814453125,-0.16796875,-4.054878234863281,2.9268293380737305,8.170731544494629,-0.75,-16.200000762939453,5.25,38.49183654785156,0,
 502682,-0.1279296875,-0.951171875,-0.16357421875,-4.603658676147461,2.987804889678955,9.02439022064209,0.15000000596046448,-14.399999618530273,5.699999809265137,38.92314529418945,0,
 502692,-0.209716796875,-0.945556640625,-0.17138671875,-5.853658676147461,4.45121955871582,9.329268455505371,1.649999976158142,-14.850000381469727,4.650000095367432,38.92314529418945,0,
 502702,-0.253173828125,-0.97900390625,-0.187744140625,-9.17682933807373,6.463414669036865,10.060976028442383,1.649999976158142,-14.850000381469727,4.650000095367432,38.82729721069336,0,
 502712,-0.227783203125,-0.974853515625,-0.16943359375,-13.170731544494629,8.87195110321045,12.07317066192627,0.44999998807907104,-15.600000381469727,4.949999809265137,38.82729721069336,0,
 502722,-0.160400390625,-0.9150390625,-0.192138671875,-10.060976028442383,8.170731544494629,12.682927131652832,-0.44999998807907104,-16.799999237060547,6.449999809265137,38.683528900146484,0,
 502732,-0.1806640625,-0.9423828125,-0.150390625,-11.707317352294922,8.567073822021484,14.237805366516113,0.15000000596046448,-17.549999237060547,4.949999809265137,38.683528900146484,0,
 502742,-0.083251953125,-0.941650390625,-0.176513671875,-5.0,10.12195110321045,10.487805366516113,-0.15000000596046448,-16.350000381469727,4.199999809265137,38.683528900146484,0,
 502752,0.08349609375,-0.917724609375,-0.0986328125,-0.6402438879013062,6.493902683258057,10.243902206420898,-0.15000000596046448,-16.350000381469727,4.199999809265137,38.82729721069336,0,
 502772,0.0087890625,-0.992919921875,-0.143798828125,-4.0853657722473145,7.134146690368652,17.987804412841797,-0.44999998807907104,-20.25,3.1500000953674316,38.587684631347656,0,
 502782,0.096435546875,-0.973388671875,-0.154541015625,-0.396341472864151,8.079268455505371,17.7439022064209,0.75,-16.950000762939453,7.800000190734863,38.63560485839844,0,
 502792,0.153564453125,-0.958251953125,-0.1240234375,-0.24390244483947754,8.75,18.079269409179688,0.75,-16.950000762939453,7.800000190734863,38.683528900146484,0,
 502802,0.409912109375,-0.994140625,-0.10205078125,-1.0365853309631348,6.615853786468506,16.829269409179688,-1.0499999523162842,-16.950000762939453,4.800000190734863,38.971065521240234,0,
 502812,0.36474609375,-0.939453125,-0.105712890625,-1.4939024448394775,5.091463565826416,11.67682933807373,-1.0499999523162842,-14.550000190734863,6.0,38.971065521240234,0,
 502822,0.302001953125,-0.9873046875,-0.11279296875,2.865853786468506,4.146341323852539,10.060976028442383,0.0,-17.700000762939453,5.550000190734863,38.587684631347656,0,
 502832,0.314697265625,-0.9990234375,-0.104248046875,4.329268455505371,4.2682929039001465,7.957317352294922,0.0,-17.700000762939453,5.550000190734863,38.82729721069336,0,
 502842,0.376953125,-1.0126953125,-0.078857421875,6.6768293380737305,4.390244007110596,4.146341323852539,-0.44999998807907104,-17.549999237060547,5.400000095367432,39.01898956298828,0,
 502852,0.392578125,-1.035400390625,-0.076904296875,7.743902683258057,2.317073106765747,-0.24390244483947754,0.8999999761581421,-15.899999618530273,4.949999809265137,38.82729721069336,0,
 502872,0.356201171875,-1.00048828125,-0.071533203125,6.8597564697265625,0.4573170840740204,-7.134146690368652,-0.8999999761581421,-17.100000381469727,1.649999976158142,38.63560485839844,0,
 502882,0.080078125,-0.98974609375,-0.1171875,4.908536911010742,0.09146341681480408,-5.182927131652832,-0.8999999761581421,-17.100000381469727,1.649999976158142,38.82729721069336,0,
 502892,0.038818359375,-1.003173828125,-0.107421875,0.396341472864151,1.6768293380737305,-1.2804877758026123,-1.7999999523162842,-16.950000762939453,5.550000190734863,38.92314529418945,0,
 502902,-0.008056640625,-1.03662109375,-0.08837890625,1.4939024448394775,0.060975611209869385,-4.847560882568359,-0.75,-16.5,7.050000190734863,38.92314529418945,0,
 502912,0.02294921875,-1.003173828125,-0.107421875,-3.2926828861236572,-0.15243902802467346,-8.75,-2.0999999046325684,-18.0,5.699999809265137,38.82729721069336,0,
 502922,0.05908203125,-0.949462890625,-0.13818359375,-6.189024448394775,0.6707317233085632,-8.62804889678955,-2.0999999046325684,-18.0,5.699999809265137,38.587684631347656,0,
 502932,0.078857421875,-0.957275390625,-0.1376953125,-4.817073345184326,0.8231707215309143,-7.957317352294922,0.75,-17.399999618530273,5.25,38.82729721069336,0,
 502942,0.07177734375,-0.955322265625,-0.126708984375,-3.2012195587158203,0.8231707215309143,-6.25,-1.2000000476837158,-17.100000381469727,4.949999809265137,38.82729721069336,0,
 502952,0.059326171875,-0.97412109375,-0.11865234375,-1.920731782913208,-0.15243902802467346,-4.512195110321045,-0.75,-17.399999618530273,6.75,38.683528900146484,0,
 502962,0.0634765625,-0.97998046875,-0.126953125,-2.103658676147461,-0.24390244483947754,-2.4695122241973877,-0.8999999761581421,-16.350000381469727,6.150000095367432,38.92314529418945,0,
 502982,0.09130859375,-0.96728515625,-0.134033203125,-2.5304877758026123,0.0,-1.8902438879013062,-1.5,-16.950000762939453,5.550000190734863,38.683528900146484,0,
 502992,0.0693359375,-0.96337890625,-0.13720703125,-1.25,0.4878048896789551,-1.4939024448394775,0.0,-16.200000762939453,5.25,38.971065521240234,0,
 503002,0.0654296875,-0.96337890625,-0.13818359375,0.12195122241973877,1.0060975551605225,-1.6158536672592163,-0.8999999761581421,-15.600000381469727,6.150000095367432,38.77937698364258,0,
 503012,0.071533203125,-0.96435546875,-0.128173828125,2.103658676147461,1.3109756708145142,-2.896341562271118,-0.8999999761581421,-15.600000381469727,6.150000095367432,38.683528900146484,0,
 503022,0.06884765625,-0.95556640625,-0.12939453125,3.170731782913208,1.4939024448394775,-3.262195110321045,-1.0499999523162842,-16.950000762939453,6.300000190734863,38.587684631347656,0,
 503032,0.062744140625,-0.967041015625,-0.133544921875,4.054878234863281,2.103658676147461,-3.7804877758026123,-0.30000001192092896,-15.75,6.75,38.82729721069336,0,
 503042,0.060302734375,-0.9580078125,-0.1357421875,4.817073345184326,2.987804889678955,-4.115853786468506,-1.0499999523162842,-16.200000762939453,6.75,39.11483383178711,0,
 503052,0.0625,-0.96142578125,-0.134033203125,5.54878044128418,3.2012195587158203,-3.353658676147461,-1.0499999523162842,-16.200000762939453,6.75,38.49183654785156,0,
 503062,0.048095703125,-0.967041015625,-0.121337890625,6.646341800689697,3.567073345184326,-2.9268293380737305,-1.7999999523162842,-16.950000762939453,6.0,38.92314529418945,0,
 503082,0.052001953125,-0.973876953125,-0.12646484375,7.469512462615967,2.682926893234253,-1.4634146690368652,0.0,-17.700000762939453,6.0,38.82729721069336,0,
 503092,0.05615234375,-0.970947265625,-0.122314453125,7.134146690368652,3.1402440071105957,-1.5548781156539917,-0.8999999761581421,-15.149999618530273,4.949999809265137,38.683528900146484,0,
 503102,0.06103515625,-0.96826171875,-0.11279296875,7.5,3.2012195587158203,-0.6707317233085632,-0.8999999761581421,-15.149999618530273,4.949999809265137,38.92314529418945,0,
 503112,0.062744140625,-0.98828125,-0.124755859375,6.890244007110596,3.2317073345184326,-0.5487805008888245,-0.30000001192092896,-15.300000190734863,7.5,38.395992279052734,0,
 503122,0.04248046875,-0.965576171875,-0.1083984375,6.981707572937012,2.987804889678955,-0.792682945728302,0.44999998807907104,-16.350000381469727,5.400000095367432,38.77937698364258,0,
 503132,0.044189453125,-0.96484375,-0.104736328125,7.0731706619262695,2.804877996444702,0.060975611209869385,0.0,-16.5,5.550000190734863,38.82729721069336,0,
 503142,0.044921875,-0.967041015625,-0.103271484375,7.530488014221191,2.5,0.060975611209869385,0.0,-16.5,5.550000190734863,38.92314529418945,0,
 503152,0.046875,-0.962890625,-0.107421875,7.957317352294922,1.585365891456604,0.21341463923454285,-1.0499999523162842,-15.75,4.800000190734863,38.587684631347656,0,
 503162,0.047607421875,-0.974365234375,-0.105224609375,7.896341800689697,0.6707317233085632,-0.396341472864151,-2.25,-17.399999618530273,5.550000190734863,38.77937698364258,0,
 503172,0.0576171875,-0.970458984375,-0.093017578125,7.317073345184326,0.4878048896789551,-0.18292683362960815,0.15000000596046448,-18.299999237060547,5.25,38.77937698364258,0,
 503182,0.062255859375,-0.9794921875,-0.095947265625,6.8597564697265625,0.24390244483947754,-0.09146341681480408,0.15000000596046448,-18.299999237060547,4.650000095367432,38.82729721069336,0,
 503192,0.060302734375,-0.974609375,-0.103271484375,6.554878234863281,-0.060975611209869385,-0.396341472864151,0.15000000596046448,-18.299999237060547,4.650000095367432,38.92314529418945,0,
 503202,0.064697265625,-0.977783203125,-0.097900390625,5.70121955871582,0.09146341681480408,0.21341463923454285,0.0,-16.5,6.0,38.971065521240234,0,
 503212,0.067626953125,-0.979736328125,-0.094482421875,5.0,-0.21341463923454285,0.4878048896789551,-0.44999998807907104,-14.850000381469727,5.400000095367432,38.44391632080078,0,
 503222,0.060791015625,-0.9833984375,-0.094482421875,3.5060975551605225,-0.12195122241973877,0.8231707215309143,-0.44999998807907104,-16.350000381469727,5.699999809265137,38.971065521240234,0,
 503232,0.0615234375,-0.979736328125,-0.098388671875,2.6524391174316406,-0.030487805604934692,1.25,-0.44999998807907104,-16.350000381469727,5.699999809265137,38.92314529418945,0,
 503242,0.056396484375,-0.984130859375,-0.103271484375,2.012195110321045,0.18292683362960815,1.3719512224197388,-1.649999976158142,-15.600000381469727,7.199999809265137,38.77937698364258,0,
 503252,0.0576171875,-0.9794921875,-0.100830078125,2.012195110321045,0.18292683362960815,1.402438998222351,-1.2000000476837158,-15.899999618530273,4.949999809265137,38.82729721069336,0,
 503262,0.0595703125,-0.972412109375,-0.099609375,1.2195122241973877,0.24390244483947754,1.585365891456604,-0.30000001192092896,-16.5,4.5,38.92314529418945,0,
 503282,0.06640625,-0.976318359375,-0.102783203125,1.6158536672592163,0.030487805604934692,1.402438998222351,0.0,-15.75,2.549999952316284,39.01898956298828,0,
 503292,0.0556640625,-0.971435546875,-0.10009765625,1.402438998222351,0.3353658616542816,1.4634146690368652,-1.0499999523162842,-16.5,5.25,38.77937698364258,0,
 503302,0.056396484375,-0.972900390625,-0.092041015625,1.4634146690368652,-0.030487805604934692,1.0670732259750366,-1.0499999523162842,-16.200000762939453,5.25,38.82729721069336,0,
 503312,0.06005859375,-0.9794921875,-0.093017578125,1.6768293380737305,0.396341472864151,1.097561001777649,-1.0499999523162842,-16.200000762939453,5.25,38.82729721069336,0,
 503322,0.058349609375,-0.981201171875,-0.093505859375,1.097561001777649,0.0,0.792682945728302,-1.0499999523162842,-16.200000762939453,5.25,38.82729721069336,0,
 503332,0.056640625,-0.977783203125,-0.08544921875,0.3048780560493469,0.4573170840740204,0.8841463327407837,-0.15000000596046448,-14.399999618530273,4.949999809265137,38.77937698364258,0,
 503342,0.06396484375,-0.9853515625,-0.092041015625,0.060975611209869385,0.060975611209869385,0.9756097793579102,-0.8999999761581421,-16.799999237060547,4.949999809265137,38.971065521240234,0,
 503353,0.0576171875,-0.979248046875,-0.091064453125,-0.7317073345184326,0.396341472864151,0.7317073345184326,-0.8999999761581421,-16.799999237060547,4.949999809265137,38.77937698364258,0,
 503363,0.062255859375,-0.983642578125,-0.09716796875,-1.0670732259750366,0.4268292784690857,0.4573170840740204,-0.8999999761581421,-16.799999237060547,4.949999809265137,38.587684631347656,0,
 503373,0.0517578125,-0.982177734375,-0.09521484375,-1.4939024448394775,0.3658536672592163,0.9146341681480408,-1.0499999523162842,-15.300000190734863,4.800000190734863,38.82729721069336,0,
 503393,0.060302734375,-0.970947265625,-0.100341796875,-1.8902438879013062,0.4878048896789551,0.4573170840740204,-2.0999999046325684,-17.100000381469727,4.949999809265137,38.82729721069336,0,
 503403,0.0595703125,-0.970703125,-0.09716796875,-1.737804889678955,0.5487805008888245,0.5792682766914368,-2.0999999046325684,-17.100000381469727,4.949999809265137,38.971065521240234,0,
 503413,0.06103515625,-0.974609375,-0.10107421875,-1.8597561120986938,0.3658536672592163,0.27439025044441223,-2.0999999046325684,-17.100000381469727,4.949999809265137,38.63560485839844,0,
 503423,0.05908203125,-0.9716796875,-0.101318359375,-1.9817073345184326,0.27439025044441223,0.4573170840740204,0.15000000596046448,-14.399999618530273,6.150000095367432,39.01898956298828,0,
 503433,0.0595703125,-0.9755859375,-0.09814453125,-1.8902438879013062,0.4268292784690857,0.792682945728302,-0.75,-15.75,4.050000190734863,38.971065521240234,0,
 503443,0.061279296875,-0.96533203125,-0.10546875,-2.408536672592163,0.3353658616542816,0.396341472864151,-0.75,-15.75,4.050000190734863,38.683528900146484,0,
 503453,0.0576171875,-0.97119140625,-0.100341796875,-1.585365891456604,0.4878048896789551,-0.09146341681480408,-0.75,-15.75,4.050000190734863,38.683528900146484,0,
 503463,0.063720703125,-0.967041015625,-0.10595703125,-1.7987805604934692,0.4268292784690857,0.18292683362960815,-38.400001525878906,-15.899999618530273,6.150000095367432,38.587684631347656,0,
 503473,0.060546875,-0.974609375,-0.097900390625,-0.7317073345184326,0.6402438879013062,0.21341463923454285,-0.75,-13.350000381469727,4.5,38.683528900146484,0,
 503493,0.058837890625,-0.968994140625,-0.096923828125,-0.6097561120986938,0.396341472864151,0.6097561120986938,-0.75,-13.350000381469727,4.5,38.587684631347656,0,
 503503,0.058837890625,-0.97265625,-0.09765625,-0.3658536672592163,0.396341472864151,0.5487805008888245,-1.0499999523162842,-15.75,5.25,38.683528900146484,0,
 503513,0.0556640625,-0.973388671875,-0.100830078125,-0.12195122241973877,0.5182926654815674,0.7621951103210449,-1.5,-16.950000762939453,4.5,38.82729721069336,0,
 503523,0.0615234375,-0.968994140625,-0.1015625,-0.3353658616542816,0.5792682766914368,0.6097561120986938,-1.7999999523162842,-16.950000762939453,4.800000190734863,38.92314529418945,0,
 503533,0.054931640625,-0.97509765625,-0.10107421875,-0.15243902802467346,0.4878048896789551,0.7621951103210449,-1.7999999523162842,-16.950000762939453,4.800000190734863,38.92314529418945,0,
 503543,0.05419921875,-0.97119140625,-0.095947265625,-0.060975611209869385,0.7012194991111755,0.9146341681480408,-1.7999999523162842,-16.950000762939453,4.800000190734863,38.683528900146484,0,
 503553,0.06298828125,-0.970703125,-0.099609375,-0.030487805604934692,0.396341472864151,1.0060975551605225,-0.8999999761581421,-17.100000381469727,4.949999809265137,38.587684631347656,0,
 503563,0.066162109375,-0.96875,-0.09912109375,0.4268292784690857,0.3658536672592163,1.1280487775802612,-1.5,-16.5,6.0,38.82729721069336,0,
 503573,0.060302734375,-0.97265625,-0.09765625,0.09146341681480408,0.3658536672592163,0.4878048896789551,-1.5,-16.5,6.0,38.92314529418945,0,
 503583,0.05615234375,-0.970703125,-0.104736328125,0.4268292784690857,0.5182926654815674,0.5487805008888245,-1.5,-16.5,6.0,38.82729721069336,0,
 503593,0.059814453125,-0.974609375,-0.09619140625,0.5182926654815674,0.6097561120986938,0.8231707215309143,-0.75,-15.75,6.75,38.82729721069336,0,
 503603,0.052978515625,-0.978515625,-0.097900390625,-0.030487805604934692,0.3353658616542816,0.5487805008888245,-0.15000000596046448,-14.399999618530273,5.400000095367432,38.77937698364258,0,
 503613,0.064697265625,-0.9794921875,-0.091064453125,-0.18292683362960815,0.21341463923454285,0.6097561120986938,0.44999998807907104,-16.799999237060547,4.650000095367432,38.82729721069336,0,
 503623,0.0546875,-0.974609375,-0.094482421875,0.09146341681480408,0.27439025044441223,0.5487805008888245,0.44999998807907104,-16.799999237060547,4.650000095367432,38.587684631347656,0,
 503633,0.054931640625,-0.982421875,-0.09765625,-0.6097561120986938,0.24390244483947754,0.3048780560493469,-0.15000000596046448,-16.799999237060547,5.699999809265137,38.82729721069336,0,
 503643,0.0615234375,-0.975341796875,-0.099365234375,-0.6402438879013062,0.3353658616542816,0.12195122241973877,0.30000001192092896,-16.200000762939453,6.0,38.971065521240234,0,
 503653,0.0595703125,-0.9736328125,-0.102294921875,-0.6402438879013062,0.4268292784690857,0.21341463923454285,-0.15000000596046448,-14.399999618530273,4.650000095367432,38.587684631347656,0,
 503663,0.059814453125,-0.968994140625,-0.099853515625,-0.18292683362960815,0.396341472864151,0.3353658616542816,-0.15000000596046448,-14.399999618530273,4.650000095367432,38.971065521240234,0,
 503673,0.055908203125,-0.969970703125,-0.10107421875,-0.4268292784690857,0.18292683362960815,0.5487805008888245,-1.7999999523162842,-15.300000190734863,5.25,38.92314529418945,0,
 503683,0.060791015625,-0.97509765625,-0.095458984375,-0.3658536672592163,0.030487805604934692,0.3353658616542816,0.75,-16.950000762939453,2.549999952316284,38.92314529418945,0,
 503693,0.05908203125,-0.97900390625,-0.094970703125,-0.18292683362960815,0.030487805604934692,0.3048780560493469,-0.75,-16.5,4.800000190734863,38.82729721069336,0,
 503703,0.058349609375,-0.974365234375,-0.1015625,-0.4573170840740204,0.5792682766914368,0.27439025044441223,-0.75,-16.5,4.800000190734863,38.683528900146484,0,
 503713,0.052734375,-0.97314453125,-0.093505859375,-0.15243902802467346,0.3658536672592163,0.24390244483947754,-0.30000001192092896,-15.75,4.800000190734863,38.77937698364258,0,
 503723,0.05615234375,-0.971435546875,-0.098876953125,-0.27439025044441223,0.27439025044441223,-0.030487805604934692,-2.0999999046325684,-17.549999237060547,6.150000095367432,38.82729721069336,0,
 503733,0.056884765625,-0.973876953125,-0.1005859375,0.060975611209869385,0.27439025044441223,-0.12195122241973877,-1.5,-15.300000190734863,4.800000190734863,38.82729721069336,0,
 503743,0.059814453125,-0.97119140625,-0.09619140625,0.18292683362960815,0.21341463923454285,0.18292683362960815,-0.30000001192092896,-16.200000762939453,5.25,38.82729721069336,0,
 503753,0.058349609375,-0.9697265625,-0.098388671875,-0.27439025044441223,0.15243902802467346,0.0,-0.30000001192092896,-16.200000762939453,5.25,38.82729721069336,0,
 503763,0.060302734375,-0.973876953125,-0.096923828125,-0.21341463923454285,0.24390244483947754,0.030487805604934692,-1.7999999523162842,-16.200000762939453,4.800000190734863,38.82729721069336,0,
 503773,0.056884765625,-0.975341796875,-0.093505859375,-0.4878048896789551,0.3353658616542816,0.12195122241973877,-0.44999998807907104,-16.350000381469727,4.949999809265137,38.82729721069336,0,
 503783,0.05322265625,-0.9765625,-0.09765625,-0.6707317233085632,0.24390244483947754,0.27439025044441223,0.15000000596046448,-16.350000381469727,1.649999976158142,38.92314529418945,0,
 503793,0.05810546875,-0.970947265625,-0.10009765625,-1.1280487775802612,0.030487805604934692,0.4268292784690857,0.15000000596046448,-16.350000381469727,1.649999976158142,38.92314529418945,0,
 503803,0.05810546875,-0.978515625,-0.103515625,-1.4634146690368652,0.27439025044441223,0.27439025044441223,0.30000001192092896,-15.300000190734863,4.5,38.587684631347656,0,
 503813,0.05908203125,-0.979248046875,-0.10400390625,-1.3109756708145142,0.27439025044441223,0.060975611209869385,0.44999998807907104,-16.350000381469727,4.199999809265137,38.82729721069336,0,
 503823,0.05859375,-0.9765625,-0.09765625,-0.8841463327407837,0.5487805008888245,0.0,-0.75,-15.300000190734863,4.800000190734863,38.82729721069336,0,
 503833,0.0615234375,-0.980224609375,-0.095947265625,-1.0365853309631348,0.27439025044441223,0.3658536672592163,-1.0499999523162842,-14.550000190734863,4.800000190734863,38.77937698364258,0,
 503843,0.0576171875,-0.973388671875,-0.10009765625,-1.2804877758026123,0.3048780560493469,0.4878048896789551,0.15000000596046448,-13.949999809265137,4.650000095367432,38.971065521240234,0,
 503853,0.06201171875,-0.9716796875,-0.09619140625,-1.402438998222351,0.18292683362960815,-0.12195122241973877,-0.75,-15.300000190734863,6.0,38.63560485839844,0,
 503863,0.06201171875,-0.973876953125,-0.094970703125,-1.4939024448394775,0.3048780560493469,0.3353658616542816,-0.30000001192092896,-16.200000762939453,6.300000190734863,38.63560485839844,0,
 503873,0.0595703125,-0.970947265625,-0.096435546875,-1.585365891456604,0.4878048896789551,0.21341463923454285,0.44999998807907104,-16.799999237060547,5.699999809265137,38.683528900146484,0,
 503883,0.055908203125,-0.977294921875,-0.099365234375,-1.5548781156539917,0.3658536672592163,0.3353658616542816,0.44999998807907104,-16.799999237060547,5.699999809265137,38.971065521240234,0,
 503903,0.05859375,-0.98046875,-0.10009765625,-1.920731782913208,0.3658536672592163,-0.15243902802467346,-0.30000001192092896,-15.75,4.800000190734863,38.587684631347656,0,
 503913,0.060302734375,-0.975830078125,-0.098388671875,-1.7987805604934692,0.21341463923454285,0.15243902802467346,-0.44999998807907104,-15.899999618530273,6.150000095367432,38.77937698364258,0,
 503923,0.05908203125,-0.97119140625,-0.09716796875,-1.6158536672592163,0.21341463923454285,0.21341463923454285,-0.44999998807907104,-15.899999618530273,6.150000095367432,38.77937698364258,0,
 503933,0.055908203125,-0.9677734375,-0.100341796875,-1.7682926654815674,0.4573170840740204,-0.15243902802467346,-1.2000000476837158,-15.600000381469727,5.400000095367432,38.77937698364258,0,
 503943,0.0546875,-0.9755859375,-0.101318359375,-1.6158536672592163,0.5487805008888245,0.12195122241973877,-0.15000000596046448,-18.0,5.400000095367432,38.971065521240234,0,
 503953,0.056640625,-0.970947265625,-0.10009765625,-1.4939024448394775,0.27439025044441223,0.3048780560493469,0.0,-17.399999618530273,4.050000190734863,38.49183654785156,0,
 503963,0.056396484375,-0.97265625,-0.099609375,-1.6158536672592163,0.27439025044441223,-0.060975611209869385,-0.8999999761581421,-16.799999237060547,6.150000095367432,39.01898956298828,0,
 503973,0.056884765625,-0.974609375,-0.096923828125,-1.2804877758026123,0.09146341681480408,-0.09146341681480408,-0.8999999761581421,-16.799999237060547,6.150000095367432,38.92314529418945,0,
 503983,0.0576171875,-0.966552734375,-0.09912109375,-1.402438998222351,0.18292683362960815,0.0,-0.8999999761581421,-15.600000381469727,4.199999809265137,38.82729721069336,0,
 503993,0.055908203125,-0.979248046875,-0.10107421875,-1.4634146690368652,0.24390244483947754,0.09146341681480408,-1.2000000476837158,-18.75,4.650000095367432,38.63560485839844,0,
 504013,0.056640625,-0.973876953125,-0.104736328125,-1.097561001777649,0.3658536672592163,0.09146341681480408,-0.75,-16.200000762939453,6.0,38.77937698364258,0,
 504023,0.05517578125,-0.9677734375,-0.10107421875,-0.9451219439506531,0.4268292784690857,0.060975611209869385,-1.2000000476837158,-16.799999237060547,4.949999809265137,38.92314529418945,0,
 504033,0.060791015625,-0.97509765625,-0.099853515625,-1.0060975551605225,0.3658536672592163,0.0,-1.0499999523162842,-15.300000190734863,6.75,38.92314529418945,0,
 504043,0.066162109375,-0.977294921875,-0.10498046875,-1.0670732259750366,0.396341472864151,0.3658536672592163,-0.8999999761581421,-15.899999618530273,5.699999809265137,38.683528900146484,0,
 504053,0.057373046875,-0.970703125,-0.101318359375,-0.5792682766914368,0.4878048896789551,0.4878048896789551,-0.8999999761581421,-15.899999618530273,5.699999809265137,38.92314529418945,0,
 504063,0.064208984375,-0.97509765625,-0.09912109375,-1.1280487775802612,0.3048780560493469,0.3353658616542816,-1.0499999523162842,-15.300000190734863,5.550000190734863,38.683528900146484,0,
 504073,0.0615234375,-0.976318359375,-0.1005859375,-1.0365853309631348,0.4268292784690857,0.7012194991111755,0.0,-15.0,4.800000190734863,38.971065521240234,0,
 504083,0.060546875,-0.9755859375,-0.099365234375,-0.9451219439506531,0.396341472864151,0.7012194991111755,-1.0499999523162842,-17.399999618530273,5.550000190734863,38.971065521240234,0,
 504093,0.05419921875,-0.975830078125,-0.10498046875,-0.7012194991111755,0.5487805008888245,0.7621951103210449,0.8999999761581421,-17.100000381469727,1.649999976158142,38.63560485839844,0,
 504103,0.052978515625,-0.971923828125,-0.09716796875,-0.6402438879013062,0.21341463923454285,0.396341472864151,0.8999999761581421,-17.100000381469727,1.649999976158142,39.11483383178711,0,
 504113,0.060302734375,-0.970947265625,-0.10693359375,-0.3353658616542816,0.24390244483947754,0.3353658616542816,-1.2000000476837158,-16.799999237060547,5.699999809265137,38.683528900146484,0,
 504123,0.0576171875,-0.971435546875,-0.104248046875,0.3658536672592163,0.18292683362960815,0.3048780560493469,-0.15000000596046448,-17.100000381469727,5.699999809265137,39.11483383178711,0,
 504133,0.056396484375,-0.972412109375,-0.099609375,0.21341463923454285,0.3353658616542816,0.4573170840740204,-1.5,-16.200000762939453,5.550000190734863,38.92314529418945,0,
 504143,0.059814453125,-0.970458984375,-0.096435546875,-0.24390244483947754,0.24390244483947754,0.3353658616542816,-1.5,-16.200000762939453,5.550000190734863,38.77937698364258,0,
 504153,0.0576171875,-0.9775390625,-0.099365234375,-0.4573170840740204,0.3048780560493469,0.4573170840740204,0.30000001192092896,-15.75,4.5,38.82729721069336,0,
 504163,0.06103515625,-0.976806640625,-0.102783203125,-0.5792682766914368,0.5487805008888245,0.3353658616542816,-1.2000000476837158,-14.850000381469727,4.949999809265137,38.92314529418945,0,
 504174,0.05712890625,-0.974609375,-0.101806640625,-0.9451219439506531,0.27439025044441223,0.27439025044441223,0.0,-15.0,6.75,38.92314529418945,0,
 504184,0.057861328125,-0.976318359375,-0.0986328125,-0.8231707215309143,0.18292683362960815,0.5792682766914368,-0.8999999761581421,-15.600000381469727,4.949999809265137,38.92314529418945,0,
 504614,0.059814453125,-0.971435546875,-0.101318359375,-0.8536585569381714,0.3353658616542816,0.24390244483947754,-0.75,-16.950000762939453,5.25,38.92314529418945,0,
 504624,0.060302734375,-0.973388671875,-0.10693359375,-0.6707317233085632,0.396341472864151,0.060975611209869385,-0.75,-14.550000190734863,4.800000190734863,38.82729721069336,0,
 504634,0.05859375,-0.97119140625,-0.101318359375,-0.5487805008888245,0.030487805604934692,0.396341472864151,-0.75,-14.550000190734863,4.800000190734863,38.683528900146484,0,
 504644,0.057373046875,-0.973388671875,-0.106201171875,-0.4573170840740204,0.4573170840740204,0.6707317233085632,-0.30000001192092896,-15.0,4.5,38.82729721069336,0,
 504654,0.05517578125,-0.96923828125,-0.1064453125,-0.18292683362960815,0.4268292784690857,0.6402438879013062,-0.8999999761581421,-14.850000381469727,4.650000095367432,38.63560485839844,0,
 504664,0.054931640625,-0.972412109375,-0.103759765625,-0.15243902802467346,0.4573170840740204,0.6402438879013062,-0.8999999761581421,-16.799999237060547,4.199999809265137,38.92314529418945,0,
 504674,0.05517578125,-0.97607421875,-0.1015625,-0.5182926654815674,0.12195122241973877,0.6707317233085632,-0.8999999761581421,-16.799999237060547,4.199999809265137,38.77937698364258,0,
 504684,0.057861328125,-0.981201171875,-0.10546875,-0.396341472864151,0.21341463923454285,0.4268292784690857,-1.7999999523162842,-16.200000762939453,4.050000190734863,38.587684631347656,0,
 504694,0.060546875,-0.9736328125,-0.103515625,-0.15243902802467346,0.27439025044441223,0.3658536672592163,0.44999998807907104,-17.549999237060547,5.699999809265137,38.92314529418945,0,
 504704,0.058349609375,-0.97314453125,-0.10107421875,-0.4878048896789551,0.4878048896789551,0.3048780560493469,0.30000001192092896,-13.350000381469727,4.050000190734863,38.92314529418945,0,
 504714,0.055908203125,-0.97265625,-0.103271484375,-0.4573170840740204,0.15243902802467346,0.4268292784690857,-1.7999999523162842,-15.300000190734863,5.25,38.971065521240234,0,
 504724,0.0615234375,-0.974853515625,-0.108154296875,-0.3658536672592163,0.4268292784690857,0.396341472864151,-0.15000000596046448,-15.899999618530273,5.699999809265137,38.971065521240234,0,
 504734,0.057861328125,-0.978515625,-0.103271484375,-0.060975611209869385,0.4573170840740204,0.4573170840740204,-0.75,-15.75,5.550000190734863,38.44391632080078,0,
 504744,0.056884765625,-0.9755859375,-0.106689453125,-0.5182926654815674,0.4573170840740204,0.18292683362960815,-1.7999999523162842,-14.550000190734863,4.5,38.77937698364258,0,
 504754,0.062255859375,-0.970947265625,-0.1005859375,-0.396341472864151,0.3048780560493469,0.24390244483947754,0.0,-16.200000762939453,7.050000190734863,38.92314529418945,0,
 504764,0.0546875,-0.97705078125,-0.09912109375,-0.12195122241973877,0.060975611209869385,0.4268292784690857,0.0,-16.200000762939453,7.050000190734863,38.683528900146484,0,
 504774,0.058837890625,-0.97412109375,-0.103515625,-0.7012194991111755,0.4573170840740204,0.3353658616542816,0.0,-17.399999618530273,7.5,38.92314529418945,0,
 504784,0.057861328125,-0.974609375,-0.10205078125,-0.6097561120986938,0.3658536672592163,0.21341463923454285,0.8999999761581421,-15.899999618530273,5.699999809265137,38.63560485839844,0,
 504794,0.052978515625,-0.973876953125,-0.099365234375,-0.4573170840740204,0.12195122241973877,0.09146341681480408,-0.30000001192092896,-15.300000190734863,4.800000190734863,38.683528900146484,0,
 504804,0.0576171875,-0.97509765625,-0.107177734375,-0.4268292784690857,0.4573170840740204,0.24390244483947754,-0.30000001192092896,-15.300000190734863,4.800000190734863,38.82729721069336,0,
 504814,0.05322265625,-0.97509765625,-0.101806640625,-0.15243902802467346,0.21341463923454285,0.09146341681480408,0.30000001192092896,-16.200000762939453,4.800000190734863,38.92314529418945,0,
 504824,0.060546875,-0.975830078125,-0.1005859375,-0.396341472864151,0.27439025044441223,-0.030487805604934692,0.44999998807907104,-14.850000381469727,4.650000095367432,38.82729721069336,0,
 504834,0.05810546875,-0.9677734375,-0.1025390625,-0.24390244483947754,0.5487805008888245,0.060975611209869385,-0.15000000596046448,-15.899999618530273,4.650000095367432,38.587684631347656,0,
 504844,0.058349609375,-0.9814453125,-0.102783203125,-0.3353658616542816,0.3658536672592163,0.3353658616542816,-0.44999998807907104,-16.350000381469727,4.650000095367432,38.92314529418945,0,
 504854,0.05322265625,-0.97900390625,-0.103515625,-0.5487805008888245,0.21341463923454285,0.27439025044441223,-0.44999998807907104,-16.350000381469727,4.650000095367432,38.82729721069336,0,
 504864,0.051513671875,-0.97412109375,-0.101318359375,-0.3658536672592163,0.396341472864151,0.27439025044441223,-0.75,-15.75,5.25,38.683528900146484,0,
 504874,0.054443359375,-0.97607421875,-0.100830078125,-0.8231707215309143,0.3048780560493469,0.27439025044441223,1.0499999523162842,-15.0,5.550000190734863,38.92314529418945,0,
 504884,0.060302734375,-0.9716796875,-0.1044921875,-1.25,0.3048780560493469,0.6402438879013062,-1.2000000476837158,-16.799999237060547,5.400000095367432,38.92314529418945,0,
 504894,0.05078125,-0.968994140625,-0.104248046875,-0.9756097793579102,0.3658536672592163,0.21341463923454285,-1.2000000476837158,-16.799999237060547,5.400000095367432,38.971065521240234,0,
 504904,0.053466796875,-0.968017578125,-0.1083984375,-0.8841463327407837,0.24390244483947754,0.5792682766914368,-0.8999999761581421,-15.600000381469727,6.449999809265137,38.971065521240234,0,
 504914,0.05419921875,-0.97314453125,-0.101806640625,-0.7012194991111755,0.396341472864151,0.5182926654815674,0.15000000596046448,-15.899999618530273,1.9500000476837158,39.01898956298828,0,
 504924,0.054931640625,-0.97412109375,-0.104736328125,-0.9451219439506531,0.09146341681480408,0.3658536672592163,-1.5,-16.200000762939453,5.25,38.63560485839844,0,
 504934,0.05810546875,-0.974609375,-0.10205078125,-0.5792682766914368,0.6097561120986938,0.4268292784690857,-0.75,-14.550000190734863,6.300000190734863,38.971065521240234,0,
 504944,0.059814453125,-0.969482421875,-0.09521484375,-0.396341472864151,0.27439025044441223,0.3658536672592163,-0.8999999761581421,-16.799999237060547,4.199999809265137,38.971065521240234,0,
 504954,0.061279296875,-0.976318359375,-0.098388671875,-0.3658536672592163,-0.030487805604934692,0.792682945728302,-1.7999999523162842,-17.399999618530273,4.5,38.587684631347656,0,
 504964,0.05419921875,-0.976318359375,-0.106201171875,-0.3353658616542816,0.4268292784690857,0.7012194991111755,-0.30000001192092896,-15.75,5.25,38.82729721069336,0,
 504974,0.055908203125,-0.97607421875,-0.099853515625,-0.5792682766914368,0.5487805008888245,0.7012194991111755,-0.75,-15.300000190734863,7.5,38.49183654785156,0,
 504984,0.057861328125,-0.96923828125,-0.099853515625,-0.09146341681480408,0.3658536672592163,0.5182926654815674,-0.75,-15.300000190734863,7.5,38.92314529418945,0,
 504995,0.06005859375,-0.970458984375,-0.100341796875,-0.5487805008888245,0.09146341681480408,1.0060975551605225,-1.649999976158142,-15.899999618530273,4.949999809265137,38.82729721069336,0,
 505005,0.058349609375,-0.978271484375,-0.105712890625,-0.4573170840740204,0.27439025044441223,0.6402438879013062,0.30000001192092896,-15.75,6.0,38.82729721069336,0,
 505015,0.06005859375,-0.974853515625,-0.105224609375,-0.18292683362960815,0.15243902802467346,0.6097561120986938,1.5,-17.399999618530273,1.5,38.63560485839844,0,
 505025,0.054931640625,-0.973388671875,-0.103515625,0.0,0.24390244483947754,0.4268292784690857,1.5,-17.399999618530273,1.5,38.63560485839844,0,
 505035,0.057861328125,-0.97314453125,-0.103759765625,-0.3658536672592163,0.21341463923454285,0.5792682766914368,-1.2000000476837158,-16.799999237060547,4.650000095367432,38.683528900146484,0,
 505045,0.053466796875,-0.973388671875,-0.098876953125,-0.3048780560493469,0.5487805008888245,0.5487805008888245,0.15000000596046448,-15.899999618530273,4.199999809265137,39.01898956298828,0,
 505055,0.0595703125,-0.97509765625,-0.10205078125,-0.3353658616542816,0.24390244483947754,0.7621951103210449,-1.2000000476837158,-15.899999618530273,5.699999809265137,38.82729721069336,0,
 505065,0.0576171875,-0.974365234375,-0.102294921875,-0.3658536672592163,0.24390244483947754,0.4573170840740204,-0.8999999761581421,-16.350000381469727,4.949999809265137,38.92314529418945,0,
 505075,0.05859375,-0.97314453125,-0.0986328125,-0.6707317233085632,0.18292683362960815,0.6402438879013062,-0.8999999761581421,-16.350000381469727,4.949999809265137,38.77937698364258,0,
 505085,0.056640625,-0.970458984375,-0.103759765625,-0.4268292784690857,0.21341463923454285,0.27439025044441223,-2.4000000953674316,-17.100000381469727,4.199999809265137,38.92314529418945,0,
 505095,0.05126953125,-0.974365234375,-0.10107421875,-0.3048780560493469,0.27439025044441223,0.030487805604934692,-0.30000001192092896,-16.950000762939453,5.25,38.683528900146484,0,
 505105,0.05908203125,-0.9755859375,-0.102294921875,-0.4878048896789551,0.4573170840740204,-0.030487805604934692,0.44999998807907104,-16.799999237060547,4.949999809265137,38.77937698364258,0,
 505115,0.0556640625,-0.972412109375,-0.103759765625,-0.12195122241973877,0.3353658616542816,0.3048780560493469,0.44999998807907104,-16.799999237060547,4.949999809265137,38.77937698364258,0,
 505125,0.054931640625,-0.977783203125,-0.103759765625,-0.4268292784690857,-0.030487805604934692,0.18292683362960815,-1.0499999523162842,-17.700000762939453,5.550000190734863,38.587684631347656,0,
 505135,0.057373046875,-0.974853515625,-0.100830078125,-0.396341472864151,0.4878048896789551,-0.060975611209869385,-1.5,-16.200000762939453,4.050000190734863,39.01898956298828,0,
 505145,0.052490234375,-0.97216796875,-0.100341796875,-0.4268292784690857,0.24390244483947754,0.396341472864151,-0.8999999761581421,-15.149999618530273,4.199999809265137,38.82729721069336,0,
 505155,0.05322265625,-0.975830078125,-0.106201171875,-0.4878048896789551,0.7621951103210449,0.5792682766914368,-1.0499999523162842,-15.0,3.75,38.77937698364258,0,
 505165,0.05712890625,-0.975830078125,-0.1015625,-0.9146341681480408,0.3658536672592163,0.3658536672592163,-0.8999999761581421,-16.350000381469727,4.650000095367432,39.01898956298828,0,
 505175,0.054931640625,-0.973388671875,-0.099365234375,-0.8231707215309143,0.18292683362960815,0.3353658616542816,0.44999998807907104,-17.549999237060547,4.650000095367432,38.63560485839844,0,
 505185,0.060791015625,-0.974853515625,-0.099365234375,-0.8536585569381714,0.21341463923454285,0.396341472864151,-0.8999999761581421,-15.149999618530273,5.400000095367432,38.77937698364258,0,
 505195,0.0498046875,-0.971923828125,-0.09765625,-0.4573170840740204,0.18292683362960815,0.18292683362960815,-0.8999999761581421,-16.799999237060547,4.199999809265137,38.77937698364258,0,
 505205,0.0517578125,-0.9765625,-0.102294921875,-0.5792682766914368,0.18292683362960815,0.12195122241973877,-0.8999999761581421,-16.799999237060547,4.199999809265137,38.92314529418945,0,
 505215,0.0576171875,-0.97412109375,-0.10400390625,-0.3658536672592163,0.3353658616542816,0.24390244483947754,-1.7999999523162842,-15.75,5.550000190734863,38.82729721069336,0,
 505225,0.055419921875,-0.975341796875,-0.10302734375,-0.3048780560493469,0.3658536672592163,0.396341472864151,-0.44999998807907104,-15.600000381469727,4.949999809265137,38.683528900146484,0,
 505235,0.053955078125,-0.9755859375,-0.1044921875,-0.6707317233085632,0.3048780560493469,0.5792682766914368,-0.44999998807907104,-14.850000381469727,4.199999809265137,38.82729721069336,0,
 505245,0.056884765625,-0.97265625,-0.103759765625,-0.3048780560493469,0.4268292784690857,0.4573170840740204,-0.44999998807907104,-14.850000381469727,4.199999809265137,38.92314529418945,0,
 505255,0.055419921875,-0.97802734375,-0.099853515625,-0.060975611209869385,0.3048780560493469,-0.060975611209869385,-1.2000000476837158,-15.600000381469727,6.449999809265137,38.82729721069336,0,
 505265,0.064453125,-0.971923828125,-0.10009765625,-0.4878048896789551,0.21341463923454285,0.4268292784690857,-0.30000001192092896,-16.5,4.5,38.683528900146484,0,
 505275,0.058349609375,-0.9736328125,-0.104248046875,-0.3353658616542816,0.3048780560493469,0.396341472864151,-0.15000000596046448,-16.799999237060547,6.150000095367432,38.77937698364258,0,
 505285,0.05419921875,-0.97021484375,-0.107177734375,-0.6707317233085632,0.3353658616542816,0.396341472864151,-1.0499999523162842,-16.950000762939453,5.25,38.77937698364258,0,
 505295,0.058349609375,-0.982666015625,-0.096923828125,-0.5182926654815674,0.3353658616542816,0.3658536672592163,-1.0499999523162842,-16.950000762939453,5.25,38.77937698364258,0,
 505305,0.05859375,-0.973876953125,-0.102783203125,-0.6097561120986938,0.21341463923454285,0.21341463923454285,0.0,-15.75,6.0,38.683528900146484,0,
 505315,0.053466796875,-0.9755859375,-0.101806640625,-0.6402438879013062,0.3658536672592163,0.396341472864151,0.0,-17.399999618530273,5.25,38.82729721069336,0,
 505325,0.054931640625,-0.969482421875,-0.10302734375,-0.792682945728302,0.4878048896789551,0.5487805008888245,0.0,-16.5,3.299999952316284,38.683528900146484,0,
 505335,0.060302734375,-0.97265625,-0.10302734375,-0.7012194991111755,0.3353658616542816,0.3353658616542816,0.0,-16.5,3.299999952316284,38.587684631347656,0,
 505345,0.05615234375,-0.97265625,-0.099853515625,-0.3353658616542816,0.27439025044441223,0.396341472864151,-0.75,-16.200000762939453,3.75,38.92314529418945,0,
 505355,0.0537109375,-0.970947265625,-0.10498046875,-0.3658536672592163,0.27439025044441223,0.4573170840740204,0.15000000596046448,-16.799999237060547,3.450000047683716,38.92314529418945,0,
 505365,0.053955078125,-0.978271484375,-0.103271484375,-0.3353658616542816,0.396341472864151,0.3048780560493469,-1.0499999523162842,-16.5,6.300000190734863,39.11483383178711,0,
 505375,0.061279296875,-0.975830078125,-0.10498046875,-0.3048780560493469,0.18292683362960815,0.4573170840740204,-0.30000001192092896,-16.5,3.75,38.82729721069336,0,
 505385,0.058349609375,-0.970947265625,-0.1005859375,-0.3048780560493469,0.3048780560493469,0.396341472864151,0.44999998807907104,-17.100000381469727,4.949999809265137,38.683528900146484,0,
 505395,0.0556640625,-0.9697265625,-0.10302734375,-0.4573170840740204,0.3353658616542816,0.396341472864151,-0.44999998807907104,-16.350000381469727,4.949999809265137,39.2106819152832,0,
 505405,0.05517578125,-0.975341796875,-0.10009765625,-0.4878048896789551,0.4878048896789551,0.3353658616542816,0.15000000596046448,-15.899999618530273,3.9000000953674316,39.01898956298828,0,
 505415,0.058349609375,-0.971435546875,-0.09716796875,-0.8231707215309143,0.3048780560493469,0.3658536672592163,0.8999999761581421,-17.100000381469727,4.949999809265137,38.587684631347656,0,
 505425,0.05517578125,-0.9765625,-0.1005859375,-0.6097561120986938,0.396341472864151,0.5792682766914368,0.8999999761581421,-17.100000381469727,4.949999809265137,38.971065521240234,0,
 505435,0.055908203125,-0.9736328125,-0.099609375,-0.396341472864151,0.24390244483947754,0.4878048896789551,1.2000000476837158,-18.0,4.199999809265137,38.82729721069336,0,
 505445,0.055908203125,-0.974609375,-0.103271484375,-0.9451219439506531,0.4573170840740204,0.030487805604934692,0.0,-16.950000762939453,4.800000190734863,38.683528900146484,0,
 505455,0.060302734375,-0.976806640625,-0.100341796875,-0.7621951103210449,0.5792682766914368,0.060975611209869385,-1.5,-16.200000762939453,4.5,38.971065521240234,0,
 505465,0.058349609375,-0.97509765625,-0.102294921875,-0.9451219439506531,0.27439025044441223,0.4573170840740204,-1.5,-16.200000762939453,4.5,38.77937698364258,0,
 505475,0.05322265625,-0.976318359375,-0.1025390625,-0.792682945728302,0.3353658616542816,0.060975611209869385,-0.44999998807907104,-16.350000381469727,4.949999809265137,38.92314529418945,0,
 505485,0.056640625,-0.9755859375,-0.101318359375,-0.7317073345184326,0.4268292784690857,0.3048780560493469,0.0,-16.950000762939453,4.5,38.92314529418945,0,
 505495,0.056884765625,-0.974365234375,-0.105712890625,-0.9451219439506531,0.3353658616542816,0.21341463923454285,-1.0499999523162842,-16.5,5.25,38.92314529418945,0,
 505505,0.062744140625,-0.971923828125,-0.1103515625,-0.8536585569381714,0.3353658616542816,0.060975611209869385,-1.0499999523162842,-15.300000190734863,4.5,38.683528900146484,0,
 505515,0.0576171875,-0.974609375,-0.103271484375,-0.792682945728302,0.24390244483947754,0.4268292784690857,-1.0499999523162842,-15.300000190734863,4.5,38.683528900146484,0,
 505525,0.05859375,-0.97705078125,-0.10009765625,-0.8841463327407837,0.3048780560493469,0.6097561120986938,1.649999976158142,-16.350000381469727,2.4000000953674316,38.77937698364258,0,
 505535,0.05810546875,-0.97119140625,-0.10498046875,-0.7621951103210449,0.3353658616542816,0.3048780560493469,-2.4000000953674316,-14.399999618530273,4.650000095367432,38.92314529418945,0,
 505545,0.058837890625,-0.976318359375,-0.107421875,-0.792682945728302,0.27439025044441223,0.6402438879013062,-1.649999976158142,-16.350000381469727,3.9000000953674316,38.92314529418945,0,
 505555,0.054443359375,-0.97216796875,-0.105224609375,-0.5487805008888245,0.3658536672592163,0.27439025044441223,-1.649999976158142,-16.350000381469727,3.9000000953674316,39.01898956298828,0,
 505565,0.056396484375,-0.974609375,-0.1015625,-0.060975611209869385,0.24390244483947754,0.3048780560493469,-0.30000001192092896,-16.950000762939453,4.800000190734863,38.77937698364258,0,
 505575,0.05126953125,-0.97802734375,-0.103759765625,-0.6402438879013062,0.18292683362960815,0.3048780560493469,0.0,-16.950000762939453,5.550000190734863,38.92314529418945,0,
 505585,0.056884765625,-0.97314453125,-0.103759765625,-0.12195122241973877,0.3048780560493469,0.3353658616542816,0.0,-18.149999618530273,4.050000190734863,38.77937698364258,0,
 505595,0.056884765625,-0.968017578125,-0.10302734375,-0.5182926654815674,0.3658536672592163,0.060975611209869385,0.0,-18.149999618530273,4.050000190734863,38.82729721069336,0,
 505605,0.057861328125,-0.970703125,-0.107666015625,0.0,0.396341472864151,0.4573170840740204,-0.15000000596046448,-16.799999237060547,5.400000095367432,39.11483383178711,0,
 505615,0.057373046875,-0.96826171875,-0.10400390625,0.09146341681480408,0.3048780560493469,0.3658536672592163,-0.75,-16.200000762939453,5.25,38.683528900146484,0,
 505625,0.0537109375,-0.9765625,-0.102783203125,0.21341463923454285,0.24390244483947754,0.7012194991111755,0.30000001192092896,-14.550000190734863,4.050000190734863,38.92314529418945,0,
 505635,0.05517578125,-0.97412109375,-0.102294921875,0.5182926654815674,0.3658536672592163,0.9146341681480408,-2.0999999046325684,-16.799999237060547,2.700000047683716,38.82729721069336,0,
 505645,0.0595703125,-0.970947265625,-0.09765625,0.27439025044441223,0.18292683362960815,0.6707317233085632,-2.0999999046325684,-16.799999237060547,2.700000047683716,38.77937698364258,0,
 505655,0.054443359375,-0.974853515625,-0.107666015625,0.5182926654815674,0.18292683362960815,0.5792682766914368,-0.15000000596046448,-16.799999237060547,5.699999809265137,38.971065521240234,0,
 505665,0.055419921875,-0.97119140625,-0.100830078125,0.5182926654815674,0.18292683362960815,0.396341472864151,-0.15000000596046448,-16.799999237060547,4.199999809265137,38.82729721069336,0,
 505675,0.0546875,-0.974609375,-0.101806640625,0.24390244483947754,0.27439025044441223,0.6402438879013062,1.5,-15.300000190734863,3.75,38.971065521240234,0,
 505685,0.0615234375,-0.97998046875,-0.102294921875,0.12195122241973877,0.5487805008888245,0.15243902802467346,1.5,-15.300000190734863,3.75,38.82729721069336,0,
 505726,0.0546875,-0.97998046875,-0.101806640625,-0.030487805604934692,0.3353658616542816,0.27439025044441223,-0.8999999761581421,-17.100000381469727,4.650000095367432,38.971065521240234,0,
 505736,0.055419921875,-0.975341796875,-0.109375,-0.21341463923454285,0.4878048896789551,0.18292683362960815,-0.8999999761581421,-17.100000381469727,4.650000095367432,38.82729721069336,0,
 505746,0.05224609375,-0.973876953125,-0.095947265625,-0.15243902802467346,0.396341472864151,0.3658536672592163,-1.649999976158142,-15.600000381469727,4.949999809265137,38.82729721069336,0,
 505756,0.0576171875,-0.976318359375,-0.099609375,-0.6402438879013062,0.3353658616542816,0.24390244483947754,-0.8999999761581421,-16.799999237060547,4.650000095367432,38.82729721069336,0,
 505766,0.048828125,-0.9814453125,-0.099609375,-0.9451219439506531,0.12195122241973877,0.15243902802467346,1.649999976158142,-16.799999237060547,4.949999809265137,38.63560485839844,0,
 505776,0.051513671875,-0.9765625,-0.098876953125,-0.792682945728302,0.3658536672592163,0.3658536672592163,1.649999976158142,-16.799999237060547,4.949999809265137,39.11483383178711,0,
 505786,0.0556640625,-0.970703125,-0.09912109375,-0.9451219439506531,0.24390244483947754,0.5182926654815674,-1.5,-13.350000381469727,4.5,38.92314529418945,0,
 505796,0.05859375,-0.970703125,-0.096923828125,-0.6707317233085632,0.3048780560493469,0.060975611209869385,-2.4000000953674316,-16.799999237060547,5.699999809265137,38.587684631347656,0,
 505806,0.0537109375,-0.974365234375,-0.0986328125,-0.6707317233085632,0.4878048896789551,0.09146341681480408,-0.75,-16.5,7.050000190734863,38.82729721069336,0,
 505816,0.0556640625,-0.9736328125,-0.09619140625,-1.0670732259750366,0.6097561120986938,0.18292683362960815,-0.75,-16.5,7.050000190734863,38.77937698364258,0,
 505826,0.0546875,-0.971435546875,-0.09912109375,-1.0060975551605225,0.21341463923454285,0.6097561120986938,-0.8999999761581421,-15.600000381469727,5.400000095367432,38.92314529418945,0,
 505836,0.055908203125,-0.9716796875,-0.10107421875,-1.0365853309631348,0.3048780560493469,0.3658536672592163,0.44999998807907104,-16.799999237060547,1.649999976158142,38.77937698364258,0,
 505846,0.052734375,-0.970703125,-0.100830078125,-0.7621951103210449,0.3353658616542816,0.4573170840740204,-0.30000001192092896,-15.0,6.300000190734863,39.01898956298828,0,
 505856,0.0576171875,-0.972900390625,-0.1025390625,-0.3048780560493469,0.3353658616542816,0.12195122241973877,0.8999999761581421,-15.600000381469727,4.199999809265137,38.587684631347656,0,
 505866,0.056640625,-0.97265625,-0.099609375,-0.396341472864151,0.396341472864151,0.3658536672592163,0.8999999761581421,-15.600000381469727,4.199999809265137,38.77937698364258,0,
 505876,0.0634765625,-0.973876953125,-0.10205078125,-0.4268292784690857,0.21341463923454285,0.24390244483947754,-0.75,-16.200000762939453,5.25,38.77937698364258,0,
 505886,0.0517578125,-0.970947265625,-0.102783203125,-0.3353658616542816,0.4573170840740204,0.15243902802467346,-1.2000000476837158,-17.549999237060547,4.199999809265137,38.82729721069336,0,
 505896,0.055419921875,-0.970703125,-0.1044921875,-0.030487805604934692,0.3658536672592163,0.18292683362960815,-0.44999998807907104,-16.799999237060547,4.650000095367432,39.01898956298828,0,
 505906,0.058349609375,-0.9736328125,-0.104736328125,-0.15243902802467346,0.3353658616542816,0.27439025044441223,-0.44999998807907104,-16.799999237060547,4.650000095367432,38.683528900146484,0,
 505916,0.0537109375,-0.97265625,-0.104736328125,-0.5182926654815674,0.18292683362960815,0.396341472864151,-1.5,-16.950000762939453,3.75,38.63560485839844,0,
 505926,0.056640625,-0.979736328125,-0.1005859375,-0.3048780560493469,0.3658536672592163,0.5792682766914368,0.30000001192092896,-16.5,4.800000190734863,38.82729721069336,0,
 505936,0.0556640625,-0.97607421875,-0.101318359375,-1.0060975551605225,0.4878048896789551,0.27439025044441223,1.0499999523162842,-16.200000762939453,1.0499999523162842,38.82729721069336,0,
 505946,0.060302734375,-0.9765625,-0.09765625,-0.3353658616542816,0.3048780560493469,0.3658536672592163,-0.8999999761581421,-15.899999618530273,5.699999809265137,38.77937698364258,0,
 505956,0.056640625,-0.97265625,-0.1015625,-0.3353658616542816,0.24390244483947754,0.3353658616542816,-0.8999999761581421,-15.899999618530273,5.699999809265137,38.683528900146484,0,
 505966,0.052734375,-0.974853515625,-0.101318359375,-0.3658536672592163,0.3048780560493469,0.5792682766914368,0.30000001192092896,-16.5,1.5,38.63560485839844,0,
 505976,0.056884765625,-0.968994140625,-0.10595703125,-0.3658536672592163,0.18292683362960815,0.6097561120986938,1.2000000476837158,-15.600000381469727,1.649999976158142,38.77937698364258,0,
 505986,0.056884765625,-0.97607421875,-0.098388671875,-0.3048780560493469,0.24390244483947754,0.27439025044441223,0.15000000596046448,-15.600000381469727,2.4000000953674316,38.683528900146484,0,
 505996,0.05517578125,-0.9765625,-0.102294921875,-0.4268292784690857,0.3353658616542816,0.3658536672592163,0.15000000596046448,-15.600000381469727,2.4000000953674316,38.82729721069336,0,
 506006,0.053955078125,-0.975830078125,-0.103515625,-0.6707317233085632,0.6097561120986938,0.27439025044441223,-0.30000001192092896,-16.5,3.75,38.63560485839844,0,
 506016,0.056640625,-0.98095703125,-0.10107421875,-0.7012194991111755,0.3048780560493469,0.3353658616542816,-0.15000000596046448,-16.350000381469727,4.949999809265137,38.971065521240234,0,
 506026,0.05517578125,-0.97314453125,-0.106201171875,-0.9451219439506531,0.3658536672592163,0.4878048896789551,0.75,-13.800000190734863,3.0,38.92314529418945,0,
 506036,0.057373046875,-0.970947265625,-0.0986328125,-0.792682945728302,0.5487805008888245,0.5792682766914368,0.75,-13.800000190734863,3.0,38.82729721069336,0,
 506046,0.060302734375,-0.975341796875,-0.103759765625,-0.9451219439506531,0.6097561120986938,0.24390244483947754,0.0,-15.300000190734863,4.5,38.92314529418945,0,
 506056,0.049072265625,-0.973388671875,-0.102294921875,-0.8231707215309143,0.3048780560493469,0.5182926654815674,0.44999998807907104,-16.799999237060547,5.400000095367432,38.683528900146484,0,
 506066,0.0595703125,-0.969970703125,-0.10546875,-0.8841463327407837,0.18292683362960815,0.27439025044441223,-1.0499999523162842,-14.25,3.75,38.92314529418945,0,
 506076,0.05322265625,-0.975830078125,-0.102294921875,-0.792682945728302,0.4573170840740204,0.030487805604934692,0.44999998807907104,-16.350000381469727,4.949999809265137,38.82729721069336,0,
 506086,0.04931640625,-0.97998046875,-0.098388671875,-0.9756097793579102,0.4268292784690857,0.27439025044441223,0.44999998807907104,-16.350000381469727,4.949999809265137,38.683528900146484,0,
 506096,0.056884765625,-0.974609375,-0.10498046875,-1.0365853309631348,0.3048780560493469,0.030487805604934692,-1.7999999523162842,-15.75,4.050000190734863,38.63560485839844,0,
 506106,0.053466796875,-0.971923828125,-0.105712890625,-1.2195122241973877,0.09146341681480408,0.15243902802467346,-0.75,-15.0,4.800000190734863,38.49183654785156,0,
 506116,0.052978515625,-0.973876953125,-0.09814453125,-1.2195122241973877,0.24390244483947754,0.3658536672592163,-0.30000001192092896,-16.950000762939453,3.299999952316284,38.77937698364258,0,
 506126,0.053466796875,-0.977294921875,-0.1025390625,-1.3414634466171265,0.4573170840740204,0.5487805008888245,-0.30000001192092896,-16.950000762939453,3.299999952316284,38.587684631347656,0,
 506136,0.060791015625,-0.978759765625,-0.10595703125,-0.792682945728302,0.27439025044441223,0.7012194991111755,-1.5,-15.75,2.549999952316284,38.92314529418945,0,
 506146,0.057861328125,-0.97998046875,-0.101806640625,-1.097561001777649,0.3048780560493469,0.18292683362960815,0.8999999761581421,-15.899999618530273,0.8999999761581421,38.77937698364258,0,
 506156,0.053955078125,-0.971923828125,-0.11181640625,-0.3048780560493469,0.4268292784690857,0.21341463923454285,-0.44999998807907104,-17.100000381469727,4.199999809265137,38.587684631347656,0,
 506166,0.055908203125,-0.974609375,-0.10400390625,-0.7317073345184326,0.27439025044441223,0.4268292784690857,-0.44999998807907104,-15.149999618530273,4.199999809265137,38.77937698364258,0,
 506176,0.062255859375,-0.97021484375,-0.101806640625,-0.7317073345184326,0.4268292784690857,0.24390244483947754,-0.44999998807907104,-15.149999618530273,4.199999809265137,38.92314529418945,0,
 506186,0.06103515625,-0.976318359375,-0.103759765625,-0.6402438879013062,0.4573170840740204,0.18292683362960815,-0.75,-15.75,4.5,38.683528900146484,0,
 506196,0.055908203125,-0.98046875,-0.103759765625,-0.5792682766914368,0.27439025044441223,0.5487805008888245,-0.44999998807907104,-15.899999618530273,4.199999809265137,38.82729721069336,0,
 506206,0.053466796875,-0.976318359375,-0.10205078125,-0.8231707215309143,0.4268292784690857,0.21341463923454285,-0.44999998807907104,-15.600000381469727,4.199999809265137,38.683528900146484,0,
 506216,0.055908203125,-0.978271484375,-0.097412109375,-0.7317073345184326,0.3353658616542816,0.18292683362960815,-0.44999998807907104,-15.600000381469727,4.199999809265137,38.92314529418945,0,
 506226,0.058349609375,-0.969482421875,-0.101806640625,-0.6402438879013062,0.3658536672592163,0.18292683362960815,1.2000000476837158,-15.600000381469727,1.2000000476837158,38.82729721069336,0,
 506236,0.051513671875,-0.970947265625,-0.105224609375,-0.5792682766914368,0.3048780560493469,0.3658536672592163,0.8999999761581421,-16.799999237060547,1.649999976158142,38.77937698364258,0,
 506246,0.0546875,-0.974853515625,-0.105712890625,-0.4573170840740204,0.3353658616542816,0.15243902802467346,-2.25,-17.399999618530273,3.75,38.683528900146484,0,
 506256,0.0537109375,-0.96875,-0.10400390625,-0.4573170840740204,0.5487805008888245,0.6402438879013062,-2.25,-17.399999618530273,3.75,38.971065521240234,0,
 506266,0.056640625,-0.9697265625,-0.111572265625,-0.24390244483947754,0.4878048896789551,-0.030487805604934692,0.75,-16.950000762939453,3.0,38.683528900146484,0,
 506276,0.05419921875,-0.971923828125,-0.103759765625,-0.18292683362960815,0.396341472864151,0.27439025044441223,-0.8999999761581421,-15.149999618530273,1.649999976158142,38.587684631347656,0,
 506286,0.053955078125,-0.9765625,-0.105712890625,-0.4268292784690857,0.3658536672592163,0.396341472864151,-0.8999999761581421,-17.100000381469727,4.650000095367432,38.971065521240234,0,
 506296,0.052001953125,-0.972412109375,-0.1044921875,0.18292683362960815,0.21341463923454285,0.060975611209869385,-0.15000000596046448,-15.600000381469727,4.949999809265137,38.683528900146484,0,
 506306,0.055419921875,-0.97705078125,-0.1025390625,-0.3353658616542816,0.3048780560493469,0.3658536672592163,-0.15000000596046448,-15.600000381469727,4.949999809265137,38.92314529418945,0,
 506316,0.0625,-0.9765625,-0.09521484375,-0.4573170840740204,0.3353658616542816,0.060975611209869385,-1.2000000476837158,-15.149999618530273,4.199999809265137,38.82729721069336,0,
 506326,0.05712890625,-0.97412109375,-0.0986328125,0.030487805604934692,0.09146341681480408,0.27439025044441223,-0.8999999761581421,-16.799999237060547,4.949999809265137,38.77937698364258,0,
 506336,0.055908203125,-0.979248046875,-0.10546875,0.27439025044441223,0.3048780560493469,0.030487805604934692,-1.2000000476837158,-15.600000381469727,5.699999809265137,39.01898956298828,0,
 506346,0.061767578125,-0.978515625,-0.10107421875,0.24390244483947754,0.3048780560493469,0.5182926654815674,-1.2000000476837158,-15.600000381469727,5.699999809265137,38.77937698364258,0,
 506356,0.052001953125,-0.978515625,-0.106689453125,-0.3658536672592163,0.27439025044441223,0.030487805604934692,0.44999998807907104,-15.600000381469727,4.949999809265137,38.92314529418945,0,
 506366,0.060302734375,-0.97509765625,-0.107421875,-0.3048780560493469,0.3353658616542816,0.09146341681480408,-0.30000001192092896,-16.200000762939453,5.25,38.82729721069336,0,
 506376,0.0517578125,-0.97607421875,-0.098876953125,-0.3658536672592163,0.27439025044441223,0.7012194991111755,0.0,-18.149999618530273,3.75,38.82729721069336,0,
 506386,0.05712890625,-0.975341796875,-0.10791015625,-0.27439025044441223,0.24390244483947754,0.6707317233085632,-0.75,-17.399999618530273,5.550000190734863,38.82729721069336,0,
 506396,0.056396484375,-0.973388671875,-0.0966796875,-0.060975611209869385,0.18292683362960815,0.4878048896789551,-0.75,-17.399999618530273,5.550000190734863,38.82729721069336,0,
 506406,0.056640625,-0.976806640625,-0.10400390625,-0.4878048896789551,0.27439025044441223,0.5487805008888245,0.30000001192092896,-15.75,5.25,38.683528900146484,0,
 506416,0.058837890625,-0.970947265625,-0.105224609375,-0.3658536672592163,0.3353658616542816,0.8536585569381714,0.44999998807907104,-16.799999237060547,4.650000095367432,38.63560485839844,0,
 506427,0.054931640625,-0.970458984375,-0.099365234375,-0.5487805008888245,0.5487805008888245,0.15243902802467346,-0.44999998807907104,-15.899999618530273,4.949999809265137,38.92314529418945,0,
 506437,0.049072265625,-0.972412109375,-0.099853515625,-0.5792682766914368,0.4268292784690857,-0.060975611209869385,-0.44999998807907104,-15.899999618530273,4.949999809265137,38.82729721069336,0,
 506447,0.0546875,-0.98095703125,-0.110595703125,-0.21341463923454285,0.4268292784690857,0.24390244483947754,1.5,-13.350000381469727,3.0,38.63560485839844,0,
 506457,0.0546875,-0.973876953125,-0.1083984375,-0.5487805008888245,0.030487805604934692,0.3658536672592163,-0.8999999761581421,-16.799999237060547,4.949999809265137,38.92314529418945,0,
 506467,0.05126953125,-0.976806640625,-0.1005859375,-0.5792682766914368,0.3048780560493469,0.4573170840740204,-0.30000001192092896,-15.75,5.550000190734863,38.82729721069336,0,
 506477,0.055908203125,-0.96923828125,-0.10107421875,-0.396341472864151,0.24390244483947754,0.6707317233085632,-0.30000001192092896,-15.75,5.550000190734863,38.77937698364258,0,
 506487,0.055419921875,-0.973876953125,-0.103759765625,-0.6097561120986938,0.18292683362960815,0.4268292784690857,-0.15000000596046448,-15.899999618530273,5.400000095367432,38.971065521240234,0,
 506497,0.059814453125,-0.974609375,-0.100830078125,-0.4573170840740204,0.4573170840740204,0.3353658616542816,0.75,-16.950000762939453,6.0,38.683528900146484,0,
 506507,0.051513671875,-0.9755859375,-0.103759765625,-0.8231707215309143,0.3048780560493469,0.27439025044441223,-1.2000000476837158,-15.600000381469727,6.449999809265137,38.63560485839844,0,
 506517,0.0546875,-0.9716796875,-0.10595703125,-0.6707317233085632,0.5182926654815674,0.18292683362960815,-0.15000000596046448,-15.899999618530273,5.699999809265137,38.92314529418945,0,
 506527,0.052001953125,-0.972900390625,-0.105712890625,-0.27439025044441223,0.4878048896789551,0.3353658616542816,-0.15000000596046448,-15.899999618530273,5.699999809265137,38.683528900146484,0,
 506537,0.04931640625,-0.970703125,-0.100341796875,-0.27439025044441223,0.21341463923454285,0.0,-0.75,-16.950000762939453,4.050000190734863,38.82729721069336,0,
 506547,0.057373046875,-0.97900390625,-0.10400390625,-0.3048780560493469,0.3353658616542816,0.18292683362960815,0.0,-15.75,4.5,38.92314529418945,0,
 506557,0.0537109375,-0.967041015625,-0.1025390625,-0.5182926654815674,-0.060975611209869385,0.18292683362960815,-0.30000001192092896,-14.550000190734863,4.5,38.971065521240234,0,
 506567,0.051025390625,-0.978515625,-0.1015625,-0.3353658616542816,0.21341463923454285,0.060975611209869385,-0.30000001192092896,-14.550000190734863,4.5,38.77937698364258,0,
 506577,0.05029296875,-0.97314453125,-0.105224609375,-0.3658536672592163,0.21341463923454285,0.396341472864151,-0.75,-15.75,5.550000190734863,38.683528900146484,0,
 506587,0.05126953125,-0.973876953125,-0.103271484375,-0.18292683362960815,0.5792682766914368,0.3048780560493469,-0.75,-16.5,4.800000190734863,38.77937698364258,0,
 506597,0.05712890625,-0.977783203125,-0.103271484375,-0.4268292784690857,0.3658536672592163,0.12195122241973877,-0.30000001192092896,-16.200000762939453,6.0,38.683528900146484,0,
 506607,0.052978515625,-0.975830078125,-0.101806640625,-0.5487805008888245,0.4878048896789551,0.24390244483947754,-0.75,-16.950000762939453,4.800000190734863,39.11483383178711,0,
 506617,0.0546875,-0.97607421875,-0.107421875,-0.8231707215309143,0.396341472864151,0.27439025044441223,0.0,-16.950000762939453,5.25,38.82729721069336,0,
 506627,0.053955078125,-0.97412109375,-0.10400390625,-0.18292683362960815,0.5487805008888245,0.3353658616542816,-0.30000001192092896,-15.0,4.800000190734863,38.82729721069336,0,
 506637,0.05517578125,-0.966796875,-0.1005859375,-0.4268292784690857,0.5487805008888245,0.5487805008888245,-0.75,-16.200000762939453,4.5,38.82729721069336,0,
 506647,0.05029296875,-0.9697265625,-0.105712890625,-0.4573170840740204,0.396341472864151,0.5182926654815674,-0.15000000596046448,-15.600000381469727,4.650000095367432,38.683528900146484,0,
 506657,0.051025390625,-0.970703125,-0.1025390625,-0.3658536672592163,0.4268292784690857,0.4878048896789551,-0.15000000596046448,-15.600000381469727,4.650000095367432,38.82729721069336,0,
 506667,0.054443359375,-0.97705078125,-0.10498046875,-0.6402438879013062,0.3353658616542816,0.3658536672592163,-1.2000000476837158,-16.350000381469727,3.1500000953674316,38.92314529418945,0,
 506677,0.051025390625,-0.97314453125,-0.1044921875,-0.15243902802467346,0.396341472864151,0.396341472864151,-2.0999999046325684,-16.799999237060547,4.650000095367432,38.587684631347656,0,
 506687,0.052734375,-0.968994140625,-0.10498046875,-0.3048780560493469,0.060975611209869385,0.030487805604934692,0.15000000596046448,-16.350000381469727,5.699999809265137,38.82729721069336,0,
 506697,0.053466796875,-0.974853515625,-0.09619140625,-0.15243902802467346,0.3048780560493469,0.12195122241973877,0.15000000596046448,-16.350000381469727,5.699999809265137,38.92314529418945,0,
 506707,0.053955078125,-0.976318359375,-0.099609375,-0.4878048896789551,0.3048780560493469,-0.030487805604934692,-0.8999999761581421,-14.850000381469727,4.949999809265137,38.683528900146484,0,
 506717,0.0595703125,-0.97412109375,-0.102783203125,-0.6707317233085632,0.24390244483947754,0.060975611209869385,-1.649999976158142,-15.600000381469727,3.450000047683716,38.92314529418945,0,
 506727,0.0576171875,-0.96923828125,-0.104248046875,-0.4573170840740204,0.24390244483947754,0.060975611209869385,-1.0499999523162842,-16.5,5.550000190734863,38.77937698364258,0,
 506737,0.056396484375,-0.976806640625,-0.097412109375,-0.4878048896789551,0.060975611209869385,0.060975611209869385,-0.15000000596046448,-15.149999618530273,4.949999809265137,38.683528900146484,0,
 506747,0.05126953125,-0.97705078125,-0.1044921875,-0.4878048896789551,0.24390244483947754,0.3658536672592163,-0.15000000596046448,-15.149999618530273,4.949999809265137,38.92314529418945,0,
 506757,0.060302734375,-0.97802734375,-0.1044921875,-0.792682945728302,0.3048780560493469,0.7621951103210449,-1.2000000476837158,-16.350000381469727,4.949999809265137,38.92314529418945,0,
 506767,0.05126953125,-0.975341796875,-0.094970703125,-0.8841463327407837,0.3353658616542816,0.6097561120986938,-0.15000000596046448,-15.600000381469727,5.699999809265137,38.683528900146484,0,
 506777,0.055908203125,-0.9814453125,-0.099609375,-1.402438998222351,0.3353658616542816,0.6707317233085632,-0.75,-16.5,5.550000190734863,38.82729721069336,0,
 506787,0.052490234375,-0.978271484375,-0.099365234375,-1.5243902206420898,0.6097561120986938,0.7621951103210449,-0.75,-16.5,5.550000190734863,38.63560485839844,0,
 506797,0.052978515625,-0.981689453125,-0.105712890625,-1.8292683362960815,0.3353658616542816,1.0365853309631348,-0.30000001192092896,-14.550000190734863,5.550000190734863,38.683528900146484,0,
 506807,0.057373046875,-0.97021484375,-0.10400390625,-1.585365891456604,0.24390244483947754,0.8231707215309143,-1.2000000476837158,-17.100000381469727,4.949999809265137,38.82729721069336,0,
 506817,0.0517578125,-0.981201171875,-0.103759765625,-1.6158536672592163,0.3658536672592163,1.3109756708145142,-1.0499999523162842,-16.200000762939453,5.25,38.92314529418945,0,
 506827,0.052490234375,-0.977294921875,-0.104736328125,-1.9512195587158203,0.5792682766914368,1.0670732259750366,-1.0499999523162842,-16.200000762939453,4.800000190734863,38.77937698364258,0,
 506837,0.056640625,-0.97998046875,-0.093994140625,-2.987804889678955,0.7621951103210449,1.25,-1.2000000476837158,-17.549999237060547,4.650000095367432,38.683528900146484,0,
 506847,0.05419921875,-0.98046875,-0.095458984375,-3.170731782913208,0.5182926654815674,1.0060975551605225,0.15000000596046448,-17.549999237060547,4.199999809265137,38.683528900146484,0,
 506857,0.060302734375,-0.9755859375,-0.105224609375,-3.567073345184326,1.0060975551605225,1.8597561120986938,1.2000000476837158,-14.850000381469727,3.1500000953674316,38.971065521240234,0,
 506867,0.05029296875,-0.974609375,-0.1044921875,-3.5060975551605225,0.7621951103210449,1.7073171138763428,-0.44999998807907104,-15.149999618530273,5.400000095367432,39.01898956298828,0,
 506877,0.051513671875,-0.9736328125,-0.105224609375,-3.5060975551605225,0.7317073345184326,1.7987805604934692,-0.44999998807907104,-15.149999618530273,5.400000095367432,38.683528900146484,0,
 506887,0.05126953125,-0.97216796875,-0.10595703125,-3.6890244483947754,0.792682945728302,1.7682926654815674,0.0,-16.950000762939453,4.800000190734863,38.63560485839844,0,
 506897,0.0546875,-0.9755859375,-0.113037109375,-3.445122003555298,0.3353658616542816,1.8292683362960815,-1.0499999523162842,-16.950000762939453,4.5,38.82729721069336,0,
 506907,0.052490234375,-0.977783203125,-0.10693359375,-3.1402440071105957,0.7317073345184326,1.6463414430618286,-0.30000001192092896,-15.300000190734863,4.5,38.92314529418945,0,
 506917,0.056640625,-0.967529296875,-0.109375,-2.8353660106658936,0.9146341681480408,1.3719512224197388,-0.30000001192092896,-15.300000190734863,4.5,38.82729721069336,0,
 506927,0.054443359375,-0.964599609375,-0.103759765625,-2.6524391174316406,0.24390244483947754,1.6158536672592163,0.8999999761581421,-15.149999618530273,4.949999809265137,38.92314529418945,0,
 506937,0.05078125,-0.97265625,-0.11376953125,-2.195122003555298,0.5182926654815674,0.9756097793579102,-1.2000000476837158,-15.600000381469727,4.650000095367432,38.587684631347656,0,
 506947,0.054931640625,-0.96826171875,-0.1103515625,-1.8597561120986938,0.18292683362960815,0.3658536672592163,-0.8999999761581421,-16.799999237060547,3.9000000953674316,38.92314529418945,0,
 506957,0.0546875,-0.9716796875,-0.11083984375,-1.6158536672592163,0.21341463923454285,0.27439025044441223,-2.0999999046325684,-14.399999618530273,3.9000000953674316,38.92314529418945,0,
 506967,0.052978515625,-0.966796875,-0.1123046875,-1.3414634466171265,0.09146341681480408,0.4268292784690857,-2.0999999046325684,-14.399999618530273,3.9000000953674316,38.82729721069336,0,
 506977,0.049560546875,-0.971435546875,-0.110595703125,-0.5792682766914368,0.24390244483947754,0.3353658616542816,0.30000001192092896,-14.550000190734863,4.050000190734863,38.82729721069336,0,
 506987,0.048583984375,-0.97216796875,-0.11328125,-0.6097561120986938,0.18292683362960815,0.0,0.15000000596046448,-17.100000381469727,4.949999809265137,38.82729721069336,0,
 506997,0.0537109375,-0.970703125,-0.112548828125,-0.5182926654815674,0.3658536672592163,-0.15243902802467346,0.44999998807907104,-14.399999618530273,4.199999809265137,38.82729721069336,0,
 507007,0.048583984375,-0.971923828125,-0.11083984375,0.030487805604934692,0.18292683362960815,0.3658536672592163,0.44999998807907104,-14.399999618530273,4.199999809265137,38.587684631347656,0,
 507017,0.049072265625,-0.970947265625,-0.110107421875,0.27439025044441223,0.24390244483947754,-0.030487805604934692,0.30000001192092896,-16.5,4.5,38.82729721069336,0,
 507027,0.0517578125,-0.96630859375,-0.108154296875,0.9451219439506531,0.21341463923454285,-0.09146341681480408,0.8999999761581421,-15.149999618530273,3.9000000953674316,38.92314529418945,0,
 507037,0.05322265625,-0.972900390625,-0.109130859375,0.8536585569381714,0.21341463923454285,-0.12195122241973877,-0.15000000596046448,-16.799999237060547,7.199999809265137,38.587684631347656,0,
 507047,0.053955078125,-0.968505859375,-0.1103515625,1.1890244483947754,0.4573170840740204,0.18292683362960815,0.8999999761581421,-15.600000381469727,4.199999809265137,38.82729721069336,0,
 507057,0.0478515625,-0.97265625,-0.11181640625,1.7682926654815674,-0.18292683362960815,-0.030487805604934692,0.8999999761581421,-14.399999618530273,4.650000095367432,38.77937698364258,0,
 507067,0.061767578125,-0.973876953125,-0.107666015625,1.432926893234253,0.4573170840740204,-0.060975611209869385,-1.7999999523162842,-15.300000190734863,4.800000190734863,38.77937698364258,0,
 507077,0.047607421875,-0.973876953125,-0.106201171875,1.9817073345184326,0.27439025044441223,-0.396341472864151,-0.30000001192092896,-16.200000762939453,4.800000190734863,38.77937698364258,0,
 507087,0.051025390625,-0.971435546875,-0.105712890625,1.432926893234253,0.3658536672592163,-0.060975611209869385,-0.75,-17.700000762939453,5.25,38.587684631347656,0,
 507097,0.048095703125,-0.978271484375,-0.103271484375,1.1280487775802612,0.3353658616542816,0.030487805604934692,-0.75,-17.700000762939453,5.25,38.683528900146484,0,
 507107,0.05322265625,-0.974365234375,-0.10693359375,0.7621951103210449,0.030487805604934692,-0.3658536672592163,-0.44999998807907104,-15.600000381469727,5.699999809265137,38.683528900146484,0,
 507117,0.0537109375,-0.974365234375,-0.10302734375,0.792682945728302,0.24390244483947754,-0.15243902802467346,-0.15000000596046448,-17.549999237060547,4.650000095367432,38.587684631347656,0,
 507127,0.05419921875,-0.970458984375,-0.10595703125,0.3048780560493469,0.5487805008888245,0.09146341681480408,-1.0499999523162842,-15.75,5.550000190734863,38.77937698364258,0,
 507137,0.05419921875,-0.976318359375,-0.10595703125,0.12195122241973877,0.396341472864151,0.18292683362960815,-1.0499999523162842,-15.75,5.550000190734863,38.971065521240234,0,
 507147,0.05419921875,-0.978515625,-0.107421875,0.5487805008888245,0.4268292784690857,0.4573170840740204,-1.2000000476837158,-15.600000381469727,4.650000095367432,38.82729721069336,0,
 507157,0.060302734375,-0.968994140625,-0.10888671875,0.030487805604934692,0.6707317233085632,0.3353658616542816,-0.8999999761581421,-14.850000381469727,5.400000095367432,39.162757873535156,0,
 507167,0.05224609375,-0.96875,-0.11279296875,0.3353658616542816,0.5487805008888245,0.4268292784690857,0.75,-17.399999618530273,0.30000001192092896,38.587684631347656,0,
 507177,0.05126953125,-0.968505859375,-0.11279296875,0.5182926654815674,0.7621951103210449,0.3048780560493469,-0.44999998807907104,-16.350000381469727,4.949999809265137,38.683528900146484,0,
 507188,0.04638671875,-0.97412109375,-0.106201171875,0.7317073345184326,0.8231707215309143,0.12195122241973877,-0.44999998807907104,-16.350000381469727,4.949999809265137,38.77937698364258,0,
 507198,0.051513671875,-0.97607421875,-0.1015625,0.3353658616542816,0.7012194991111755,0.12195122241973877,0.15000000596046448,-16.350000381469727,4.650000095367432,38.683528900146484,0,
 507208,0.0537109375,-0.974609375,-0.10400390625,-0.3048780560493469,0.7012194991111755,0.4268292784690857,-1.5,-16.5,4.5,38.77937698364258,0,
 507218,0.049072265625,-0.972900390625,-0.108154296875,0.27439025044441223,0.5792682766914368,-0.09146341681480408,0.0,-16.5,6.300000190734863,39.01898956298828,0,
 507228,0.052001953125,-0.96484375,-0.102783203125,1.3719512224197388,0.5182926654815674,0.09146341681480408,0.0,-16.5,6.300000190734863,38.587684631347656,0,
 507238,0.052001953125,-0.9521484375,-0.123291015625,2.6524391174316406,0.3353658616542816,0.21341463923454285,0.30000001192092896,-16.200000762939453,4.5,38.82729721069336,0,
 507248,0.052001953125,-0.965087890625,-0.11181640625,4.420732021331787,0.3048780560493469,0.5487805008888245,-0.44999998807907104,-17.100000381469727,4.199999809265137,38.971065521240234,0,
 507258,0.04931640625,-0.97216796875,-0.10302734375,3.932926893234253,0.27439025044441223,0.4878048896789551,0.0,-16.950000762939453,4.050000190734863,38.82729721069336,0,
 507268,0.048828125,-0.98486328125,-0.10009765625,2.804877996444702,0.3658536672592163,0.3048780560493469,0.15000000596046448,-14.850000381469727,3.9000000953674316,38.587684631347656,0,
 507278,0.05419921875,-0.98681640625,-0.101806640625,1.9512195587158203,0.24390244483947754,0.396341472864151,0.15000000596046448,-14.850000381469727,3.9000000953674316,38.683528900146484,0,
 507288,0.05615234375,-0.975341796875,-0.09765625,1.25,0.5792682766914368,-0.18292683362960815,-1.0499999523162842,-16.5,5.25,38.92314529418945,0,
 507298,0.048583984375,-0.986328125,-0.091796875,-0.396341472864151,0.3658536672592163,-0.9756097793579102,-0.30000001192092896,-14.550000190734863,5.25,38.92314529418945,0,
 507308,0.052490234375,-0.972900390625,-0.093505859375,-1.3109756708145142,0.5182926654815674,-1.4634146690368652,-1.5,-15.75,3.75,38.683528900146484,0,
 507318,0.050537109375,-0.9638671875,-0.1015625,-1.3414634466171265,0.5792682766914368,-2.0731706619262695,-1.5,-15.75,3.75,38.971065521240234,0,
 507328,0.051513671875,-0.95556640625,-0.1103515625,-0.27439025044441223,0.21341463923454285,-3.0182926654815674,0.0,-15.0,4.800000190734863,38.63560485839844,0,
 507338,0.05224609375,-0.950439453125,-0.108154296875,1.9817073345184326,-0.21341463923454285,-3.1097562313079834,-0.30000001192092896,-14.25,6.0,38.82729721069336,0,
 507348,0.05712890625,-0.96240234375,-0.109130859375,3.2317073345184326,-0.21341463923454285,-3.2926828861236572,-1.649999976158142,-15.600000381469727,5.699999809265137,38.92314529418945,0,
 507368,0.05712890625,-0.9970703125,-0.093505859375,3.2012195587158203,-0.4268292784690857,-2.9268293380737305,-0.30000001192092896,-15.0,3.299999952316284,38.92314529418945,0,
 507378,0.054931640625,-0.999267578125,-0.083984375,0.9451219439506531,0.09146341681480408,-2.4695122241973877,-1.649999976158142,-18.0,4.650000095367432,38.77937698364258,0,
 507388,0.06103515625,-0.99072265625,-0.093017578125,-1.2804877758026123,0.27439025044441223,-1.7682926654815674,-2.25,-15.300000190734863,4.050000190734863,38.82729721069336,0,
 507398,0.056396484375,-0.982177734375,-0.10546875,-2.012195110321045,0.4573170840740204,-0.8536585569381714,-0.8999999761581421,-13.649999618530273,4.650000095367432,38.971065521240234,0,
 507408,0.055908203125,-0.970458984375,-0.10498046875,-2.012195110321045,0.5792682766914368,-0.15243902802467346,-0.8999999761581421,-13.649999618530273,4.650000095367432,38.92314529418945,0,
 507418,0.06494140625,-0.971923828125,-0.103515625,-0.9756097793579102,0.27439025044441223,0.12195122241973877,0.30000001192092896,-15.0,5.25,38.82729721069336,0,
 507428,0.061767578125,-0.968994140625,-0.10107421875,-0.6402438879013062,0.15243902802467346,0.060975611209869385,-2.0999999046325684,-15.899999618530273,4.199999809265137,38.683528900146484,0,
 507438,0.0517578125,-0.970703125,-0.094970703125,-0.09146341681480408,0.18292683362960815,0.030487805604934692,-2.0999999046325684,-15.899999618530273,5.699999809265137,38.92314529418945,0,
 507448,0.05712890625,-0.975341796875,-0.0966796875,-0.4878048896789551,0.21341463923454285,-0.6097561120986938,-2.0999999046325684,-15.899999618530273,5.699999809265137,38.92314529418945,0,
 507458,0.056396484375,-0.964599609375,-0.101806640625,-0.6402438879013062,0.09146341681480408,-1.3109756708145142,0.15000000596046448,-17.100000381469727,6.449999809265137,38.92314529418945,0,
 507468,0.06298828125,-0.966064453125,-0.10888671875,-0.3048780560493469,0.15243902802467346,-1.4939024448394775,-0.75,-16.950000762939453,6.0,38.82729721069336,0,
 507478,0.05908203125,-0.96826171875,-0.10302734375,0.27439025044441223,0.3658536672592163,-1.5548781156539917,-0.15000000596046448,-17.549999237060547,3.1500000953674316,38.63560485839844,0,
 507488,0.0625,-0.969482421875,-0.103759765625,0.7621951103210449,0.3353658616542816,-1.8597561120986938,-0.75,-15.75,4.800000190734863,38.92314529418945,0,
 507498,0.065185546875,-0.977783203125,-0.097900390625,1.1280487775802612,0.27439025044441223,-0.9756097793579102,-0.75,-15.75,4.800000190734863,38.971065521240234,0,
 507508,0.060791015625,-0.988525390625,-0.093994140625,0.6402438879013062,0.3658536672592163,-0.9146341681480408,0.30000001192092896,-17.399999618530273,6.0,38.82729721069336,0,
 507518,0.059814453125,-0.9873046875,-0.091064453125,0.3353658616542816,0.4268292784690857,-0.9451219439506531,0.0,-15.75,4.050000190734863,38.77937698364258,0,
 507528,0.061279296875,-0.986083984375,-0.09912109375,-0.3048780560493469,0.5487805008888245,-0.5792682766914368,-1.5,-15.0,5.550000190734863,38.587684631347656,0,
 507538,0.055419921875,-0.978515625,-0.0986328125,-0.7621951103210449,0.24390244483947754,-0.3658536672592163,-1.5,-15.0,5.550000190734863,38.82729721069336,0,
 507548,0.057861328125,-0.977294921875,-0.1044921875,-0.9146341681480408,0.4268292784690857,-0.792682945728302,-0.75,-16.200000762939453,3.75,38.82729721069336,0,
 507558,0.063720703125,-0.97998046875,-0.100830078125,-1.3719512224197388,0.7012194991111755,-1.097561001777649,0.0,-15.75,3.75,38.92314529418945,0,
 507568,0.054931640625,-0.97216796875,-0.100341796875,-1.097561001777649,0.3353658616542816,-1.2195122241973877,-2.0999999046325684,-15.899999618530273,6.150000095367432,38.77937698364258,0,
 507578,0.062255859375,-0.98095703125,-0.099365234375,-1.0060975551605225,0.6402438879013062,-1.432926893234253,-2.0999999046325684,-15.899999618530273,6.150000095367432,38.587684631347656,0,
 507588,0.061279296875,-0.9716796875,-0.101806640625,-1.25,0.6402438879013062,-1.585365891456604,-1.2000000476837158,-15.600000381469727,5.400000095367432,38.92314529418945,0,
 507598,0.068115234375,-0.979736328125,-0.094970703125,-1.6768293380737305,0.5792682766914368,-1.1280487775802612,-1.5,-17.700000762939453,6.0,38.971065521240234,0,
 507608,0.062744140625,-0.972412109375,-0.103515625,-2.6524391174316406,0.7621951103210449,-0.7012194991111755,-0.30000001192092896,-16.200000762939453,4.800000190734863,38.92314529418945,0,
 507618,0.064697265625,-0.984375,-0.097412109375,-2.408536672592163,0.5792682766914368,0.15243902802467346,0.0,-16.200000762939453,5.550000190734863,38.82729721069336,0,
 507628,0.06396484375,-0.974853515625,-0.1025390625,-2.77439022064209,0.7317073345184326,0.792682945728302,0.0,-16.200000762939453,5.550000190734863,38.92314529418945,0,
 507638,0.05712890625,-0.98291015625,-0.1005859375,-2.408536672592163,0.6097561120986938,0.4573170840740204,-0.15000000596046448,-16.799999237060547,3.9000000953674316,38.683528900146484,0,
 507648,0.05859375,-0.975830078125,-0.098876953125,-2.9573171138763428,0.4878048896789551,-0.12195122241973877,-1.5,-15.75,5.25,38.683528900146484,0,
 507658,0.064453125,-0.98193359375,-0.0986328125,-3.2926828861236572,0.7317073345184326,-0.396341472864151,-1.2000000476837158,-15.600000381469727,5.400000095367432,38.82729721069336,0,
 507668,0.06201171875,-0.97509765625,-0.10107421875,-3.7195122241973877,0.3353658616542816,-0.7012194991111755,-1.2000000476837158,-15.600000381469727,5.400000095367432,38.683528900146484,0,
 507678,0.064208984375,-0.97021484375,-0.103271484375,-3.262195110321045,0.5792682766914368,-0.12195122241973877,0.0,-15.300000190734863,1.7999999523162842,38.77937698364258,0,
 507688,0.065673828125,-0.95947265625,-0.10595703125,-2.408536672592163,0.27439025044441223,-0.4268292784690857,0.15000000596046448,-17.100000381469727,5.699999809265137,38.971065521240234,0,
 507698,0.0712890625,-0.973876953125,-0.10888671875,-1.5548781156539917,0.4268292784690857,0.030487805604934692,0.0,-15.75,5.550000190734863,39.01898956298828,0,
 507708,0.0654296875,-0.963623046875,-0.102783203125,-1.737804889678955,0.3658536672592163,0.3353658616542816,-1.7999999523162842,-16.950000762939453,5.25,38.92314529418945,0,
 507718,0.06640625,-0.97265625,-0.102783203125,-1.4939024448394775,0.396341472864151,0.5792682766914368,0.0,-16.200000762939453,5.25,38.82729721069336,0,
 507728,0.06005859375,-0.97998046875,-0.107177734375,-1.432926893234253,0.3658536672592163,0.7012194991111755,0.75,-17.399999618530273,4.5,38.92314529418945,0,
 507738,0.065673828125,-0.974365234375,-0.099609375,-2.378048896789551,0.3658536672592163,0.9756097793579102,-0.75,-16.200000762939453,4.050000190734863,38.683528900146484,0,
 507748,0.06396484375,-0.980712890625,-0.097412109375,-2.9573171138763428,0.5792682766914368,1.2804877758026123,0.75,-15.300000190734863,5.25,38.77937698364258,0,
 507758,0.0654296875,-0.982177734375,-0.102783203125,-3.3231709003448486,0.4878048896789551,1.585365891456604,0.75,-15.300000190734863,5.25,38.971065521240234,0,
 507768,0.06396484375,-0.977783203125,-0.107421875,-3.6890244483947754,0.3658536672592163,1.5243902206420898,0.30000001192092896,-16.200000762939453,6.0,38.587684631347656,0,
 507778,0.064453125,-0.96923828125,-0.10595703125,-3.75,0.5487805008888245,1.5243902206420898,-1.649999976158142,-13.949999809265137,4.650000095367432,38.92314529418945,0,
 507788,0.060791015625,-0.97021484375,-0.110595703125,-3.3231709003448486,0.5792682766914368,1.7073171138763428,-0.30000001192092896,-16.200000762939453,4.800000190734863,38.77937698364258,0,
 507798,0.0556640625,-0.964599609375,-0.111572265625,-3.079268455505371,0.6097561120986938,1.3414634466171265,-0.30000001192092896,-16.200000762939453,4.800000190734863,39.01898956298828,0,
 507808,0.059814453125,-0.9775390625,-0.110595703125,-2.6524391174316406,0.6707317233085632,1.0365853309631348,-1.7999999523162842,-16.5,6.0,38.82729721069336,0,
 507818,0.0546875,-0.9697265625,-0.110107421875,-2.865853786468506,0.8536585569381714,1.1280487775802612,-0.8999999761581421,-17.100000381469727,4.650000095367432,38.587684631347656,0,
 507828,0.062255859375,-0.968994140625,-0.10693359375,-2.682926893234253,0.792682945728302,0.9451219439506531,-0.44999998807907104,-15.149999618530273,4.949999809265137,38.82729721069336,0,
 507838,0.06005859375,-0.975830078125,-0.107421875,-2.896341562271118,0.7012194991111755,1.3109756708145142,-0.30000001192092896,-18.600000381469727,5.25,38.82729721069336,0,
 507848,0.05810546875,-0.98046875,-0.108154296875,-2.8353660106658936,0.8231707215309143,1.6463414430618286,-0.30000001192092896,-18.600000381469727,5.25,38.971065521240234,0,
 507858,0.064208984375,-0.9833984375,-0.10693359375,-3.7195122241973877,0.6707317233085632,1.432926893234253,-1.7999999523162842,-16.950000762939453,5.550000190734863,38.82729721069336,0,
 507868,0.056640625,-0.978759765625,-0.10400390625,-3.9024391174316406,0.7012194991111755,1.5548781156539917,-0.44999998807907104,-16.799999237060547,4.949999809265137,38.63560485839844,0,
 507878,0.05810546875,-0.97998046875,-0.112548828125,-4.695122241973877,0.5792682766914368,0.9756097793579102,-1.7999999523162842,-15.0,5.550000190734863,38.92314529418945,0,
 507888,0.052734375,-0.980712890625,-0.10888671875,-5.182927131652832,0.5792682766914368,1.0060975551605225,-1.7999999523162842,-15.0,5.550000190734863,38.92314529418945,0,
 507898,0.062255859375,-0.97802734375,-0.111083984375,-5.579268455505371,0.3658536672592163,0.6402438879013062,-1.5,-16.5,5.550000190734863,38.82729721069336,0,
 507908,0.0546875,-0.982666015625,-0.108154296875,-6.25,0.7012194991111755,0.7317073345184326,-0.44999998807907104,-16.799999237060547,4.949999809265137,38.587684631347656,0,
 507918,0.0576171875,-0.986328125,-0.109619140625,-7.103658676147461,0.6707317233085632,0.9146341681480408,-1.0499999523162842,-15.300000190734863,6.300000190734863,38.63560485839844,0,
 507928,0.06298828125,-0.985107421875,-0.113525390625,-8.262195587158203,0.5487805008888245,0.3658536672592163,-1.649999976158142,-16.799999237060547,6.449999809265137,38.82729721069336,0,
 507938,0.060546875,-0.979248046875,-0.115234375,-8.993902206420898,0.8536585569381714,0.21341463923454285,0.0,-16.950000762939453,5.550000190734863,38.92314529418945,0,
 507948,0.05224609375,-0.978515625,-0.120849609375,-8.87195110321045,0.7621951103210449,0.5487805008888245,0.30000001192092896,-15.75,6.300000190734863,38.683528900146484,0,
 507958,0.052490234375,-0.983154296875,-0.11279296875,-9.085366249084473,0.9146341681480408,0.8231707215309143,-1.5,-16.5,4.800000190734863,39.01898956298828,0,
 507969,0.054443359375,-0.97412109375,-0.125732421875,-9.908536911010742,1.1585365533828735,0.792682945728302,-1.0499999523162842,-17.399999618530273,5.25,38.63560485839844,0,
 507979,0.06005859375,-0.97021484375,-0.130859375,-9.634146690368652,0.792682945728302,0.6097561120986938,-1.0499999523162842,-17.399999618530273,5.25,38.77937698364258,0,
 507989,0.0576171875,-0.96044921875,-0.131591796875,-9.29878044128418,1.0670732259750366,0.4573170840740204,0.75,-16.950000762939453,2.25,38.92314529418945,0,
 507999,0.061767578125,-0.9560546875,-0.1376953125,-8.719511985778809,0.8231707215309143,-0.12195122241973877,-2.8499999046325684,-16.350000381469727,6.150000095367432,38.92314529418945,0,
 508009,0.059326171875,-0.95458984375,-0.1435546875,-7.347561359405518,0.9451219439506531,-0.7317073345184326,-0.75,-15.300000190734863,6.0,38.92314529418945,0,
 508019,0.06298828125,-0.958740234375,-0.1376953125,-5.365853786468506,1.0670732259750366,-0.12195122241973877,-0.75,-15.300000190734863,6.0,38.77937698364258,0,
 508029,0.062255859375,-0.968017578125,-0.1376953125,-3.9634146690368652,0.4878048896789551,-0.12195122241973877,-0.75,-17.399999618530273,6.75,38.82729721069336,0,
 508039,0.0625,-0.96435546875,-0.13427734375,-2.9268293380737305,0.9451219439506531,-0.060975611209869385,-0.15000000596046448,-16.350000381469727,5.699999809265137,38.77937698364258,0,
 508049,0.06005859375,-0.968505859375,-0.1357421875,-2.804877996444702,0.4573170840740204,-0.030487805604934692,0.30000001192092896,-16.200000762939453,6.300000190734863,38.63560485839844,0,
 508059,0.06201171875,-0.9697265625,-0.133544921875,-2.012195110321045,0.5487805008888245,-0.030487805604934692,0.0,-15.75,5.25,38.82729721069336,0,
 508069,0.059814453125,-0.97412109375,-0.135009765625,-1.7987805604934692,0.3048780560493469,0.27439025044441223,0.0,-15.75,5.25,39.11483383178711,0,
 508079,0.058349609375,-0.968017578125,-0.134033203125,-0.9146341681480408,0.3353658616542816,0.4878048896789551,-0.44999998807907104,-17.100000381469727,4.199999809265137,38.77937698364258,0,
 508089,0.062255859375,-0.97119140625,-0.13232421875,-0.5182926654815674,0.060975611209869385,0.6402438879013062,0.30000001192092896,-16.200000762939453,2.25,38.92314529418945,0,
 508099,0.0556640625,-0.971923828125,-0.1279296875,-0.27439025044441223,0.3048780560493469,0.4268292784690857,-2.25,-16.200000762939453,5.550000190734863,38.82729721069336,0,
 508109,0.05859375,-0.972900390625,-0.131591796875,-1.097561001777649,0.09146341681480408,0.15243902802467346,-2.25,-16.200000762939453,5.550000190734863,38.683528900146484,0,
 508119,0.06103515625,-0.971435546875,-0.12939453125,-1.1585365533828735,0.15243902802467346,0.24390244483947754,-1.7999999523162842,-16.5,4.050000190734863,38.82729721069336,0,
 508129,0.06201171875,-0.969482421875,-0.132080078125,-0.5792682766914368,0.15243902802467346,0.09146341681480408,0.8999999761581421,-16.350000381469727,4.650000095367432,38.82729721069336,0,
 508139,0.06201171875,-0.97119140625,-0.135986328125,-0.9451219439506531,0.4268292784690857,0.3353658616542816,-1.2000000476837158,-15.600000381469727,5.699999809265137,38.971065521240234,0,
 508149,0.063720703125,-0.96435546875,-0.130859375,-0.18292683362960815,0.396341472864151,0.396341472864151,-1.2000000476837158,-15.600000381469727,5.699999809265137,38.77937698364258,0,
 508159,0.062744140625,-0.966796875,-0.128662109375,0.3048780560493469,0.15243902802467346,0.15243902802467346,-0.44999998807907104,-16.799999237060547,4.949999809265137,38.395992279052734,0,
 508169,0.0615234375,-0.958251953125,-0.134521484375,0.9146341681480408,0.18292683362960815,0.8536585569381714,-0.44999998807907104,-18.0,5.699999809265137,38.683528900146484,0,
 508179,0.060791015625,-0.96484375,-0.130859375,1.2804877758026123,0.21341463923454285,0.9146341681480408,0.0,-15.300000190734863,6.300000190734863,38.82729721069336,0,
 508189,0.0595703125,-0.97021484375,-0.135009765625,1.7073171138763428,0.030487805604934692,1.0060975551605225,-0.75,-14.550000190734863,3.299999952316284,38.77937698364258,0,
 508199,0.060791015625,-0.97216796875,-0.129638671875,1.4939024448394775,0.030487805604934692,1.097561001777649,-0.75,-14.550000190734863,3.299999952316284,38.82729721069336,0,
 508209,0.056884765625,-0.982666015625,-0.12890625,0.4268292784690857,0.396341472864151,0.7621951103210449,-0.44999998807907104,-16.350000381469727,4.949999809265137,38.587684631347656,0,
 508219,0.057861328125,-0.982421875,-0.121826171875,-0.7621951103210449,0.12195122241973877,0.5487805008888245,1.2000000476837158,-18.0,4.949999809265137,38.971065521240234,0,
 508229,0.0615234375,-0.97216796875,-0.126708984375,-1.5243902206420898,0.27439025044441223,0.3658536672592163,0.30000001192092896,-16.950000762939453,6.300000190734863,38.82729721069336,0,
 508239,0.06005859375,-0.969482421875,-0.130859375,-1.1890244483947754,0.4878048896789551,0.15243902802467346,0.30000001192092896,-16.950000762939453,6.300000190734863,38.92314529418945,0,
 508249,0.060302734375,-0.967529296875,-0.13037109375,-1.1890244483947754,0.27439025044441223,-0.27439025044441223,-0.8999999761581421,-17.100000381469727,4.949999809265137,38.971065521240234,0,
 508259,0.063232421875,-0.964599609375,-0.131591796875,-1.097561001777649,0.18292683362960815,0.0,-1.2000000476837158,-17.549999237060547,4.949999809265137,38.683528900146484,0,
 508269,0.06201171875,-0.963623046875,-0.13134765625,-0.7317073345184326,0.3048780560493469,-0.3353658616542816,-1.2000000476837158,-17.549999237060547,4.949999809265137,39.01898956298828,0,
 508279,0.061767578125,-0.972412109375,-0.1337890625,-0.8841463327407837,0.3658536672592163,-0.18292683362960815,1.7999999523162842,-15.0,3.0,38.92314529418945,0,
 508289,0.062744140625,-0.970703125,-0.135009765625,-1.2195122241973877,0.24390244483947754,0.18292683362960815,1.7999999523162842,-15.0,3.0,38.77937698364258,0,
 508299,0.06103515625,-0.974365234375,-0.128662109375,-0.792682945728302,0.060975611209869385,0.3658536672592163,-1.7999999523162842,-15.300000190734863,4.800000190734863,38.82729721069336,0,
 508319,0.063720703125,-0.97607421875,-0.12841796875,-1.585365891456604,0.27439025044441223,0.396341472864151,-1.649999976158142,-15.600000381469727,4.199999809265137,39.01898956298828,0,
 508329,0.066162109375,-0.980712890625,-0.129150390625,-2.195122003555298,0.24390244483947754,0.5487805008888245,-1.649999976158142,-15.600000381469727,4.199999809265137,38.82729721069336,0,
 508339,0.059326171875,-0.978515625,-0.125732421875,-2.865853786468506,0.030487805604934692,0.5487805008888245,-0.15000000596046448,-17.100000381469727,4.199999809265137,38.92314529418945,0,
 508349,0.05908203125,-0.974609375,-0.133544921875,-3.5975611209869385,0.18292683362960815,0.4268292784690857,-1.2000000476837158,-15.899999618530273,4.650000095367432,38.77937698364258,0,
 508359,0.062744140625,-0.964599609375,-0.13134765625,-4.2682929039001465,0.27439025044441223,0.0,-0.44999998807907104,-16.350000381469727,4.199999809265137,38.587684631347656,0,
 508369,0.06201171875,-0.9619140625,-0.140625,-3.658536672592163,0.27439025044441223,0.15243902802467346,-0.44999998807907104,-16.350000381469727,4.199999809265137,38.92314529418945,0,
 508379,0.06298828125,-0.962646484375,-0.140380859375,-3.47560977935791,0.3048780560493469,-0.060975611209869385,-0.30000001192092896,-15.300000190734863,6.0,38.92314529418945,0,
 508389,0.057861328125,-0.96875,-0.138916015625,-3.0487804412841797,0.396341472864151,0.18292683362960815,-0.8999999761581421,-15.600000381469727,4.949999809265137,38.82729721069336,0,
 508399,0.05908203125,-0.966552734375,-0.1328125,-2.22560977935791,0.21341463923454285,-0.12195122241973877,-1.649999976158142,-19.200000762939453,4.650000095367432,38.82729721069336,0,
 508419,0.062744140625,-0.967529296875,-0.141357421875,-1.8902438879013062,0.18292683362960815,0.060975611209869385,-1.7999999523162842,-16.200000762939453,3.75,38.92314529418945,0,
 508429,0.065673828125,-0.96826171875,-0.140380859375,-1.7073171138763428,0.4878048896789551,0.24390244483947754,-1.2000000476837158,-16.799999237060547,5.400000095367432,39.01898956298828,0,
 508439,0.0625,-0.970458984375,-0.14111328125,-1.2195122241973877,0.27439025044441223,0.12195122241973877,-1.2000000476837158,-16.799999237060547,5.699999809265137,38.971065521240234,0,
