timestamp,accl_x,accl_y,accl_z,gyro_x,gyro_y,gyro_z,mag_x,mag_y,mag_z,temp,emg,
 756390,-0.0546875,-0.3251953125,-0.9736328125,-0.7012194991111755,0.060975611209869385,0.5182926654815674,-9.149999618530273,-13.350000381469727,14.550000190734863,38.108455657958984,0,
 756400,-0.052001953125,-0.34033203125,-0.97802734375,-0.7317073345184326,0.3353658616542816,0.3353658616542816,-9.300000190734863,-10.800000190734863,15.449999809265137,38.06053161621094,0,
 756410,-0.05078125,-0.328857421875,-0.981201171875,-1.2195122241973877,0.3353658616542816,0.6402438879013062,-9.300000190734863,-11.550000190734863,16.200000762939453,38.06053161621094,0,
 756420,-0.0458984375,-0.333740234375,-0.9775390625,-0.7621951103210449,0.3353658616542816,0.5792682766914368,-10.5,-11.550000190734863,13.949999809265137,37.96468734741211,0,
 756430,-0.051025390625,-0.32763671875,-0.970947265625,-0.8231707215309143,0.09146341681480408,0.5487805008888245,-10.5,-11.550000190734863,13.949999809265137,37.96468734741211,0,
 756440,-0.04345703125,-0.334228515625,-0.97900390625,-0.5487805008888245,0.3048780560493469,0.3353658616542816,-9.149999618530273,-12.149999618530273,14.550000190734863,37.91676330566406,0,
 756450,-0.0537109375,-0.330322265625,-0.971923828125,-0.9756097793579102,0.24390244483947754,0.9756097793579102,-10.800000190734863,-11.550000190734863,15.149999618530273,38.300148010253906,0,
 756460,-0.049560546875,-0.329345703125,-0.9775390625,-1.3109756708145142,0.3048780560493469,0.5182926654815674,-9.149999618530273,-12.149999618530273,16.5,38.15637969970703,0,
 756470,-0.0478515625,-0.325927734375,-0.981201171875,-0.6402438879013062,0.21341463923454285,0.6097561120986938,-9.149999618530273,-12.149999618530273,16.5,37.91676330566406,0,
 756480,-0.047119140625,-0.32421875,-0.9736328125,-0.396341472864151,0.24390244483947754,0.7012194991111755,-10.5,-11.25,13.949999809265137,38.15637969970703,0,
 756490,-0.047119140625,-0.326416015625,-0.97705078125,-0.7317073345184326,0.12195122241973877,0.27439025044441223,-7.949999809265137,-12.149999618530273,12.75,38.108455657958984,0,
 756500,-0.051025390625,-0.333984375,-0.980224609375,-0.6707317233085632,0.09146341681480408,0.3048780560493469,-9.899999618530273,-11.399999618530273,15.75,37.96468734741211,0,
 756510,-0.05078125,-0.322509765625,-0.977294921875,-0.4878048896789551,0.21341463923454285,0.4878048896789551,-9.899999618530273,-11.850000381469727,15.300000190734863,38.25222396850586,0,
 756520,-0.04833984375,-0.331787109375,-0.9765625,-0.9756097793579102,0.09146341681480408,0.27439025044441223,-9.899999618530273,-11.850000381469727,15.300000190734863,38.300148010253906,0,
 756530,-0.055419921875,-0.32861328125,-0.9697265625,-0.6097561120986938,0.3048780560493469,0.3353658616542816,-11.25,-11.25,15.449999809265137,38.06053161621094,0,
 756540,-0.05322265625,-0.331787109375,-0.974609375,-0.6097561120986938,0.15243902802467346,0.5182926654815674,-8.699999809265137,-11.399999618530273,15.0,37.868839263916016,0,
 756590,-0.052001953125,-0.33203125,-0.970947265625,-0.4268292784690857,0.9146341681480408,0.4268292784690857,-7.949999809265137,-11.399999618530273,12.300000190734863,37.91676330566406,0,
 756600,-0.05029296875,-0.3271484375,-0.973876953125,-0.4573170840740204,0.8841463327407837,0.4268292784690857,-9.149999618530273,-10.199999809265137,14.550000190734863,38.108455657958984,0,
 756610,-0.056396484375,-0.333984375,-0.97216796875,-0.7621951103210449,0.792682945728302,0.27439025044441223,-9.600000381469727,-10.350000381469727,15.149999618530273,38.44391632080078,0,
 756620,-0.043212890625,-0.327880859375,-0.975341796875,-0.792682945728302,0.6707317233085632,0.6707317233085632,-9.899999618530273,-11.399999618530273,14.550000190734863,38.06053161621094,0,
 756630,-0.0693359375,-0.32861328125,-0.977294921875,-1.6158536672592163,2.1341464519500732,0.3658536672592163,-10.199999809265137,-11.399999618530273,15.75,37.96468734741211,0,
 756640,-0.051025390625,-0.3154296875,-0.962890625,-2.2865853309631348,1.0060975551605225,1.1280487775802612,-10.050000190734863,-10.800000190734863,14.699999809265137,38.06053161621094,0,
 756650,-0.0517578125,-0.33203125,-0.9794921875,-0.5792682766914368,1.2195122241973877,0.5792682766914368,-10.050000190734863,-10.800000190734863,14.699999809265137,38.108455657958984,0,
 756660,-0.05322265625,-0.340087890625,-0.977783203125,-1.2804877758026123,1.6463414430618286,0.5792682766914368,-9.899999618530273,-12.149999618530273,15.75,38.25222396850586,0,
 756670,-0.049560546875,-0.334228515625,-0.95703125,-0.9451219439506531,1.0670732259750366,1.3109756708145142,-7.949999809265137,-11.399999618530273,14.550000190734863,38.44391632080078,0,
 756680,-0.05224609375,-0.32861328125,-0.97900390625,-1.737804889678955,1.432926893234253,0.8231707215309143,-8.550000190734863,-10.050000190734863,14.699999809265137,38.06053161621094,0,
 756690,-0.046630859375,-0.3203125,-0.975341796875,-1.920731782913208,1.9512195587158203,0.5792682766914368,-8.550000190734863,-10.050000190734863,14.699999809265137,37.72507095336914,0,
 756700,-0.057373046875,-0.32568359375,-0.981201171875,-0.9146341681480408,1.4939024448394775,1.0670732259750366,-12.0,-11.25,15.149999618530273,38.108455657958984,0,
 756710,-0.04443359375,-0.326904296875,-0.9833984375,-1.1280487775802612,1.7682926654815674,0.7012194991111755,-10.649999618530273,-12.600000381469727,17.549999237060547,37.96468734741211,0,
 756720,-0.04736328125,-0.32958984375,-0.976318359375,-0.4878048896789551,1.6158536672592163,0.5792682766914368,-10.050000190734863,-11.25,14.399999618530273,37.91676330566406,0,
 756730,-0.05078125,-0.323974609375,-0.977783203125,-1.0670732259750366,0.9756097793579102,0.09146341681480408,-8.699999809265137,-11.399999618530273,15.300000190734863,38.06053161621094,0,
 756740,-0.05419921875,-0.323974609375,-0.976806640625,-0.12195122241973877,1.2195122241973877,-0.030487805604934692,-8.699999809265137,-11.399999618530273,15.300000190734863,37.96468734741211,0,
 756750,-0.05078125,-0.331787109375,-0.985595703125,-0.7012194991111755,1.1585365533828735,-0.060975611209869385,-9.300000190734863,-10.800000190734863,13.199999809265137,38.15637969970703,0,
 756760,-0.050537109375,-0.339111328125,-0.97900390625,0.030487805604934692,1.5548781156539917,-0.12195122241973877,-10.199999809265137,-12.149999618530273,14.550000190734863,38.25222396850586,0,
 756770,-0.05078125,-0.33447265625,-0.9775390625,-0.792682945728302,1.1890244483947754,0.09146341681480408,-10.050000190734863,-11.550000190734863,15.899999618530273,38.108455657958984,0,
 756780,-0.048095703125,-0.3408203125,-0.985595703125,-0.4878048896789551,1.1585365533828735,0.6402438879013062,-10.050000190734863,-11.550000190734863,15.899999618530273,38.06053161621094,0,
 756790,-0.048828125,-0.33154296875,-0.973388671875,-0.8536585569381714,1.097561001777649,0.4878048896789551,-8.100000381469727,-10.800000190734863,15.899999618530273,38.06053161621094,0,
 756800,-0.052001953125,-0.327392578125,-0.984619140625,-1.0060975551605225,1.097561001777649,0.9146341681480408,-7.800000190734863,-13.199999809265137,13.649999618530273,38.06053161621094,0,
 756810,-0.044677734375,-0.326171875,-0.97705078125,-1.097561001777649,1.432926893234253,0.7012194991111755,-8.850000381469727,-11.550000190734863,15.899999618530273,37.96468734741211,0,
 756820,-0.050537109375,-0.32373046875,-0.976318359375,-0.9146341681480408,0.9451219439506531,0.9146341681480408,-10.800000190734863,-11.550000190734863,15.449999809265137,38.06053161621094,0,
 756830,-0.05029296875,-0.32421875,-0.980712890625,-1.0365853309631348,1.0365853309631348,0.18292683362960815,-10.800000190734863,-11.550000190734863,15.449999809265137,38.15637969970703,0,
 756840,-0.044921875,-0.32080078125,-0.979248046875,-0.8231707215309143,1.2195122241973877,0.4573170840740204,-8.100000381469727,-12.0,15.149999618530273,37.77299499511719,0,
 756850,-0.04345703125,-0.320556640625,-0.981201171875,-0.3048780560493469,0.8536585569381714,0.21341463923454285,-9.149999618530273,-9.899999618530273,15.75,38.15637969970703,0,
 756860,-0.0478515625,-0.329345703125,-0.97900390625,-0.15243902802467346,0.8536585569381714,-0.396341472864151,-9.149999618530273,-10.199999809265137,15.0,38.25222396850586,0,
 756870,-0.047119140625,-0.326416015625,-0.979248046875,-0.12195122241973877,0.7012194991111755,0.0,-9.149999618530273,-10.199999809265137,15.0,37.96468734741211,0,
 756880,-0.04638671875,-0.329833984375,-0.970947265625,-0.09146341681480408,0.5182926654815674,-0.18292683362960815,-9.300000190734863,-12.0,15.899999618530273,38.15637969970703,0,
 756890,-0.043701171875,-0.32421875,-0.984619140625,-0.060975611209869385,0.792682945728302,0.060975611209869385,-10.5,-10.800000190734863,16.649999618530273,37.96468734741211,0,
 756900,-0.056396484375,-0.3291015625,-0.97900390625,-0.27439025044441223,0.7012194991111755,-0.15243902802467346,-9.449999809265137,-10.949999809265137,12.0,38.06053161621094,0,
 756910,-0.050537109375,-0.325927734375,-0.977294921875,-0.27439025044441223,0.6707317233085632,0.09146341681480408,-9.300000190734863,-11.25,15.899999618530273,37.96468734741211,0,
 756920,-0.046875,-0.329833984375,-0.9833984375,0.0,0.6707317233085632,0.12195122241973877,-9.300000190734863,-11.25,15.899999618530273,37.91676330566406,0,
 756930,-0.043212890625,-0.3291015625,-0.984375,-0.18292683362960815,0.4573170840740204,0.3048780560493469,-10.199999809265137,-11.399999618530273,14.25,37.91676330566406,0,
 756940,-0.0439453125,-0.32568359375,-0.977294921875,-0.15243902802467346,0.4268292784690857,0.27439025044441223,-8.699999809265137,-10.649999618530273,15.300000190734863,37.91676330566406,0,
 756950,-0.0400390625,-0.330810546875,-0.97509765625,-0.6097561120986938,0.3658536672592163,0.27439025044441223,-10.050000190734863,-10.350000381469727,15.449999809265137,37.96468734741211,0,
 756960,-0.046875,-0.328369140625,-0.982177734375,-0.6402438879013062,0.18292683362960815,0.5487805008888245,-10.050000190734863,-10.350000381469727,15.449999809265137,38.108455657958984,0,
 756970,-0.049072265625,-0.32666015625,-0.97509765625,-0.396341472864151,0.396341472864151,0.09146341681480408,-9.600000381469727,-10.800000190734863,15.449999809265137,38.06053161621094,0,
 756980,-0.042724609375,-0.324462890625,-0.976318359375,-0.3048780560493469,0.4573170840740204,0.12195122241973877,-9.449999809265137,-11.850000381469727,15.300000190734863,37.77299499511719,0,
 756990,-0.04833984375,-0.326904296875,-0.980712890625,-0.09146341681480408,0.5487805008888245,0.12195122241973877,-11.25,-12.0,15.899999618530273,38.25222396850586,0,
 757000,-0.052490234375,-0.324462890625,-0.976806640625,-0.3658536672592163,0.4573170840740204,0.18292683362960815,-8.699999809265137,-10.199999809265137,13.5,37.96468734741211,0,
 757011,-0.04248046875,-0.333984375,-0.98046875,-0.5182926654815674,0.24390244483947754,0.21341463923454285,-8.699999809265137,-10.199999809265137,13.5,38.108455657958984,0,
 757021,-0.0478515625,-0.3291015625,-0.9775390625,-0.6097561120986938,0.3353658616542816,0.12195122241973877,-7.949999809265137,-10.199999809265137,16.049999237060547,38.108455657958984,0,
 757031,-0.04052734375,-0.331298828125,-0.979736328125,-0.9146341681480408,0.21341463923454285,0.5487805008888245,-9.300000190734863,-12.0,15.149999618530273,37.77299499511719,0,
 757041,-0.052734375,-0.330810546875,-0.9814453125,-0.7621951103210449,0.8231707215309143,0.4878048896789551,-9.899999618530273,-11.399999618530273,16.049999237060547,38.06053161621094,0,
 757051,-0.04345703125,-0.323486328125,-0.97119140625,-1.3109756708145142,0.7012194991111755,0.7012194991111755,-9.899999618530273,-11.399999618530273,16.049999237060547,38.300148010253906,0,
 757061,-0.033447265625,-0.3251953125,-0.964111328125,-0.9756097793579102,0.5487805008888245,0.9451219439506531,-8.550000190734863,-10.050000190734863,15.449999809265137,38.06053161621094,0,
 757071,-0.03466796875,-0.326416015625,-0.978515625,-1.7073171138763428,0.0,1.0365853309631348,-10.5,-11.25,16.200000762939453,38.06053161621094,0,
 757101,-0.046630859375,-0.323486328125,-0.982666015625,-1.3109756708145142,0.15243902802467346,0.7621951103210449,-9.149999618530273,-10.649999618530273,15.0,38.06053161621094,0,
 757111,-0.0439453125,-0.331787109375,-0.97021484375,-0.7317073345184326,0.27439025044441223,0.9756097793579102,-9.899999618530273,-12.149999618530273,15.300000190734863,38.300148010253906,0,
 757121,-0.0302734375,-0.33203125,-0.978271484375,-0.9756097793579102,0.5182926654815674,1.2195122241973877,-9.449999809265137,-10.199999809265137,14.550000190734863,38.15637969970703,0,
 757131,-0.04345703125,-0.3173828125,-0.971435546875,-1.9512195587158203,-0.8841463327407837,1.402438998222351,-8.850000381469727,-12.449999809265137,16.200000762939453,37.91676330566406,0,
 757141,-0.035400390625,-0.337890625,-0.972900390625,-0.4573170840740204,-0.060975611209869385,1.9512195587158203,-8.850000381469727,-12.449999809265137,16.200000762939453,37.868839263916016,0,
 757151,-0.06005859375,-0.327392578125,-0.992919921875,-2.4695122241973877,-0.7621951103210449,2.103658676147461,-9.449999809265137,-14.550000190734863,15.75,38.25222396850586,0,
 757161,-0.04345703125,-0.330322265625,-0.976318359375,-2.1646342277526855,-0.8841463327407837,1.7682926654815674,-10.5,-11.550000190734863,15.899999618530273,38.25222396850586,0,
 757171,-0.02734375,-0.337158203125,-0.966796875,-2.4390244483947754,-0.7317073345184326,2.682926893234253,-9.300000190734863,-11.25,15.149999618530273,38.25222396850586,0,
 757181,-0.064453125,-0.330322265625,-0.98486328125,-3.841463565826416,-2.2865853309631348,2.7439024448394775,-10.949999809265137,-10.649999618530273,15.75,37.77299499511719,0,
 757191,-0.044189453125,-0.3408203125,-0.9609375,-3.9024391174316406,-1.7682926654815674,2.9573171138763428,-10.949999809265137,-10.649999618530273,15.75,38.15637969970703,0,
 757201,-0.0322265625,-0.328125,-0.990966796875,-4.603658676147461,-2.0426828861236572,4.237804889678955,-9.149999618530273,-10.649999618530273,13.050000190734863,38.108455657958984,0,
 757211,-0.0703125,-0.322509765625,-0.9990234375,-6.310975551605225,-4.390244007110596,3.353658676147461,-8.399999618530273,-10.199999809265137,11.25,38.06053161621094,0,
 757221,-0.071044921875,-0.35302734375,-1.003662109375,-3.658536672592163,-3.9939024448394775,4.146341323852539,-10.050000190734863,-12.75,13.649999618530273,38.06053161621094,0,
 757301,-0.220458984375,-0.426025390625,-1.04443359375,-4.390244007110596,-8.231707572937012,8.262195587158203,-7.5,-10.949999809265137,14.25,38.06053161621094,0,
 757311,-0.5234375,-0.36181640625,-1.1767578125,-9.207317352294922,-15.609756469726562,10.97560977935791,-8.100000381469727,-11.550000190734863,13.949999809265137,38.06053161621094,0,
 757321,-0.8759765625,-0.373779296875,-1.0693359375,-7.103658676147461,-18.262195587158203,0.3658536672592163,-8.100000381469727,-11.550000190734863,13.949999809265137,38.108455657958984,0,
 757331,-0.331787109375,-0.38330078125,-0.451904296875,7.77439022064209,-3.567073345184326,9.329268455505371,-9.300000190734863,-11.550000190734863,15.149999618530273,37.96468734741211,0,
 757341,-0.16552734375,0.037109375,-0.49853515625,-72.3780517578125,-29.664634704589844,32.65243911743164,-9.300000190734863,-12.449999809265137,15.449999809265137,38.25222396850586,0,
 757351,-0.93603515625,0.1064453125,-1.332763671875,-81.37195587158203,-98.6280517578125,34.78658676147461,-7.199999809265137,-12.149999618530273,15.0,38.108455657958984,0,
 757361,-0.435791015625,-0.179931640625,-0.653564453125,30.731708526611328,-39.29878234863281,61.89024353027344,-7.949999809265137,-10.649999618530273,15.0,38.15637969970703,0,
 757371,-0.221435546875,-0.34716796875,-0.93994140625,40.030487060546875,-37.19512176513672,62.164634704589844,-7.949999809265137,-10.649999618530273,15.0,37.72507095336914,0,
 757381,-0.832275390625,0.01904296875,-1.268310546875,35.57926940917969,-40.60975646972656,60.94512176513672,-5.849999904632568,-12.0,12.149999618530273,37.96468734741211,0,
 757391,-0.98974609375,-0.349609375,-1.328369140625,84.14634704589844,20.762195587158203,66.46341705322266,-7.949999809265137,-11.850000381469727,15.300000190734863,38.15637969970703,0,
 757401,-0.13232421875,-0.51806640625,-0.815673828125,18.810976028442383,-33.20122146606445,70.48780822753906,-6.0,-13.050000190734863,15.0,37.96468734741211,0,
 757411,-0.295654296875,-0.4052734375,-1.099365234375,-31.615854263305664,-45.15243911743164,71.06707763671875,-6.0,-13.050000190734863,15.0,37.91676330566406,0,
 757421,-0.41357421875,-0.10693359375,-1.09765625,56.067073822021484,-28.53658676147461,72.53048706054688,-4.349999904632568,-10.350000381469727,13.649999618530273,37.77299499511719,0,
 757431,-0.31689453125,-0.592041015625,-1.165283203125,24.63414764404297,-37.835365295410156,67.1036605834961,-4.5,-11.850000381469727,13.800000190734863,37.91676330566406,0,
 757441,-0.2392578125,-0.57763671875,-1.0302734375,0.5182926654815674,-40.7621955871582,58.6280517578125,-4.650000095367432,-11.550000190734863,13.949999809265137,38.15637969970703,0,
 757451,-0.01611328125,-0.4716796875,-1.1220703125,18.75,-53.658538818359375,50.94512176513672,-3.299999952316284,-12.600000381469727,13.5,37.96468734741211,0,
 757461,0.029052734375,-0.53466796875,-1.114013671875,12.987805366516113,-54.817073822021484,41.463417053222656,-3.299999952316284,-12.600000381469727,13.5,38.06053161621094,0,
 757471,0.179443359375,-0.54833984375,-1.191162109375,12.34756088256836,-59.756099700927734,32.13414764404297,-3.299999952316284,-12.600000381469727,14.25,38.06053161621094,0,
 757481,0.35986328125,-0.593017578125,-1.234130859375,16.79878044128418,-52.408538818359375,24.78658676147461,-3.0,-13.350000381469727,13.800000190734863,37.91676330566406,0,
 757491,0.604736328125,-0.5810546875,-1.257568359375,32.8658561706543,-46.432926177978516,20.579269409179688,-2.4000000953674316,-12.75,13.199999809265137,38.25222396850586,0,
 757501,1.009033203125,-0.588134765625,-1.374755859375,45.3658561706543,-20.091463088989258,10.182927131652832,-2.4000000953674316,-12.75,13.199999809265137,38.06053161621094,0,
 757511,1.391357421875,-0.69677734375,-1.297119140625,48.17073440551758,-6.52439022064209,8.658536911010742,-4.199999809265137,-12.149999618530273,10.800000190734863,38.108455657958984,0,
 757521,1.964599609375,-0.61376953125,-1.1923828125,48.04878234863281,19.45121955871582,3.75,-2.4000000953674316,-12.75,13.649999618530273,37.91676330566406,0,
 757531,2.6044921875,-0.5849609375,-1.099853515625,18.475610733032227,62.713417053222656,-19.7560977935791,-2.4000000953674316,-12.75,12.899999618530273,38.108455657958984,0,
 757541,2.750244140625,-0.735107421875,-1.24853515625,14.512195587158203,107.256103515625,-53.01829528808594,-3.9000000953674316,-13.949999809265137,12.899999618530273,38.06053161621094,0,
 757551,2.452880859375,-0.595458984375,-1.239501953125,12.408536911010742,177.46951293945312,-106.92073059082031,-3.9000000953674316,-13.949999809265137,12.899999618530273,38.06053161621094,0,
 757561,1.8681640625,-0.70263671875,-1.466796875,28.018293380737305,204.23780822753906,-128.35366821289062,-4.949999809265137,-14.25,13.050000190734863,38.25222396850586,0,
 757571,1.378662109375,-0.8837890625,-1.47216796875,33.963417053222656,236.64634704589844,-141.9207305908203,-7.199999809265137,-14.25,12.75,37.91676330566406,0,
 757581,-8.0,-0.7724609375,8.0,14.786585807800293,224.4512176513672,-135.91464233398438,-8.100000381469727,-14.399999618530273,13.649999618530273,38.06053161621094,0,
 757591,-8.0,5.987548828125,-4.550537109375,-999.0244140625,-777.042724609375,-402.6524353027344,-8.100000381469727,-14.399999618530273,13.649999618530273,37.91676330566406,0,
 757601,-6.240234375,0.41796875,2.216064453125,79.20732116699219,-54.63414764404297,-645.3048706054688,-6.75,-19.350000381469727,19.799999237060547,37.91676330566406,0,
 757611,2.423583984375,-4.027587890625,3.861328125,969.51220703125,749.4207763671875,183.9634246826172,-10.949999809265137,-12.149999618530273,13.800000190734863,38.06053161621094,0,
 757621,5.213134765625,-3.015869140625,2.513916015625,574.542724609375,765.3963623046875,538.4451293945312,-18.899999618530273,-2.8499999046325684,7.949999809265137,37.91676330566406,0,
 757631,3.662841796875,1.091552734375,-5.029541015625,-893.3536987304688,180.0,187.8353729248047,-20.100000381469727,-1.0499999523162842,11.25,38.06053161621094,0,
 757641,-2.795654296875,1.275146484375,-2.4814453125,-907.9573364257812,-508.32318115234375,-118.04878234863281,-20.100000381469727,-19.799999237060547,21.75,38.108455657958984,0,
 757651,1.880126953125,0.96484375,-2.197509765625,53.32317352294922,539.51220703125,189.51220703125,-15.449999809265137,-24.75,18.450000762939453,37.96468734741211,0,
 757661,0.939208984375,-0.182861328125,-0.84912109375,899.9390258789062,-32.713417053222656,41.6158561706543,-15.0,-18.0,18.450000762939453,38.15637969970703,0,
 757671,-2.267578125,-2.63232421875,-2.57861328125,470.5487976074219,-214.57318115234375,-25.213415145874023,-11.550000190734863,-10.800000190734863,15.899999618530273,37.96468734741211,0,
 757681,0.1845703125,-0.614013671875,-0.573486328125,-303.6280517578125,261.1280517578125,-291.4634094238281,-11.550000190734863,-10.800000190734863,15.899999618530273,38.06053161621094,0,
 757731,0.388427734375,-0.253173828125,-0.8330078125,-131.8292694091797,-43.53658676147461,12.835366249084473,-14.850000381469727,-15.75,15.0,38.15637969970703,0,
 757741,-0.27685546875,0.05908203125,-0.93359375,-88.75,-20.640243530273438,2.4390244483947754,-13.050000190734863,-14.850000381469727,17.399999618530273,38.108455657958984,0,
 757751,0.042236328125,-0.3251953125,-0.917724609375,18.170732498168945,-7.530488014221191,-0.792682945728302,-13.350000381469727,-13.800000190734863,16.049999237060547,38.15637969970703,0,
 757761,0.039794921875,-0.4609375,-0.96240234375,28.780488967895508,5.792683124542236,7.347561359405518,-14.100000381469727,-13.800000190734863,17.25,38.06053161621094,0,
 757771,0.042236328125,-0.038818359375,-0.872314453125,-63.32317352294922,-16.310976028442383,12.286585807800293,-14.100000381469727,-13.800000190734863,17.25,37.91676330566406,0,
 757781,-0.19970703125,-0.424560546875,-1.394775390625,-38.2621955871582,-24.481708526611328,14.603658676147461,-10.649999618530273,-12.149999618530273,16.799999237060547,38.108455657958984,0,
 757791,0.08154296875,-0.545166015625,-0.9892578125,79.75609588623047,2.7134146690368652,6.189024448394775,-9.899999618530273,-12.600000381469727,17.549999237060547,38.300148010253906,0,
 757802,0.064697265625,-0.2578125,-0.893798828125,-32.92683029174805,-13.018293380737305,-4.0853657722473145,-11.25,-13.649999618530273,15.449999809265137,38.06053161621094,0,
 757812,-0.099609375,-0.188720703125,-1.144775390625,-57.469512939453125,-26.463415145874023,3.8109757900238037,-11.25,-13.649999618530273,15.449999809265137,37.91676330566406,0,
 757822,-0.3408203125,-0.291015625,-1.107177734375,3.1402440071105957,-22.378049850463867,15.853658676147461,-10.050000190734863,-14.399999618530273,15.899999618530273,38.108455657958984,0,
 757832,-0.27392578125,-0.27783203125,-0.896240234375,13.018293380737305,-34.725608825683594,6.554878234863281,-11.550000190734863,-13.649999618530273,16.200000762939453,38.108455657958984,0,
 757842,-0.1025390625,0.024169921875,-0.67041015625,-56.158538818359375,-96.37195587158203,25.30487823486328,-9.300000190734863,-13.949999809265137,17.399999618530273,38.15637969970703,0,
 757852,-0.66357421875,0.003662109375,-1.18359375,98.14024353027344,-67.56097412109375,30.060976028442383,-7.800000190734863,-12.449999809265137,16.649999618530273,38.108455657958984,0,
 757862,-0.897216796875,-0.517822265625,-1.24169921875,84.84756469726562,-41.25,29.84756088256836,-7.800000190734863,-12.449999809265137,16.649999618530273,37.77299499511719,0,
 757872,-0.131591796875,-0.462646484375,-0.371826171875,21.55487823486328,-101.28048706054688,32.317073822021484,-10.5,-12.449999809265137,16.200000762939453,38.25222396850586,0,
 757882,-0.67333984375,-0.528076171875,-1.022705078125,5.060975551605225,-113.56707763671875,25.94512176513672,-9.149999618530273,-12.149999618530273,15.75,38.25222396850586,0,
 757892,-0.700927734375,-0.4287109375,-0.624755859375,0.8841463327407837,-113.78048706054688,1.6463414430618286,-9.449999809265137,-11.399999618530273,16.049999237060547,37.91676330566406,0,
 757902,-1.083984375,-0.425048828125,-1.10107421875,-15.792683601379395,-91.37195587158203,-32.164634704589844,-9.449999809265137,-11.399999618530273,16.049999237060547,38.395992279052734,0,
 757912,-1.315673828125,-0.3759765625,-0.990478515625,15.487805366516113,-101.61585235595703,-14.603658676147461,-6.0,-12.600000381469727,14.550000190734863,37.868839263916016,0,
 757922,-0.285400390625,-0.03759765625,-0.47412109375,18.109756469726562,-144.2987823486328,6.219512462615967,-7.349999904632568,-11.25,12.149999618530273,37.91676330566406,0,
 757932,-1.173095703125,0.032958984375,-1.06787109375,29.60365867614746,-149.60366821289062,31.58536720275879,-5.849999904632568,-11.25,13.649999618530273,38.06053161621094,0,
 757942,-1.0341796875,0.04736328125,-0.865234375,44.35975646972656,-124.90853881835938,36.76829528808594,-4.5,-12.149999618530273,15.0,37.96468734741211,0,
 757952,-0.696044921875,-0.165771484375,-0.95458984375,25.762195587158203,-158.44512939453125,59.17683029174805,-4.5,-12.149999618530273,15.0,38.06053161621094,0,
 757962,-0.620849609375,-0.238037109375,-1.122314453125,10.731707572937012,-157.5,72.43902587890625,-4.949999809265137,-9.899999618530273,12.75,37.91676330566406,0,
 757972,-0.369140625,-0.16552734375,-1.205078125,15.396342277526855,-141.3719482421875,79.08536529541016,-2.8499999046325684,-10.050000190734863,11.699999809265137,38.15637969970703,0,
 757982,-0.193115234375,-0.239501953125,-1.31982421875,32.19512176513672,-139.72561645507812,91.95122528076172,-0.15000000596046448,-11.550000190734863,12.899999618530273,38.06053161621094,0,
 757992,-0.00634765625,-0.40673828125,-1.52978515625,46.006099700927734,-117.95732116699219,92.04268646240234,-0.15000000596046448,-11.550000190734863,12.899999618530273,37.91676330566406,0,
 758002,0.652099609375,-0.725830078125,-1.49609375,21.920732498168945,-86.95122528076172,79.17683410644531,0.75,-13.050000190734863,10.800000190734863,38.25222396850586,0,
 758012,1.0009765625,-0.615234375,-1.54052734375,-11.09756088256836,-65.18292999267578,70.70121765136719,0.15000000596046448,-12.0,11.399999618530273,37.96468734741211,0,
 758022,1.213623046875,-0.555419921875,-1.390625,-10.365854263305664,-69.7256088256836,60.060977935791016,3.0,-12.149999618530273,10.050000190734863,37.96468734741211,0,
 758032,1.192626953125,-0.54833984375,-1.42041015625,-2.2560975551605225,-47.19512176513672,45.121952056884766,1.649999976158142,-13.649999618530273,10.649999618530273,38.15637969970703,0,
 758042,1.3173828125,-0.5634765625,-1.313232421875,-5.4268293380737305,-23.658536911010742,21.341463088989258,1.649999976158142,-13.649999618530273,10.649999618530273,38.06053161621094,0,
 758052,1.54443359375,-0.527587890625,-1.267578125,0.0,-14.17682933807373,11.189024925231934,1.649999976158142,-14.399999618530273,10.649999618530273,38.25222396850586,0,
 758062,1.843505859375,-0.489013671875,-1.267333984375,-4.878048896789551,10.396341323852539,-9.72560977935791,1.5,-13.800000190734863,10.050000190734863,37.91676330566406,0,
 758072,1.76318359375,-0.506591796875,-1.302978515625,-9.664634704589844,34.908538818359375,-36.98170852661133,-0.15000000596046448,-15.149999618530273,7.949999809265137,38.108455657958984,0,
 758082,1.9169921875,-0.406494140625,-1.300048828125,-12.957317352294922,65.21341705322266,-52.682926177978516,-0.15000000596046448,-15.149999618530273,7.949999809265137,38.06053161621094,0,
 758092,1.952392578125,-0.399658203125,-1.3623046875,-5.213414669036865,95.48780822753906,-72.6524429321289,-0.15000000596046448,-13.949999809265137,10.199999809265137,37.96468734741211,0,
 758102,1.724365234375,-0.53955078125,-1.4248046875,3.6890244483947754,133.01829528808594,-93.17073059082031,-0.44999998807907104,-14.850000381469727,11.399999618530273,38.06053161621094,0,
 758112,1.552734375,-0.634033203125,-1.526611328125,1.25,171.61585998535156,-112.71341705322266,-0.30000001192092896,-13.800000190734863,12.0,37.868839263916016,0,
 758122,1.137451171875,-0.6318359375,-1.63818359375,-11.615854263305664,203.0792694091797,-127.34756469726562,-1.2000000476837158,-13.949999809265137,12.449999809265137,38.108455657958984,0,
 758132,0.7890625,-0.6318359375,-1.60009765625,-14.969512939453125,234.90853881835938,-133.78048706054688,-1.2000000476837158,-13.949999809265137,12.449999809265137,38.15637969970703,0,
 758142,0.452392578125,-0.606689453125,-1.542724609375,-19.024391174316406,254.78659057617188,-126.82926940917969,-5.400000095367432,-13.949999809265137,12.899999618530273,38.06053161621094,0,
 758152,-0.588623046875,-0.987548828125,2.1513671875,-19.542682647705078,247.01220703125,-106.03659057617188,-5.849999904632568,-11.550000190734863,13.649999618530273,37.96468734741211,0,
 758162,-3.80859375,0.378173828125,8.0,-999.0244140625,-477.5304870605469,-188.8719482421875,-5.099999904632568,-13.199999809265137,15.899999618530273,37.91676330566406,0,
 758172,-8.0,8.0,-7.999755859375,-822.5914916992188,-897.1646728515625,-900.9146728515625,-5.099999904632568,-13.199999809265137,15.899999618530273,38.15637969970703,0,
 758182,-1.635009765625,-4.260009765625,5.09716796875,998.993896484375,744.268310546875,-159.3292694091797,-6.449999809265137,-17.700000762939453,16.799999237060547,38.108455657958984,0,
 758192,6.48974609375,-5.215087890625,4.81201171875,830.9146728515625,737.01220703125,389.7256164550781,-15.899999618530273,-0.75,10.050000190734863,38.108455657958984,0,
 758332,-0.054443359375,-0.341064453125,-0.927490234375,-81.37195587158203,-9.634146690368652,0.15243902802467346,-8.399999618530273,-16.200000762939453,15.300000190734863,38.108455657958984,0,
 758342,-0.103515625,0.02392578125,-1.091064453125,-9.603658676147461,-8.87195110321045,14.146341323852539,-8.100000381469727,-17.549999237060547,17.700000762939453,38.108455657958984,0,
 758352,-0.31494140625,-0.134765625,-1.12939453125,44.54268264770508,15.15243911743164,13.841464042663574,-8.100000381469727,-17.549999237060547,17.700000762939453,37.96468734741211,0,
 758362,0.01806640625,-0.3994140625,-1.027587890625,-20.18292808532715,-8.719511985778809,8.231707572937012,-6.75,-16.200000762939453,18.75,37.96468734741211,0,
 758372,-0.11669921875,-0.2294921875,-1.05517578125,-45.70122146606445,-3.5060975551605225,6.8597564697265625,-7.199999809265137,-16.950000762939453,17.549999237060547,38.25222396850586,0,
 758382,-0.107666015625,-0.030517578125,-1.118408203125,19.05487823486328,-3.170731782913208,6.128048896789551,-6.75,-15.75,18.299999237060547,38.06053161621094,0,
 758392,-0.103515625,-0.2314453125,-0.99853515625,-3.628048896789551,-8.75,6.067073345184326,-6.75,-15.75,18.299999237060547,38.15637969970703,0,
 758402,-0.1064453125,-0.19921875,-1.03271484375,-12.62195110321045,-11.52439022064209,5.609755992889404,-7.199999809265137,-17.399999618530273,19.049999237060547,38.06053161621094,0,
 758412,-0.1572265625,-0.124755859375,-1.09521484375,4.45121955871582,-11.006097793579102,8.47560977935791,-6.449999809265137,-16.200000762939453,18.299999237060547,38.25222396850586,0,
 758422,-0.171142578125,-0.30517578125,-1.084228515625,-4.695122241973877,-16.0060977935791,7.134146690368652,-7.349999904632568,-18.299999237060547,19.649999618530273,38.25222396850586,0,
 758432,-0.205810546875,-0.31005859375,-1.111083984375,-3.1402440071105957,-20.975610733032227,5.487804889678955,-6.300000190734863,-15.600000381469727,17.700000762939453,38.25222396850586,0,
 758442,-0.27001953125,-0.29931640625,-1.164794921875,1.0670732259750366,-22.98780632019043,7.77439022064209,-6.300000190734863,-15.600000381469727,17.700000762939453,38.15637969970703,0,
 758452,-0.416259765625,-0.33642578125,-1.1259765625,-9.87804889678955,-25.426830291748047,9.786585807800293,-5.25,-16.950000762939453,20.25,37.91676330566406,0,
 758462,-0.94091796875,-0.3369140625,-1.162841796875,17.774391174316406,-34.725608825683594,6.280488014221191,-5.099999904632568,-15.149999618530273,19.200000762939453,38.108455657958984,0,
 758472,-0.64111328125,-0.194580078125,-1.140625,13.353658676147461,-8.810976028442383,-2.7439024448394775,-6.300000190734863,-16.799999237060547,17.700000762939453,38.108455657958984,0,
 758482,-0.6376953125,-0.17578125,-1.015380859375,49.48170852661133,-1.1585365533828735,15.945122718811035,-6.300000190734863,-16.799999237060547,17.700000762939453,38.06053161621094,0,
 758492,-0.4921875,0.103759765625,-0.119873046875,52.13414764404297,-5.762195110321045,35.79268264770508,-5.25,-15.75,18.299999237060547,37.96468734741211,0,
 758502,-0.626953125,0.364013671875,-1.09033203125,-11.12804889678955,-50.42683029174805,75.91463470458984,-5.849999904632568,-17.100000381469727,18.149999618530273,37.868839263916016,0,
 758512,-1.599609375,0.205322265625,-1.10693359375,76.00609588623047,-58.567073822021484,101.31098175048828,-4.5,-14.550000190734863,16.5,38.06053161621094,0,
 758522,-1.359375,-0.50341796875,-1.17041015625,166.9207305908203,18.9939022064209,107.46951293945312,-5.25,-14.550000190734863,16.799999237060547,37.91676330566406,0,
 758532,-0.79248046875,-0.817626953125,-0.169921875,204.57318115234375,-0.030487805604934692,89.4817123413086,-5.25,-14.550000190734863,16.799999237060547,38.06053161621094,0,
 758542,-0.805908203125,-0.65234375,-0.765625,42.65243911743164,-47.65243911743164,79.8780517578125,-2.8499999046325684,-13.199999809265137,12.449999809265137,38.06053161621094,0,
 758552,-1.009033203125,-0.0576171875,-0.843994140625,-66.1280517578125,-101.4024429321289,83.14024353027344,-3.9000000953674316,-12.0,15.449999809265137,37.96468734741211,0,
 758562,-0.631103515625,-0.2822265625,-0.74267578125,37.19512176513672,-88.10975646972656,61.98170852661133,-2.0999999046325684,-13.649999618530273,15.149999618530273,38.300148010253906,0,
 758572,-0.534912109375,-0.5029296875,-0.97607421875,72.3780517578125,-121.21951293945312,53.07926940917969,-2.0999999046325684,-13.649999618530273,15.149999618530273,38.06053161621094,0,
 758582,-0.15478515625,-0.60595703125,-1.15869140625,28.871952056884766,-136.61585998535156,32.07316970825195,-2.4000000953674316,-12.449999809265137,13.199999809265137,38.395992279052734,0,
 758592,0.165283203125,-0.47998046875,-1.21826171875,-26.981708526611328,-135.82318115234375,31.95121955871582,0.75,-13.050000190734863,13.800000190734863,38.06053161621094,0,
 758643,2.2939453125,-0.649658203125,-1.256103515625,79.45121765136719,-11.036585807800293,53.47561264038086,3.0,-15.300000190734863,8.550000190734863,38.300148010253906,0,
 758653,2.448974609375,-0.771240234375,-1.391845703125,52.835365295410156,31.158536911010742,40.42683029174805,1.0499999523162842,-15.75,10.5,37.96468734741211,0,
 758663,2.464599609375,-0.548828125,-1.404541015625,-11.12804889678955,58.658538818359375,9.29878044128418,1.0499999523162842,-15.75,10.5,37.96468734741211,0,
 758673,2.6748046875,-0.603271484375,-1.2822265625,16.25,120.79268646240234,-28.53658676147461,0.44999998807907104,-16.350000381469727,9.899999618530273,38.25222396850586,0,
 758683,2.243408203125,-0.731201171875,-1.48291015625,20.579269409179688,147.34756469726562,-67.62195587158203,0.0,-15.75,10.800000190734863,37.96468734741211,0,
 758693,1.921875,-0.855712890625,-1.575439453125,23.20121955871582,190.73170471191406,-103.44512176513672,-1.0499999523162842,-15.0,11.25,38.06053161621094,0,
 758703,1.4140625,-0.9775390625,-1.648193359375,36.371952056884766,218.6280517578125,-130.7012176513672,-1.5,-16.200000762939453,13.5,37.868839263916016,0,
 758713,0.882080078125,-0.983642578125,-1.797607421875,29.725610733032227,245.39634704589844,-159.96951293945312,-1.5,-16.200000762939453,13.5,37.91676330566406,0,
 758723,0.39404296875,-0.877197265625,-1.83837890625,26.371952056884766,262.3475646972656,-178.44512939453125,-3.9000000953674316,-13.199999809265137,14.399999618530273,37.96468734741211,0,
 758733,-0.181640625,-0.85595703125,0.221435546875,44.32926940917969,256.7378234863281,-178.53659057617188,-6.300000190734863,-11.550000190734863,13.199999809265137,37.77299499511719,0,
 758743,-7.247802734375,0.964111328125,8.0,-248.53659057617188,155.4268341064453,-162.1341552734375,-6.300000190734863,-9.600000381469727,12.449999809265137,38.15637969970703,0,
 758753,-8.0,8.0,-7.999755859375,848.8719482421875,89.42073059082031,-76.03659057617188,-6.300000190734863,-9.600000381469727,12.449999809265137,38.06053161621094,0,
 758763,-4.21923828125,-1.173583984375,5.71533203125,998.993896484375,734.4207763671875,229.756103515625,-5.25,-17.399999618530273,18.75,38.06053161621094,0,
 758773,5.76171875,-5.219970703125,5.99609375,192.56097412109375,632.9268188476562,153.59756469726562,-10.5,-2.8499999046325684,10.649999618530273,38.06053161621094,0,
 758783,6.2939453125,-2.860595703125,-3.53759765625,-999.0244140625,-583.3841552734375,263.8414611816406,-13.5,4.050000190734863,9.449999809265137,38.395992279052734,0,
 758793,0.19921875,1.674560546875,-3.10595703125,-225.09146118164062,-203.10975646972656,180.48780822753906,-17.100000381469727,-12.149999618530273,18.299999237060547,37.96468734741211,0,
 758803,-0.7314453125,1.85009765625,1.635498046875,-82.25609588623047,405.3963623046875,5.0,-17.100000381469727,-12.149999618530273,18.299999237060547,37.91676330566406,0,
 758813,0.423583984375,1.58837890625,-1.652587890625,805.8231811523438,-136.15853881835938,-83.2317123413086,-8.100000381469727,-21.450000762939453,19.950000762939453,37.91676330566406,0,
 758823,-0.015625,0.1640625,-1.539794921875,776.1890258789062,-3.079268455505371,-259.8475646972656,-6.449999809265137,-15.75,19.049999237060547,38.108455657958984,0,
 758833,-0.986572265625,-3.48193359375,-0.5458984375,-3.841463565826416,151.52439880371094,-192.86585998535156,-6.449999809265137,-12.149999618530273,14.25,38.108455657958984,0,
 758843,0.37646484375,-2.146240234375,-1.926513671875,-240.0914764404297,-242.34756469726562,-7.195122241973877,-6.449999809265137,-12.149999618530273,14.25,37.91676330566406,0,
 758853,-0.57421875,0.1748046875,-1.24267578125,-128.81097412109375,-83.38414764404297,99.08536529541016,-8.699999809265137,-10.949999809265137,16.799999237060547,38.06053161621094,0,
 758863,-0.145751953125,0.755615234375,-0.14453125,140.03048706054688,40.3658561706543,89.69512176513672,-8.399999618530273,-14.25,17.549999237060547,37.868839263916016,0,
 758883,0.439208984375,-0.593017578125,-1.287841796875,-85.42683410644531,-76.76829528808594,-23.780488967895508,-9.300000190734863,-13.199999809265137,15.449999809265137,38.06053161621094,0,
 758893,-0.145263671875,-0.355712890625,-0.635986328125,-75.24390411376953,3.7804877758026123,24.817073822021484,-9.300000190734863,-13.199999809265137,15.449999809265137,37.77299499511719,0,
 758903,-0.58203125,-0.0126953125,-1.164306640625,-27.59146499633789,39.2378044128418,-24.390243530273438,-6.75,-12.600000381469727,16.5,38.06053161621094,0,
 758913,-0.20068359375,-0.586669921875,-1.19287109375,40.54878234863281,-6.189024448394775,-17.10365867614746,-8.699999809265137,-14.25,16.5,38.06053161621094,0,
 758923,-0.12451171875,-0.327392578125,-0.78125,46.79878234863281,-18.93292808532715,15.640244483947754,-7.5,-13.050000190734863,15.75,38.06053161621094,0,
 758933,-0.1279296875,-0.240966796875,-1.07666015625,-13.932927131652832,1.0060975551605225,8.231707572937012,-7.5,-13.050000190734863,15.75,38.06053161621094,0,
 758943,0.020263671875,-0.302490234375,-0.974365234375,-24.84756088256836,13.384146690368652,3.9634146690368652,-8.699999809265137,-13.800000190734863,16.799999237060547,37.96468734741211,0,
 758953,-0.101318359375,-0.18310546875,-1.038818359375,-33.414634704589844,4.512195110321045,6.158536911010742,-7.949999809265137,-15.75,16.049999237060547,37.91676330566406,0,
 758963,-0.08740234375,-0.1982421875,-1.057373046875,-7.0731706619262695,5.609755992889404,-0.3658536672592163,-7.800000190734863,-13.949999809265137,16.649999618530273,37.96468734741211,0,
 758973,-0.08740234375,-0.3701171875,-0.9912109375,14.542683601379395,3.8719513416290283,0.27439025044441223,-7.5,-13.350000381469727,18.299999237060547,38.25222396850586,0,
 758983,-0.069091796875,-0.226318359375,-1.00341796875,-11.737805366516113,2.5304877758026123,3.5060975551605225,-7.5,-13.350000381469727,18.299999237060547,37.91676330566406,0,
 758993,-0.03076171875,-0.172119140625,-0.975830078125,-9.939024925231934,4.5731706619262695,1.9817073345184326,-7.800000190734863,-16.799999237060547,16.950000762939453,37.96468734741211,0,
 759003,-0.078369140625,-0.2236328125,-1.0283203125,-0.8536585569381714,5.54878044128418,1.1585365533828735,-7.949999809265137,-13.350000381469727,18.0,38.108455657958984,0,
 759013,-0.100830078125,-0.209716796875,-1.064697265625,-3.3231709003448486,2.987804889678955,-0.5182926654815674,-7.800000190734863,-13.649999618530273,16.649999618530273,38.06053161621094,0,
 759023,-0.068603515625,-0.251220703125,-1.0615234375,3.3841464519500732,2.6219513416290283,-0.18292683362960815,-7.800000190734863,-13.649999618530273,16.649999618530273,38.25222396850586,0,
 759033,-0.07373046875,-0.2109375,-1.04345703125,-0.21341463923454285,-1.6768293380737305,-0.8231707215309143,-7.800000190734863,-13.199999809265137,17.399999618530273,38.108455657958984,0,
 759043,-0.053466796875,-0.207763671875,-1.07080078125,2.9573171138763428,-2.7439024448394775,-2.5304877758026123,-8.699999809265137,-13.800000190734863,16.799999237060547,37.72507095336914,0,
 759053,-0.11083984375,-0.251953125,-1.10400390625,7.408536911010742,-6.8597564697265625,-4.207317352294922,-7.800000190734863,-17.100000381469727,16.200000762939453,38.06053161621094,0,
 759063,-0.145751953125,-0.27490234375,-1.09619140625,10.579268455505371,-8.963415145874023,-5.731707572937012,-7.5,-15.300000190734863,16.049999237060547,38.25222396850586,0,
 759073,-0.161865234375,-0.26513671875,-1.151611328125,8.353658676147461,-11.25,-6.737804889678955,-7.5,-15.300000190734863,16.049999237060547,38.15637969970703,0,
 759083,-0.330810546875,-0.3037109375,-1.1875,13.59756088256836,-17.7439022064209,-9.481707572937012,-8.100000381469727,-14.850000381469727,16.649999618530273,38.25222396850586,0,
 759093,-0.32666015625,-0.34423828125,-1.156005859375,21.676830291748047,-12.103658676147461,-14.085366249084473,-7.199999809265137,-13.800000190734863,15.0,37.96468734741211,0,
 759103,-0.2939453125,-0.437744140625,-1.141357421875,28.323171615600586,-4.1768293380737305,-14.420732498168945,-7.349999904632568,-14.850000381469727,15.449999809265137,38.108455657958984,0,
 759113,-0.462158203125,-0.467041015625,-1.029296875,22.439023971557617,-2.682926893234253,-4.847560882568359,-7.349999904632568,-14.850000381469727,15.449999809265137,37.96468734741211,0,
 759153,-0.233642578125,-0.169677734375,0.079833984375,5.121951103210449,4.2682929039001465,22.68292808532715,-9.300000190734863,-12.0,14.399999618530273,37.91676330566406,0,
 759163,-0.42919921875,0.354736328125,0.2216796875,-152.04269409179688,-104.51219940185547,93.9024429321289,-9.300000190734863,-12.0,14.399999618530273,38.300148010253906,0,
 759173,-2.377197265625,0.166259765625,-1.83740234375,-88.71951293945312,-148.1707305908203,98.96341705322266,-7.349999904632568,-13.649999618530273,16.200000762939453,38.06053161621094,0,
 759183,-0.9677734375,-0.528076171875,-0.179931640625,109.96951293945312,-85.18292999267578,34.63414764404297,-7.349999904632568,-13.199999809265137,15.899999618530273,37.96468734741211,0,
 759193,-0.239990234375,-0.63525390625,-0.844970703125,95.54878234863281,-89.4817123413086,12.317073822021484,-5.400000095367432,-13.199999809265137,13.949999809265137,37.96468734741211,0,
 759203,-0.7197265625,-0.25048828125,-0.970703125,-40.975608825683594,-172.31707763671875,15.243903160095215,-5.400000095367432,-13.199999809265137,13.949999809265137,38.06053161621094,0,
 759213,-0.466552734375,0.041259765625,-1.21142578125,56.18902587890625,-162.59146118164062,10.304878234863281,-4.650000095367432,-13.949999809265137,14.399999618530273,38.06053161621094,0,
 759223,-0.14501953125,-0.386474609375,-1.331298828125,19.512195587158203,-170.5792694091797,12.92682933807373,-3.1500000953674316,-15.600000381469727,13.949999809265137,38.06053161621094,0,
 759233,0.20849609375,-0.333251953125,-1.567138671875,-6.310975551605225,-149.14634704589844,1.2195122241973877,-3.5999999046325684,-14.850000381469727,14.399999618530273,37.96468734741211,0,
 759243,0.536376953125,-0.218017578125,-1.652099609375,-12.682927131652832,-118.17073822021484,7.713414669036865,-0.44999998807907104,-13.949999809265137,14.699999809265137,38.06053161621094,0,
 759353,0.779052734375,-0.631591796875,-1.357177734375,-10.27439022064209,126.95122528076172,-78.10975646972656,-0.75,-15.300000190734863,13.800000190734863,38.15637969970703,0,
 759363,0.54638671875,-0.73974609375,-1.389404296875,-6.158536911010742,144.0853729248047,-92.256103515625,-1.0499999523162842,-17.700000762939453,12.0,38.108455657958984,0,
 759373,0.25634765625,-0.665283203125,-1.34326171875,-25.457317352294922,156.25,-106.5243911743164,-3.1500000953674316,-14.850000381469727,12.449999809265137,38.06053161621094,0,
 759383,0.16259765625,-0.663330078125,-1.2607421875,-13.109756469726562,169.69512939453125,-106.43292999267578,-3.1500000953674316,-14.850000381469727,12.449999809265137,37.96468734741211,0,
 759393,-0.0830078125,-0.3994140625,1.18212890625,-14.359756469726562,177.40853881835938,-101.06707763671875,-5.099999904632568,-14.399999618530273,16.649999618530273,38.108455657958984,0,
 759403,-2.396484375,0.1455078125,8.0,-902.2256469726562,-335.9756164550781,10.54878044128418,-6.449999809265137,-15.300000190734863,16.049999237060547,38.25222396850586,0,
 759413,-8.0,5.484619140625,-7.999755859375,-551.0670776367188,-626.768310546875,-303.6280517578125,-2.549999952316284,-22.5,19.5,38.06053161621094,0,
 759423,-2.325927734375,-0.95703125,2.443603515625,297.8658752441406,464.7256164550781,-336.4024353027344,-2.549999952316284,-22.5,19.5,38.15637969970703,0,
 759434,1.6923828125,-1.337646484375,1.6845703125,729.0853881835938,482.0426940917969,115.30487823486328,-2.549999952316284,-22.5,19.5,38.06053161621094,0,
 759444,5.521728515625,-1.0771484375,0.197021484375,216.006103515625,306.7987976074219,183.90245056152344,-10.949999809265137,-7.800000190734863,16.049999237060547,38.06053161621094,0,
 759454,-0.794677734375,1.231201171875,-3.871826171875,-631.5548706054688,210.09146118164062,296.18902587890625,-13.350000381469727,-9.300000190734863,15.449999809265137,38.06053161621094,0,
 759464,0.32568359375,1.1787109375,0.042236328125,-451.006103515625,-197.9268341064453,103.6280517578125,-13.350000381469727,-20.100000381469727,17.549999237060547,38.25222396850586,0,
 759474,2.381103515625,0.822021484375,-2.251220703125,650.030517578125,77.34756469726562,67.1036605834961,-13.350000381469727,-20.100000381469727,17.549999237060547,38.06053161621094,0,
 759484,-1.3291015625,-2.617919921875,-1.6826171875,998.993896484375,-28.475610733032227,-103.10975646972656,-12.899999618530273,-22.049999237060547,19.799999237060547,37.77299499511719,0,
 759494,-0.98974609375,-1.71240234375,0.882568359375,-240.64024353027344,-65.70121765136719,-169.90853881835938,-7.050000190734863,-13.949999809265137,18.899999618530273,37.96468734741211,0,
 759504,0.564453125,-0.955810546875,-3.6064453125,-167.77439880371094,236.9207305908203,-175.64024353027344,-6.0,-14.25,16.799999237060547,38.06053161621094,0,
 759514,-0.5595703125,-0.1826171875,-0.7216796875,75.82317352294922,-164.78659057617188,-1.6463414430618286,-6.0,-14.25,16.799999237060547,38.300148010253906,0,
 759524,-0.04736328125,0.149169921875,0.27294921875,-34.603660583496094,-187.56097412109375,75.18292999267578,-7.349999904632568,-12.75,16.950000762939453,38.06053161621094,0,
 759564,-0.069580078125,0.01025390625,-1.134765625,-66.61585235595703,8.780488014221191,-5.70121955871582,-9.449999809265137,-14.25,17.549999237060547,38.25222396850586,0,
 759574,-0.240234375,-0.05322265625,-1.063232421875,5.182927131652832,3.353658676147461,-9.329268455505371,-8.399999618530273,-15.300000190734863,18.0,38.06053161621094,0,
 759584,-0.013671875,-0.179443359375,-0.963623046875,60.60975646972656,29.207317352294922,-9.939024925231934,-6.75,-15.75,17.549999237060547,37.77299499511719,0,
 759594,-0.151123046875,-0.038330078125,-0.775390625,14.329268455505371,12.92682933807373,-14.87804889678955,-6.75,-15.75,17.549999237060547,38.15637969970703,0,
 759604,-0.034912109375,-0.55908203125,-1.4033203125,-4.45121955871582,-4.512195110321045,3.47560977935791,-6.75,-15.75,17.549999237060547,37.96468734741211,0,
 759614,-0.0009765625,-0.708251953125,-0.550048828125,129.11585998535156,14.207317352294922,5.4268293380737305,-5.849999904632568,-13.949999809265137,18.899999618530273,38.06053161621094,0,
 759624,0.012451171875,-0.063232421875,-1.11376953125,-120.12195587158203,-5.762195110321045,-5.304878234863281,-6.300000190734863,-17.100000381469727,19.950000762939453,37.96468734741211,0,
 759634,-0.302978515625,0.21142578125,-1.09033203125,-95.21341705322266,-32.59146499633789,1.6158536672592163,-7.199999809265137,-16.950000762939453,19.049999237060547,38.25222396850586,0,
 759644,-0.06396484375,-0.227294921875,-1.0556640625,63.93292999267578,10.70121955871582,-0.18292683362960815,-7.199999809265137,-16.950000762939453,19.049999237060547,37.868839263916016,0,
 759654,-0.10205078125,-0.3779296875,-0.9814453125,36.85975646972656,0.0,-0.3658536672592163,-7.199999809265137,-16.950000762939453,19.049999237060547,38.06053161621094,0,
 759664,-0.157470703125,-0.088134765625,-1.00927734375,6.737804889678955,-0.6707317233085632,3.170731782913208,-7.050000190734863,-17.100000381469727,18.299999237060547,38.108455657958984,0,
 759674,-0.185546875,-0.322998046875,-1.1669921875,17.83536720275879,5.152439117431641,-1.6158536672592163,-6.449999809265137,-15.75,19.5,37.77299499511719,0,
 759684,-0.166259765625,-0.48779296875,-1.076904296875,-20.030488967895508,-2.865853786468506,1.8597561120986938,-6.449999809265137,-15.75,19.5,37.96468734741211,0,
 759694,-0.1650390625,-0.2255859375,-1.043212890625,-11.554878234863281,-1.585365891456604,6.737804889678955,-6.449999809265137,-15.75,19.5,38.15637969970703,0,
 759704,-0.232421875,-0.2275390625,-1.113037109375,-9.72560977935791,2.3475611209869385,5.945122241973877,-6.300000190734863,-15.600000381469727,16.799999237060547,37.91676330566406,0,
 759714,-0.259521484375,-0.256103515625,-1.09716796875,-10.457317352294922,5.457317352294922,8.353658676147461,-6.599999904632568,-15.600000381469727,18.149999618530273,38.06053161621094,0,
 759724,-0.19091796875,-0.309814453125,-1.065673828125,-1.432926893234253,2.1341464519500732,13.567073822021484,-5.25,-15.0,17.25,37.91676330566406,0,
 759734,-0.2412109375,-0.467529296875,-1.08154296875,-19.664634704589844,-0.030487805604934692,20.70121955871582,-5.25,-15.0,17.25,38.06053161621094,0,
 759764,-1.1787109375,-0.22998046875,-1.0068359375,2.8353660106658936,11.554878234863281,27.68292808532715,-5.25,-17.399999618530273,16.5,38.06053161621094,0,
 759774,-0.8828125,-0.343994140625,-0.88134765625,2.5304877758026123,59.63414764404297,34.1158561706543,-5.25,-17.399999618530273,16.5,37.72507095336914,0,
 759784,-0.35986328125,-0.16455078125,-0.612060546875,-132.1341552734375,-15.670732498168945,78.32317352294922,-5.25,-17.399999618530273,16.5,38.25222396850586,0,
 759794,-0.2314453125,0.60693359375,0.0576171875,-341.7987976074219,-115.06098175048828,170.82318115234375,-7.349999904632568,-18.0,19.649999618530273,37.91676330566406,0,
 759804,-0.50244140625,1.373779296875,0.599853515625,-73.78048706054688,-214.66464233398438,263.6585388183594,-5.25,-17.700000762939453,19.5,37.91676330566406,0,
 759814,-2.532958984375,1.27001953125,-1.46484375,593.5975952148438,-83.71951293945312,144.35975646972656,-6.75,-14.25,15.75,38.300148010253906,0,
 759824,-1.921142578125,-1.020263671875,-0.34033203125,585.0,-32.8658561706543,113.71951293945312,-6.75,-14.25,15.75,37.868839263916016,0,
 759834,-0.0166015625,-1.036865234375,-0.507080078125,-54.908538818359375,-139.51219177246094,121.55487823486328,-3.1500000953674316,-10.050000190734863,14.699999809265137,37.96468734741211,0,
 759854,-0.265625,0.0947265625,-1.3037109375,15.365854263305664,-149.57318115234375,78.29268646240234,2.549999952316284,-14.25,16.5,38.15637969970703,0,
 759864,0.166748046875,-0.960205078125,-1.883544921875,212.65245056152344,-146.18902587890625,73.9024429321289,2.549999952316284,-14.25,16.5,37.96468734741211,0,
 759874,0.541259765625,-1.38134765625,-1.763427734375,195.27439880371094,-154.4512176513672,48.32317352294922,5.25,-15.300000190734863,12.75,37.91676330566406,0,
 759884,0.89794921875,-1.16552734375,-1.63330078125,-14.695122718811035,-114.69512176513672,-26.4939022064209,5.099999904632568,-13.949999809265137,12.149999618530273,37.96468734741211,0,
 759894,0.997314453125,-0.1904296875,-2.046142578125,-211.61585998535156,-76.67683410644531,-21.189023971557617,3.299999952316284,-16.200000762939453,10.800000190734863,38.108455657958984,0,
 759904,1.152587890625,0.593994140625,-1.80322265625,-190.27439880371094,-71.09756469726562,-21.280488967895508,3.75,-16.5,10.5,38.108455657958984,0,
 759914,0.991943359375,0.263671875,-1.701171875,4.359755992889404,-13.292683601379395,-68.38414764404297,3.75,-16.5,10.5,38.25222396850586,0,
 759924,0.957275390625,-0.355224609375,-1.679931640625,157.77439880371094,25.518293380737305,-60.70122146606445,4.5,-16.5,10.800000190734863,37.868839263916016,0,
 759974,0.91259765625,-0.480712890625,-1.077392578125,12.957317352294922,133.3841552734375,-105.76219940185547,-1.0499999523162842,-15.75,13.050000190734863,37.77299499511719,0,
 759984,1.040771484375,-0.664794921875,-0.90185546875,31.49390411376953,160.09146118164062,-126.03659057617188,-1.7999999523162842,-12.600000381469727,14.25,37.91676330566406,0,
 759994,1.088134765625,-0.74658203125,-0.806640625,29.817073822021484,169.93902587890625,-142.6829376220703,-3.0,-12.600000381469727,13.5,38.06053161621094,0,
 760004,0.751953125,-0.602294921875,-0.909912109375,-5.640244007110596,159.23780822753906,-159.39024353027344,-3.0,-12.600000381469727,13.5,38.395992279052734,0,
 760014,0.50048828125,-0.543701171875,-0.993896484375,-3.5365853309631348,169.756103515625,-167.7134246826172,-4.949999809265137,-13.050000190734863,13.800000190734863,37.96468734741211,0,
 760024,0.278564453125,-0.513916015625,-1.001953125,5.853658676147461,179.0853729248047,-167.7134246826172,-7.199999809265137,-12.149999618530273,15.300000190734863,37.91676330566406,0,
 760034,0.10498046875,-0.35400390625,-0.89501953125,-0.030487805604934692,184.8780517578125,-163.53659057617188,-9.449999809265137,-11.399999618530273,14.25,38.108455657958984,0,
 760044,-5.199462890625,0.28369140625,7.5029296875,-106.73780822753906,126.58536529541016,-144.2987823486328,-9.449999809265137,-11.399999618530273,14.25,38.06053161621094,0,
 760054,-8.0,2.34375,-4.58740234375,-914.6036987304688,-732.28662109375,-75.09146881103516,-6.300000190734863,-16.799999237060547,18.450000762939453,38.25222396850586,0,
 760064,-6.237060546875,-0.6025390625,2.136474609375,-535.6402587890625,-6.371951580047607,-514.6951293945312,-11.550000190734863,-13.199999809265137,16.649999618530273,38.25222396850586,0,
 760074,2.55126953125,0.517822265625,1.26171875,661.4634399414062,554.4817504882812,226.85975646972656,-14.850000381469727,-8.699999809265137,13.050000190734863,37.91676330566406,0,
 760084,5.532958984375,-1.966552734375,0.793212890625,419.4817199707031,582.98779296875,287.1646423339844,-20.100000381469727,-5.849999904632568,12.0,37.72507095336914,0,
 760094,3.146240234375,-2.82275390625,-2.944580078125,49.05487823486328,325.57928466796875,269.2987976074219,-20.100000381469727,-5.849999904632568,12.0,38.06053161621094,0,
 760104,-4.979736328125,0.40673828125,-5.11572265625,-553.6280517578125,-721.5244140625,301.18902587890625,-12.75,-20.700000762939453,15.449999809265137,38.108455657958984,0,
 760114,0.622802734375,0.8525390625,0.052490234375,167.43902587890625,240.0914764404297,88.26219940185547,-12.149999618530273,-17.399999618530273,15.0,37.91676330566406,0,
 760124,1.45654296875,0.8125,-0.70751953125,-134.60366821289062,-220.06097412109375,-236.7987823486328,-10.199999809265137,-12.600000381469727,15.0,37.96468734741211,0,
 760134,-0.145263671875,-0.12255859375,-0.879638671875,315.6707458496094,46.82926940917969,-197.53048706054688,-10.199999809265137,-12.600000381469727,15.0,38.15637969970703,0,
 760144,-0.475830078125,-2.7041015625,-1.7841796875,-62.0121955871582,-43.963417053222656,121.55487823486328,-8.850000381469727,-11.25,15.149999618530273,37.77299499511719,0,
 760154,-0.651123046875,-0.7353515625,-0.339111328125,-379.20733642578125,-84.8780517578125,48.32317352294922,-11.25,-12.449999809265137,17.399999618530273,38.108455657958984,0,
 760164,0.260986328125,0.8642578125,-0.94189453125,-109.69512176513672,-35.67073440551758,-18.35365867614746,-8.550000190734863,-14.399999618530273,17.700000762939453,37.868839263916016,0,
 760174,-0.341064453125,0.406982421875,-0.87890625,191.40245056152344,13.506097793579102,26.25,-9.600000381469727,-16.799999237060547,14.399999618530273,38.25222396850586,0,
 760184,-0.19970703125,-0.753173828125,-1.171630859375,56.585365295410156,16.768293380737305,55.67073440551758,-11.399999618530273,-13.800000190734863,15.300000190734863,38.06053161621094,0,
 760194,-0.021240234375,-0.697509765625,-1.06689453125,-141.89024353027344,-4.817073345184326,-2.0731706619262695,-11.25,-13.949999809265137,16.950000762939453,38.25222396850586,0,
 760204,-0.1259765625,-0.032958984375,-1.163818359375,-68.4756088256836,-0.24390244483947754,1.8902438879013062,-10.649999618530273,-13.800000190734863,18.0,38.15637969970703,0,
 760214,-0.0908203125,0.321533203125,-1.073974609375,30.579269409179688,4.481707572937012,23.44512176513672,-8.399999618530273,-15.0,17.25,37.72507095336914,0,
 760224,-0.13623046875,-0.1162109375,-1.08154296875,73.4756088256836,25.0,7.530488014221191,-8.399999618530273,-15.0,17.25,37.96468734741211,0,
 760234,0.196533203125,-0.68994140625,-1.2958984375,23.53658676147461,-16.737804412841797,0.060975611209869385,-7.949999809265137,-15.300000190734863,16.5,37.96468734741211,0,
 760275,-0.008544921875,-0.393798828125,-1.0595703125,-13.90243911743164,-22.68292808532715,18.262195587158203,-7.5,-14.25,14.25,38.25222396850586,0,
 760285,-0.43115234375,-0.2412109375,-1.02490234375,-25.94512176513672,-24.359756469726562,16.737804412841797,-6.75,-15.300000190734863,17.25,38.25222396850586,0,
 760295,-0.79248046875,-0.404052734375,-1.30517578125,17.83536720275879,-36.371952056884766,8.506097793579102,-7.199999809265137,-14.25,16.799999237060547,38.15637969970703,0,
 760305,-0.876953125,-0.261474609375,-0.9931640625,4.45121955871582,-13.567073822021484,4.420732021331787,-7.199999809265137,-13.350000381469727,18.75,37.96468734741211,0,
 760315,-0.22265625,-0.12548828125,-0.966552734375,22.89634132385254,8.140244483947754,12.835366249084473,-7.199999809265137,-13.350000381469727,18.75,38.108455657958984,0,
 760325,-0.3955078125,0.015380859375,-0.828857421875,26.341463088989258,-5.97560977935791,32.560977935791016,-8.550000190734863,-12.449999809265137,15.149999618530273,38.300148010253906,0,
 760335,-0.7431640625,-0.32470703125,-1.089599609375,81.15853881835938,-17.2560977935791,37.8658561706543,-8.550000190734863,-11.25,16.649999618530273,37.91676330566406,0,
 760345,-0.3994140625,-0.519775390625,-0.99853515625,111.85975646972656,31.920732498168945,27.774391174316406,-9.149999618530273,-14.25,16.049999237060547,38.15637969970703,0,
 760355,-0.980712890625,-0.259521484375,-1.412353515625,28.628049850463867,11.432927131652832,27.530488967895508,-9.149999618530273,-14.25,16.049999237060547,37.96468734741211,0,
 760365,-0.775634765625,-0.539306640625,-0.880859375,99.756103515625,31.73780632019043,-6.95121955871582,-7.949999809265137,-12.600000381469727,15.300000190734863,37.96468734741211,0,
 760375,0.056640625,-0.56005859375,-0.666748046875,91.37195587158203,67.92683410644531,-21.43292808532715,-7.5,-9.449999809265137,10.800000190734863,38.06053161621094,0,
 760385,-0.182861328125,-0.10986328125,-0.6376953125,-37.9878044128418,3.0487804412841797,-12.317073822021484,-9.149999618530273,-12.600000381469727,15.75,38.108455657958984,0,
 760395,-0.145263671875,0.270751953125,-0.930419921875,-96.70732116699219,-5.152439117431641,-0.3353658616542816,-9.300000190734863,-12.449999809265137,13.949999809265137,37.96468734741211,0,
 760405,-0.25,0.152587890625,-0.99169921875,-10.579268455505371,-7.804878234863281,-0.6402438879013062,-9.300000190734863,-12.449999809265137,13.949999809265137,38.15637969970703,0,
 760415,0.007080078125,-0.220947265625,-0.99560546875,77.6524429321289,6.341463565826416,3.3841464519500732,-9.449999809265137,-12.149999618530273,15.300000190734863,37.91676330566406,0,
 760425,0.093994140625,-0.278076171875,-0.981689453125,39.69512176513672,-8.170731544494629,-3.353658676147461,-9.149999618530273,-13.350000381469727,13.050000190734863,38.06053161621094,0,
 760435,0.208984375,-0.05859375,-1.014892578125,-0.6402438879013062,-13.109756469726562,5.121951103210449,-7.949999809265137,-13.350000381469727,13.5,38.25222396850586,0,
 760445,0.267333984375,-0.237548828125,-1.05517578125,26.463415145874023,-13.292683601379395,7.012195110321045,-7.949999809265137,-13.350000381469727,13.5,38.06053161621094,0,
 760455,0.454345703125,-0.355712890625,-1.01123046875,25.670732498168945,-8.87195110321045,9.939024925231934,-7.349999904632568,-12.75,12.449999809265137,38.108455657958984,0,
 760465,0.5341796875,-0.19580078125,-1.04833984375,-5.182927131652832,-8.780488014221191,18.262195587158203,-9.300000190734863,-12.449999809265137,13.199999809265137,37.96468734741211,0,
 760475,0.3974609375,-0.08251953125,-1.091064453125,-13.445122718811035,-20.70121955871582,25.030488967895508,-9.300000190734863,-10.350000381469727,12.449999809265137,38.15637969970703,0,
 760485,0.42578125,-0.27001953125,-1.0927734375,13.292683601379395,-10.0,28.079269409179688,-8.699999809265137,-16.200000762939453,10.800000190734863,38.108455657958984,0,
 760495,0.3564453125,-0.313720703125,-1.007568359375,4.2682929039001465,-17.225610733032227,27.073171615600586,-8.699999809265137,-16.200000762939453,10.800000190734863,38.15637969970703,0,
 760505,0.368408203125,-0.290283203125,-0.97021484375,-7.77439022064209,-22.317073822021484,26.280488967895508,-8.699999809265137,-13.050000190734863,13.050000190734863,38.108455657958984,0,
 760515,0.372314453125,-0.27734375,-0.941162109375,-14.512195587158203,-32.256099700927734,25.15243911743164,-8.550000190734863,-13.649999618530273,12.449999809265137,37.96468734741211,0,
 760525,0.30615234375,-0.28173828125,-0.9833984375,-18.262195587158203,-42.682926177978516,22.439023971557617,-7.5,-13.800000190734863,12.300000190734863,37.96468734741211,0,
 760535,0.309814453125,-0.291748046875,-0.981201171875,-19.390243530273438,-46.79878234863281,18.414634704589844,-7.5,-13.800000190734863,12.300000190734863,38.15637969970703,0,
 760545,0.236572265625,-0.298095703125,-1.053466796875,-20.609756469726562,-52.65243911743164,13.384146690368652,-7.949999809265137,-14.25,13.5,38.15637969970703,0,
 760555,0.15869140625,-0.404052734375,-1.149658203125,-10.731707572937012,-52.13414764404297,7.652439117431641,-6.300000190734863,-13.949999809265137,12.449999809265137,38.06053161621094,0,
 760565,0.413818359375,-0.39453125,-1.002197265625,-14.786585807800293,-33.68902587890625,0.396341472864151,-7.050000190734863,-13.649999618530273,13.199999809265137,38.108455657958984,0,
 760575,0.530517578125,-0.228759765625,-0.940185546875,-15.243903160095215,-29.14634132385254,1.432926893234253,-6.599999904632568,-12.0,12.899999618530273,38.25222396850586,0,
 760585,0.552490234375,-0.2802734375,-1.0068359375,-5.5182929039001465,-16.189023971557617,0.4573170840740204,-6.599999904632568,-12.0,12.899999618530273,38.108455657958984,0,
 760595,0.60009765625,-0.3525390625,-0.997314453125,-8.658536911010742,-1.3719512224197388,-1.6768293380737305,-5.849999904632568,-13.649999618530273,12.149999618530273,38.06053161621094,0,
 760605,0.728271484375,-0.296630859375,-0.8798828125,-4.359755992889404,6.310975551605225,-3.445122003555298,-6.0,-14.25,15.0,37.868839263916016,0,
 760615,0.86767578125,-0.300537109375,-0.832275390625,-1.1890244483947754,11.920731544494629,-6.646341800689697,-5.849999904632568,-15.899999618530273,13.199999809265137,38.06053161621094,0,
 760625,0.728271484375,-0.354248046875,-0.823974609375,-6.707317352294922,22.408536911010742,-12.195121765136719,-5.849999904632568,-15.899999618530273,13.199999809265137,38.25222396850586,0,
 760635,0.770751953125,-0.341064453125,-0.75,-8.719511985778809,25.121952056884766,-16.43292808532715,-7.949999809265137,-15.75,13.5,38.15637969970703,0,
 760645,0.80224609375,-0.3369140625,-0.58349609375,-19.78658676147461,15.579268455505371,-16.43292808532715,-8.100000381469727,-13.949999809265137,13.199999809265137,38.06053161621094,0,
 760655,1.01025390625,-0.325439453125,-0.357666015625,-40.24390411376953,-8.506097793579102,-12.07317066192627,-6.75,-14.550000190734863,14.550000190734863,37.91676330566406,0,
 760685,-0.760009765625,-0.56396484375,-1.518798828125,63.32317352294922,131.06707763671875,-99.57317352294922,-5.400000095367432,-14.850000381469727,10.649999618530273,37.91676330566406,0,
 760695,0.8544921875,-0.760498046875,-0.97216796875,-15.182927131652832,109.57317352294922,-90.67073059082031,-7.050000190734863,-14.850000381469727,14.399999618530273,37.96468734741211,0,
 760705,1.22265625,-0.647705078125,-1.00732421875,-161.9207305908203,71.06707763671875,-73.07926940917969,-9.899999618530273,-12.149999618530273,15.75,37.77299499511719,0,
 760715,-1.13671875,-0.472900390625,2.13037109375,-584.0244140625,-263.32318115234375,3.8719513416290283,-9.899999618530273,-12.149999618530273,15.75,37.96468734741211,0,
 760725,-4.466796875,0.343505859375,3.222412109375,-434.4207458496094,-329.9695129394531,-284.3597717285156,-5.099999904632568,-18.299999237060547,21.149999618530273,37.96468734741211,0,
 760735,-8.0,2.882080078125,-7.999755859375,29.93902587890625,496.6463623046875,-2.4390244483947754,-9.300000190734863,-18.299999237060547,20.399999618530273,38.06053161621094,0,
 760745,3.4951171875,-0.296875,1.27734375,350.06097412109375,266.95123291015625,137.01219177246094,-9.600000381469727,-15.149999618530273,18.149999618530273,37.91676330566406,0,
 760755,2.67236328125,-0.736328125,-0.484619140625,130.48780822753906,359.6341552734375,231.89024353027344,-12.300000190734863,-12.75,17.399999618530273,37.91676330566406,0,
 760765,0.772216796875,-0.5908203125,-2.887939453125,28.14024543762207,-203.14024353027344,199.54269409179688,-12.300000190734863,-12.75,17.399999618530273,38.06053161621094,0,
 760775,-2.302001953125,-1.2109375,-2.660888671875,250.3353729248047,-193.10975646972656,161.25,-10.949999809265137,-20.549999237060547,16.799999237060547,37.91676330566406,0,
 760785,0.416748046875,-0.33935546875,-0.5498046875,87.95732116699219,160.64024353027344,-12.987805366516113,-9.899999618530273,-15.75,15.0,38.108455657958984,0,
 760795,0.709716796875,0.992919921875,-1.3935546875,-129.14634704589844,-14.756097793579102,-240.3048858642578,-8.699999809265137,-16.5,16.799999237060547,38.06053161621094,0,
 760805,0.220947265625,-0.6279296875,-0.631591796875,-186.8292694091797,-157.77439880371094,-200.24391174316406,-8.699999809265137,-16.5,16.799999237060547,37.62922668457031,0,
 760815,-1.01171875,-1.237548828125,-2.043212890625,287.2865905761719,79.4817123413086,17.68292808532715,-7.800000190734863,-13.649999618530273,20.399999618530273,38.108455657958984,0,
 760825,-0.295166015625,-0.694580078125,-0.616943359375,12.560976028442383,-56.03658676147461,63.38414764404297,-7.349999904632568,-11.550000190734863,16.200000762939453,38.15637969970703,0,
 760835,0.027099609375,0.272216796875,-0.865234375,-240.64024353027344,-53.99390411376953,23.018293380737305,-8.100000381469727,-14.850000381469727,17.399999618530273,38.25222396850586,0,
 760845,-0.197021484375,0.114990234375,-1.1650390625,-101.31098175048828,21.890243530273438,-16.40243911743164,-7.349999904632568,-14.399999618530273,17.399999618530273,38.25222396850586,0,
 760855,-0.12548828125,-0.343994140625,-1.03955078125,76.37195587158203,-4.0853657722473145,26.219512939453125,-7.349999904632568,-14.399999618530273,17.399999618530273,37.91676330566406,0,
 760865,-0.033935546875,-0.265869140625,-1.092529296875,15.792683601379395,21.0060977935791,12.317073822021484,-9.149999618530273,-17.399999618530273,18.75,37.96468734741211,0,
 760875,-0.093994140625,0.1474609375,-1.07958984375,-35.64024353027344,-1.2195122241973877,1.9817073345184326,-8.550000190734863,-15.600000381469727,18.450000762939453,38.108455657958984,0,
 760885,-0.099609375,-0.10595703125,-1.03125,33.17073059082031,-1.5243902206420898,8.90243911743164,-7.5,-13.800000190734863,18.0,38.06053161621094,0,
 760895,0.03564453125,-0.578125,-1.09765625,84.17683410644531,18.5060977935791,-9.02439022064209,-7.5,-13.800000190734863,18.0,37.91676330566406,0,
 760905,-0.051025390625,-0.3447265625,-0.998291015625,-8.262195587158203,0.6402438879013062,-3.1097562313079834,-8.850000381469727,-15.899999618530273,17.700000762939453,37.96468734741211,0,
 760915,-0.104736328125,0.0322265625,-1.10791015625,-89.6036605834961,-6.95121955871582,3.567073345184326,-8.850000381469727,-18.0,19.649999618530273,38.06053161621094,0,
 760925,-0.212646484375,0.0458984375,-1.179931640625,-17.957317352294922,-4.512195110321045,2.317073106765747,-7.800000190734863,-16.799999237060547,17.700000762939453,38.06053161621094,0,
 760935,-0.136962890625,-0.2236328125,-1.1513671875,49.14634323120117,1.3109756708145142,-6.189024448394775,-7.199999809265137,-16.200000762939453,17.549999237060547,37.77299499511719,0,
 760945,-0.1650390625,-0.239013671875,-1.077392578125,28.871952056884766,-3.841463565826416,-11.432927131652832,-7.199999809265137,-16.200000762939453,17.549999237060547,37.96468734741211,0,
 760955,-0.164306640625,-0.23828125,-1.12646484375,18.140243530273438,2.4390244483947754,-10.12195110321045,-7.800000190734863,-15.600000381469727,17.399999618530273,37.96468734741211,0,
 760965,-0.203125,-0.322265625,-1.14013671875,19.84756088256836,6.981707572937012,-6.737804889678955,-8.399999618530273,-16.200000762939453,16.799999237060547,38.15637969970703,0,
 760975,-0.166015625,-0.28173828125,-1.03173828125,-3.7804877758026123,13.262195587158203,-0.8231707215309143,-8.100000381469727,-14.850000381469727,17.399999618530273,37.91676330566406,0,
 760985,-0.3779296875,-0.22998046875,-1.059814453125,-6.981707572937012,10.27439022064209,8.567073822021484,-8.100000381469727,-14.850000381469727,17.399999618530273,38.06053161621094,0,
 760995,-0.74462890625,-0.233642578125,-1.12646484375,0.21341463923454285,-6.006097793579102,12.012195587158203,-10.5,-13.949999809265137,18.450000762939453,38.25222396850586,0,
 761005,-0.628662109375,-0.31982421875,-0.9453125,29.329269409179688,13.292683601379395,9.969511985778809,-8.550000190734863,-15.149999618530273,18.450000762939453,37.72507095336914,0,
 761015,-0.712646484375,-0.317626953125,-1.1669921875,23.04878044128418,19.969512939453125,13.231707572937012,-8.550000190734863,-15.899999618530273,17.399999618530273,37.91676330566406,0,
 761025,-0.81591796875,0.168701171875,-1.81396484375,-15.731707572937012,24.542682647705078,15.15243911743164,-9.149999618530273,-15.300000190734863,17.549999237060547,37.77299499511719,0,
 761035,-0.523193359375,0.201904296875,-1.000244140625,-46.25,117.43902587890625,116.18902587890625,-9.149999618530273,-15.300000190734863,17.549999237060547,38.06053161621094,0,
 761045,0.728515625,0.304443359375,0.736328125,-105.60975646972656,-28.810976028442383,178.23170471191406,-10.050000190734863,-15.899999618530273,17.399999618530273,37.96468734741211,0,
 761055,0.284912109375,0.858154296875,-1.805419921875,383.9634094238281,-28.475610733032227,143.6280517578125,-9.600000381469727,-16.799999237060547,17.399999618530273,37.96468734741211,0,
 761065,-0.813232421875,-0.64794921875,-0.917724609375,279.57318115234375,41.67683029174805,131.06707763671875,-9.449999809265137,-16.200000762939453,16.049999237060547,37.96468734741211,0,
 761076,0.02197265625,-1.320556640625,-0.860595703125,-54.756099700927734,-5.487804889678955,79.08536529541016,-9.449999809265137,-16.200000762939453,16.049999237060547,38.25222396850586,0,
 761086,0.660400390625,-0.4033203125,-0.50390625,-194.96951293945312,-48.32317352294922,60.03049087524414,-7.800000190734863,-14.850000381469727,16.200000762939453,37.96468734741211,0,
 761096,0.175048828125,0.211669921875,-2.04833984375,121.34146881103516,-3.1402440071105957,65.42683410644531,-7.949999809265137,-16.5,11.550000190734863,37.91676330566406,0,
 761106,-0.016357421875,-0.515869140625,-0.935546875,115.64024353027344,25.48780632019043,48.59756088256836,-7.5,-15.300000190734863,15.75,38.108455657958984,0,
 761116,0.657958984375,-0.89990234375,-0.895263671875,-108.38414764404297,-30.914634704589844,38.38414764404297,-7.199999809265137,-14.550000190734863,16.049999237060547,38.108455657958984,0,
 761126,0.33251953125,-0.146240234375,-0.8994140625,-109.84756469726562,-35.3658561706543,30.457317352294922,-7.199999809265137,-14.550000190734863,16.049999237060547,38.25222396850586,0,
 761136,0.189208984375,0.210205078125,-1.03662109375,31.79878044128418,-32.65243911743164,26.524391174316406,-6.75,-15.75,16.799999237060547,38.06053161621094,0,
 761146,0.222900390625,-0.212158203125,-1.0341796875,33.353660583496094,-40.70122146606445,18.871952056884766,-7.199999809265137,-16.950000762939453,15.300000190734863,37.91676330566406,0,
 761156,0.166259765625,-0.404541015625,-0.931640625,-35.853660583496094,-46.371952056884766,15.15243911743164,-6.75,-15.300000190734863,16.5,37.77299499511719,0,
 761166,0.13818359375,-0.1357421875,-1.029296875,-12.22560977935791,-48.871952056884766,19.817073822021484,-6.75,-15.300000190734863,16.5,38.15637969970703,0,
 761176,0.161865234375,-0.223876953125,-0.975830078125,-7.317073345184326,-52.256099700927734,22.957317352294922,-6.300000190734863,-15.149999618530273,15.149999618530273,38.108455657958984,0,
 761186,0.21337890625,-0.30224609375,-0.97119140625,-18.35365867614746,-52.5,20.88414764404297,-4.650000095367432,-16.350000381469727,15.149999618530273,37.96468734741211,0,
 761196,0.173095703125,-0.321044921875,-1.058837890625,-7.469512462615967,-51.67683029174805,13.506097793579102,-4.650000095367432,-16.350000381469727,12.449999809265137,37.91676330566406,0,
 761206,0.24609375,-0.35791015625,-0.98193359375,-6.219512462615967,-42.92683029174805,2.1341464519500732,-3.9000000953674316,-16.799999237060547,15.149999618530273,38.15637969970703,0,
 761216,0.39208984375,-0.343994140625,-0.857177734375,-6.371951580047607,-37.408538818359375,-5.243902683258057,-3.9000000953674316,-16.799999237060547,15.149999618530273,37.96468734741211,0,
 761226,0.41064453125,-0.257568359375,-0.890869140625,-14.664634704589844,-36.55487823486328,-11.12804889678955,-4.949999809265137,-16.200000762939453,14.550000190734863,38.15637969970703,0,
 761236,0.497802734375,-0.317626953125,-0.876953125,-5.792683124542236,-24.63414764404297,-15.792683601379395,-3.299999952316284,-16.950000762939453,15.0,38.06053161621094,0,
 761246,0.611328125,-0.284423828125,-0.780029296875,-9.207317352294922,-13.04878044128418,-18.536584854125977,-4.349999904632568,-18.0,15.149999618530273,37.72507095336914,0,
 761256,0.73193359375,-0.25830078125,-0.70556640625,-15.396342277526855,-2.0731706619262695,-19.45121955871582,-4.349999904632568,-18.0,15.149999618530273,38.06053161621094,0,
 761266,0.776611328125,-0.240478515625,-0.757080078125,-12.560976028442383,5.884146690368652,-17.957317352294922,-5.699999809265137,-15.75,14.550000190734863,38.108455657958984,0,
 761276,0.781494140625,-0.271240234375,-0.743896484375,-5.762195110321045,19.573171615600586,-21.890243530273438,-5.400000095367432,-16.799999237060547,15.449999809265137,38.06053161621094,0,
 761286,0.664306640625,-0.315673828125,-0.856689453125,1.585365891456604,34.63414764404297,-26.43292808532715,-5.849999904632568,-16.799999237060547,14.399999618530273,38.06053161621094,0,
 761296,0.68359375,-0.3671875,-0.81298828125,4.756097793579102,62.22561264038086,-37.19512176513672,-6.0,-16.5,14.550000190734863,37.77299499511719,0,
 761306,0.774658203125,-0.364501953125,-0.664794921875,4.72560977935791,86.67683410644531,-47.04268264770508,-6.0,-16.5,14.550000190734863,38.06053161621094,0,
 761316,0.865478515625,-0.3076171875,-0.6611328125,0.3048780560493469,98.81097412109375,-53.506099700927734,-5.699999809265137,-17.399999618530273,15.300000190734863,38.15637969970703,0,
 761326,0.611083984375,-0.284423828125,-0.79443359375,3.079268455505371,107.62195587158203,-61.55487823486328,-7.199999809265137,-17.399999618530273,13.800000190734863,37.96468734741211,0,
 761336,-0.099365234375,-0.02587890625,-0.4072265625,12.012195587158203,121.76829528808594,-70.1524429321289,-6.599999904632568,-17.549999237060547,15.899999618530273,37.96468734741211,0,
 761346,-3.16064453125,0.261962890625,2.612060546875,-235.24391174316406,3.1097562313079834,-47.256099700927734,-6.599999904632568,-17.549999237060547,15.899999618530273,37.96468734741211,0,
 761356,-8.0,3.050537109375,-5.10791015625,-631.2195434570312,-369.2378234863281,-83.29268646240234,-4.199999809265137,-19.350000381469727,18.75,38.300148010253906,0,
 761366,-1.893798828125,0.119873046875,0.189208984375,-130.64024353027344,434.3902587890625,-248.90245056152344,-7.800000190734863,-18.75,18.899999618530273,37.96468734741211,0,
 761376,2.481201171875,0.597412109375,-0.192626953125,200.24391174316406,402.8658752441406,3.8719513416290283,-11.25,-16.350000381469727,19.200000762939453,38.300148010253906,0,
 761386,4.2373046875,-0.81982421875,-0.35546875,415.6097717285156,240.73171997070312,169.78659057617188,-13.800000190734863,-14.850000381469727,16.950000762939453,38.25222396850586,0,
 761506,0.1015625,0.0517578125,-1.076171875,-9.146341323852539,-7.621951580047607,14.481707572937012,-8.550000190734863,-17.100000381469727,15.149999618530273,37.91676330566406,0,
 761516,-0.20556640625,-0.007568359375,-1.08837890625,86.46341705322266,12.65243911743164,14.359756469726562,-8.699999809265137,-14.25,18.299999237060547,38.15637969970703,0,
 761526,0.17822265625,-0.48779296875,-1.1826171875,57.469512939453125,-14.054878234863281,-8.567073822021484,-8.699999809265137,-14.25,18.299999237060547,38.15637969970703,0,
 761536,-0.1064453125,-0.58837890625,-0.904296875,-94.96951293945312,-11.432927131652832,-4.1768293380737305,-8.100000381469727,-16.799999237060547,17.700000762939453,37.77299499511719,0,
 761546,0.015625,-0.06884765625,-1.138427734375,-45.15243911743164,-18.262195587158203,7.743902683258057,-9.149999618530273,-15.300000190734863,17.549999237060547,38.108455657958984,0,
 761556,-0.13134765625,-0.001220703125,-1.1552734375,20.426830291748047,-14.695122718811035,2.22560977935791,-7.5,-17.399999618530273,18.0,38.15637969970703,0,
 761566,-0.11083984375,-0.271484375,-1.16943359375,13.59756088256836,-22.591463088989258,0.09146341681480408,-7.5,-17.399999618530273,18.0,37.91676330566406,0,
 761576,-0.316162109375,-0.2890625,-1.149169921875,14.207317352294922,-36.310977935791016,-9.085366249084473,-8.699999809265137,-15.300000190734863,18.0,38.06053161621094,0,
 761586,-0.81005859375,-0.23583984375,-1.111083984375,46.371952056884766,-45.39634323120117,-32.07316970825195,-8.399999618530273,-14.25,18.75,37.91676330566406,0,
 761596,-1.026123046875,-0.439208984375,-1.094970703125,10.884146690368652,-7.408536911010742,-4.969512462615967,-6.599999904632568,-15.600000381469727,17.399999618530273,38.06053161621094,0,
 761606,-0.23681640625,-0.275390625,-0.12451171875,-58.53658676147461,-64.39024353027344,21.310976028442383,-5.400000095367432,-14.850000381469727,15.899999618530273,38.108455657958984,0,
 761616,-0.146728515625,0.2109375,-0.097412109375,-138.35366821289062,-195.97561645507812,38.29268264770508,-5.400000095367432,-14.850000381469727,15.899999618530273,37.91676330566406,0,
 761626,-1.108154296875,0.34814453125,-1.299072265625,17.073171615600586,-131.31097412109375,68.78048706054688,-4.650000095367432,-15.600000381469727,18.450000762939453,37.91676330566406,0,
 761636,-1.50048828125,0.156005859375,-0.911865234375,83.6280517578125,-45.73170852661133,36.09756088256836,-4.349999904632568,-16.350000381469727,15.899999618530273,37.96468734741211,0,
 761646,-1.00830078125,-0.15673828125,-1.373046875,94.78659057617188,-61.371952056884766,8.689024925231934,-4.349999904632568,-14.399999618530273,16.950000762939453,38.06053161621094,0,
 761656,-0.050537109375,-0.269775390625,-0.71044921875,57.89634323120117,-49.5121955871582,30.762195587158203,-4.349999904632568,-14.399999618530273,16.950000762939453,38.15637969970703,0,
 761666,-0.56982421875,0.07958984375,-1.112548828125,-22.68292808532715,-91.15853881835938,44.48170852661133,-2.4000000953674316,-14.850000381469727,17.700000762939453,38.25222396850586,0,
 761676,-0.484130859375,0.019775390625,-0.970458984375,8.932927131652832,-100.42683410644531,53.810977935791016,-3.299999952316284,-16.200000762939453,16.049999237060547,38.06053161621094,0,
 761686,-0.160400390625,-0.404052734375,-0.968505859375,74.8780517578125,-72.6524429321289,50.54878234863281,-2.0999999046325684,-16.799999237060547,16.200000762939453,37.91676330566406,0,
 761696,-0.06689453125,-0.478515625,-1.07568359375,33.628047943115234,-94.54268646240234,43.84146499633789,-0.8999999761581421,-14.850000381469727,16.950000762939453,38.25222396850586,0,
 761706,0.03369140625,-0.2724609375,-1.0859375,-36.70731735229492,-108.65853881835938,30.0,-0.8999999761581421,-14.850000381469727,16.950000762939453,38.06053161621094,0,
 761716,0.23291015625,-0.149169921875,-1.16015625,-43.414634704589844,-104.57317352294922,32.469512939453125,-1.2000000476837158,-15.899999618530273,14.399999618530273,37.91676330566406,0,
 761726,0.425537109375,-0.23583984375,-1.26953125,-7.804878234863281,-105.2743911743164,22.98780632019043,1.0499999523162842,-15.0,12.300000190734863,38.06053161621094,0,
 761736,0.467529296875,-0.3115234375,-1.2783203125,14.84756088256836,-99.84756469726562,21.55487823486328,0.8999999761581421,-15.899999618530273,15.449999809265137,37.91676330566406,0,
 761746,0.57666015625,-0.36083984375,-1.343017578125,9.542683601379395,-91.09756469726562,16.067073822021484,0.8999999761581421,-15.899999618530273,15.449999809265137,37.96468734741211,0,
 761756,0.677001953125,-0.50634765625,-1.412841796875,13.567073822021484,-72.7743911743164,10.27439022064209,1.7999999523162842,-16.5,12.75,38.108455657958984,0,
 761766,0.635498046875,-0.430419921875,-1.391357421875,-10.030488014221191,-60.42683029174805,4.359755992889404,1.5,-17.399999618530273,14.550000190734863,38.108455657958984,0,
 761776,0.626708984375,-0.325439453125,-1.4052734375,-14.756097793579102,-42.92683029174805,-0.18292683362960815,1.2000000476837158,-16.350000381469727,13.649999618530273,38.300148010253906,0,
 761786,0.726318359375,-0.385986328125,-1.330078125,2.6219513416290283,-22.83536720275879,-0.7621951103210449,2.4000000953674316,-15.149999618530273,12.449999809265137,37.96468734741211,0,
 761816,0.6787109375,-0.482177734375,-1.334228515625,8.079268455505371,20.54878044128418,-5.609755992889404,3.9000000953674316,-16.799999237060547,10.649999618530273,38.25222396850586,0,
 761826,0.7529296875,-0.52880859375,-1.266845703125,14.512195587158203,42.713417053222656,-12.195121765136719,1.7999999523162842,-15.75,13.5,37.91676330566406,0,
 761836,0.802001953125,-0.49365234375,-1.203125,13.62804889678955,58.353660583496094,-19.08536720275879,1.7999999523162842,-15.75,13.5,37.91676330566406,0,
 761846,0.8408203125,-0.471923828125,-1.179443359375,18.628049850463867,74.4817123413086,-29.268293380737305,1.2000000476837158,-15.149999618530273,13.199999809265137,38.108455657958984,0,
 761856,0.969482421875,-0.52685546875,-1.109130859375,27.469512939453125,93.75,-37.43902587890625,0.8999999761581421,-15.899999618530273,13.199999809265137,37.96468734741211,0,
 761866,1.211181640625,-0.54296875,-1.066162109375,27.042682647705078,110.88414764404297,-47.28658676147461,0.0,-17.700000762939453,13.800000190734863,37.91676330566406,0,
 761877,1.40185546875,-0.60400390625,-1.15576171875,21.40243911743164,127.95732116699219,-65.3963394165039,-1.649999976158142,-15.899999618530273,15.149999618530273,37.91676330566406,0,
 761887,1.273193359375,-0.508056640625,-1.255615234375,6.737804889678955,137.89634704589844,-81.89024353027344,-1.649999976158142,-15.899999618530273,15.149999618530273,37.91676330566406,0,
 761897,1.18212890625,-0.536376953125,-1.34228515625,6.79878044128418,170.48780822753906,-102.74390411376953,-3.1500000953674316,-14.850000381469727,13.949999809265137,37.96468734741211,0,
 761907,0.846923828125,-0.545654296875,-1.395751953125,1.7073171138763428,192.8353729248047,-115.36585998535156,-3.5999999046325684,-15.600000381469727,15.449999809265137,38.06053161621094,0,
 761917,-0.922119140625,-1.130126953125,4.346923828125,-45.57926940917969,208.9329376220703,-108.59756469726562,-6.0,-16.200000762939453,14.25,38.15637969970703,0,
 761927,-2.27001953125,1.942138671875,7.761474609375,-999.0244140625,-610.2134399414062,36.128047943115234,-6.0,-16.200000762939453,14.25,38.15637969970703,0,
 761937,-8.0,8.0,-7.999755859375,-965.9756469726562,-439.69512939453125,-556.1280517578125,-1.649999976158142,-22.350000381469727,20.700000762939453,38.108455657958984,0,
 761947,0.349609375,-0.896484375,1.826904296875,998.993896484375,547.1341552734375,241.5853729248047,-8.699999809265137,-14.550000190734863,16.799999237060547,37.91676330566406,0,
 761957,4.444580078125,-2.312744140625,1.437255859375,112.28659057617188,297.5,199.4207305908203,-11.399999618530273,-7.5,13.5,38.25222396850586,0,
 761967,3.125244140625,-2.074951171875,-0.826171875,-471.5244140625,-312.5,250.15245056152344,-15.600000381469727,-12.149999618530273,16.049999237060547,38.06053161621094,0,
 761977,-0.494384765625,0.380859375,-4.095703125,-90.45732116699219,-82.53048706054688,169.4207305908203,-15.600000381469727,-12.149999618530273,16.049999237060547,37.91676330566406,0,
 761987,-0.478759765625,-0.30419921875,-1.946533203125,298.81097412109375,250.4268341064453,-52.74390411376953,-9.300000190734863,-20.700000762939453,18.450000762939453,38.06053161621094,0,
 761997,0.8701171875,-0.62060546875,-0.651123046875,-243.53659057617188,-83.59756469726562,-200.60975646972656,-7.199999809265137,-18.600000381469727,15.0,37.96468734741211,0,
 762007,0.81689453125,0.581787109375,-1.482421875,230.06097412109375,-52.65243911743164,-226.9512176513672,-6.75,-19.799999237060547,20.25,38.06053161621094,0,
 762017,-0.11572265625,-1.361083984375,-0.727294921875,234.35975646972656,74.54268646240234,14.664634704589844,-6.75,-19.799999237060547,20.25,38.06053161621094,0,
 762027,-1.896728515625,-1.51513671875,-1.68017578125,-244.4207305908203,-195.09146118164062,69.23780822753906,-6.599999904632568,-14.850000381469727,16.950000762939453,38.06053161621094,0,
 762037,0.073486328125,-0.035888671875,-0.447021484375,-268.7195129394531,-63.01829528808594,62.19512176513672,-6.599999904632568,-16.350000381469727,17.399999618530273,37.96468734741211,0,
 762047,0.1279296875,0.776123046875,-0.7666015625,-10.853658676147461,13.109756469726562,-4.115853786468506,-6.0,-15.300000190734863,18.299999237060547,38.06053161621094,0,
 762057,-0.32958984375,0.015869140625,-1.050048828125,122.62195587158203,12.77439022064209,9.756097793579102,-8.399999618530273,-15.300000190734863,18.75,38.300148010253906,0,
 762067,-0.21875,-0.640625,-1.25,8.170731544494629,7.22560977935791,28.658536911010742,-8.399999618530273,-15.300000190734863,18.75,38.108455657958984,0,
 762077,0.00927734375,-0.366455078125,-0.931884765625,-79.23780822753906,-10.335366249084473,-6.097560882568359,-6.449999809265137,-15.75,18.75,37.77299499511719,0,
 762087,-0.168212890625,0.077392578125,-1.082763671875,18.04878044128418,2.987804889678955,3.1402440071105957,-5.25,-17.700000762939453,18.75,38.06053161621094,0,
 762097,-0.2548828125,0.10400390625,-0.848388671875,15.609756469726562,11.95121955871582,11.067073822021484,-4.650000095367432,-18.299999237060547,18.450000762939453,38.06053161621094,0,
 762107,-0.142333984375,-0.956298828125,-1.126708984375,155.7012176513672,15.54878044128418,-6.8597564697265625,-4.650000095367432,-18.299999237060547,18.450000762939453,38.25222396850586,0,
 762117,-0.31494140625,-0.38671875,-1.03173828125,-50.79268264770508,-23.140243530273438,4.512195110321045,-7.5,-15.0,16.799999237060547,38.06053161621094,0,
 762127,-0.63037109375,0.0009765625,-1.2451171875,-124.20732116699219,-22.13414764404297,6.8597564697265625,-5.400000095367432,-15.600000381469727,18.450000762939453,37.868839263916016,0,
 762137,-0.974853515625,-0.101318359375,-1.119140625,-23.018293380737305,-1.097561001777649,12.62195110321045,-6.300000190734863,-18.299999237060547,17.700000762939453,38.25222396850586,0,
 762147,-0.606689453125,-0.290283203125,-1.06591796875,42.80487823486328,30.94512176513672,5.213414669036865,-6.75,-16.5,18.75,38.06053161621094,0,
 762157,-0.22509765625,-0.31640625,-1.0390625,25.213415145874023,51.219512939453125,14.817073822021484,-6.75,-16.5,18.75,37.868839263916016,0,
 762167,-0.14990234375,-0.48095703125,-1.027099609375,52.560977935791016,24.207317352294922,26.03658676147461,-6.449999809265137,-17.399999618530273,18.0,38.06053161621094,0,
 762177,-0.16015625,-0.30419921875,-0.806640625,-4.5731706619262695,24.969512939453125,33.475608825683594,-6.300000190734863,-16.799999237060547,17.399999618530273,37.91676330566406,0,
 762187,-0.158203125,0.157958984375,-0.94677734375,-71.28048706054688,22.621952056884766,33.99390411376953,-6.449999809265137,-16.200000762939453,18.299999237060547,37.91676330566406,0,
 762197,-0.36083984375,0.647216796875,-0.926025390625,-155.64024353027344,18.59756088256836,62.74390411376953,-6.449999809265137,-16.200000762939453,18.299999237060547,37.96468734741211,0,
 762207,-0.51513671875,0.0888671875,-0.91845703125,54.024391174316406,7.042683124542236,66.5243911743164,-6.599999904632568,-17.100000381469727,17.399999618530273,37.91676330566406,0,
 762217,-0.0400390625,-0.859130859375,-1.075439453125,318.6585388183594,35.64024353027344,74.90853881835938,-6.599999904632568,-17.100000381469727,17.399999618530273,38.06053161621094,0,
 762227,0.114990234375,-0.96826171875,-0.73388671875,167.6829376220703,6.890244007110596,50.51829528808594,-5.849999904632568,-14.399999618530273,15.149999618530273,37.96468734741211,0,
 762237,0.01123046875,-0.0712890625,-1.366455078125,-112.71341705322266,-39.2378044128418,16.95121955871582,-6.300000190734863,-14.399999618530273,15.899999618530273,37.91676330566406,0,
 762247,0.18505859375,-0.22216796875,-0.9921875,21.55487823486328,-12.134146690368652,11.036585807800293,-6.300000190734863,-14.399999618530273,15.899999618530273,38.06053161621094,0,
 762257,0.089111328125,-0.62646484375,-1.14013671875,103.41463470458984,-23.75,17.560976028442383,-6.599999904632568,-14.850000381469727,15.899999618530273,38.25222396850586,0,
 762267,0.123779296875,-0.106201171875,-1.09521484375,-39.2378044128418,-22.865854263305664,1.3719512224197388,-5.25,-13.350000381469727,16.049999237060547,37.96468734741211,0,
 762277,0.05810546875,0.144775390625,-0.98046875,-44.45122146606445,-32.256099700927734,-1.6158536672592163,-6.300000190734863,-15.149999618530273,14.399999618530273,37.581302642822266,0,
 762287,-0.058837890625,0.005859375,-0.978759765625,25.365854263305664,-43.628047943115234,1.5548781156539917,-6.300000190734863,-15.149999618530273,14.399999618530273,38.15637969970703,0,
 762297,-0.097412109375,-0.132080078125,-0.94287109375,35.914634704589844,-48.44512176513672,6.6768293380737305,-6.0,-16.200000762939453,15.0,37.96468734741211,0,
 762307,-0.134521484375,0.059326171875,-1.00439453125,-4.878048896789551,-59.1158561706543,8.353658676147461,-3.5999999046325684,-14.850000381469727,15.899999618530273,38.06053161621094,0,
 762317,-0.11962890625,-0.0224609375,-0.990234375,3.7804877758026123,-62.92683029174805,14.84756088256836,-4.650000095367432,-14.399999618530273,15.899999618530273,38.15637969970703,0,
 762327,-0.041015625,-0.07861328125,-1.01025390625,0.7317073345184326,-63.6280517578125,24.207317352294922,-5.099999904632568,-15.600000381469727,13.199999809265137,37.96468734741211,0,
 762337,0.024169921875,-0.119140625,-1.068359375,-3.0487804412841797,-62.13414764404297,34.14634323120117,-5.099999904632568,-15.600000381469727,13.199999809265137,37.91676330566406,0,
 762347,0.09423828125,-0.21875,-1.063232421875,-1.4634146690368652,-58.14024353027344,40.57926940917969,-3.5999999046325684,-14.850000381469727,13.949999809265137,37.91676330566406,0,
 762357,0.18603515625,-0.34814453125,-1.087158203125,4.329268455505371,-49.39024353027344,44.17683029174805,-3.0,-13.800000190734863,14.550000190734863,38.15637969970703,0,
 762367,0.23681640625,-0.495849609375,-1.004638671875,5.304878234863281,-46.067073822021484,41.76829528808594,-2.549999952316284,-14.25,14.550000190734863,38.06053161621094,0,
 762377,0.38232421875,-0.52978515625,-0.975341796875,-9.085366249084473,-38.38414764404297,32.469512939453125,-2.549999952316284,-14.25,14.550000190734863,38.06053161621094,0,
 762387,0.4384765625,-0.499267578125,-0.974365234375,-22.317073822021484,-38.59756088256836,21.64634132385254,-2.0999999046325684,-17.549999237060547,12.449999809265137,38.15637969970703,0,
 762397,0.504150390625,-0.51220703125,-0.99462890625,-10.27439022064209,-25.2439022064209,0.12195122241973877,-1.649999976158142,-16.799999237060547,12.899999618530273,38.15637969970703,0,
 762407,0.646240234375,-0.517822265625,-1.023681640625,-9.115854263305664,-19.329269409179688,-10.731707572937012,-1.5,-16.200000762939453,13.5,38.15637969970703,0,
 762417,0.73583984375,-0.500732421875,-1.01611328125,-9.146341323852539,-14.695122718811035,-20.914634704589844,-1.649999976158142,-17.100000381469727,13.649999618530273,37.77299499511719,0,
 762527,-8.0,5.297607421875,-7.999755859375,256.5853576660156,903.8719482421875,-81.5243911743164,-4.650000095367432,-18.75,18.149999618530273,38.06053161621094,0,
 762537,0.415771484375,-0.149658203125,1.265380859375,754.6036987304688,451.1585388183594,131.89024353027344,-9.449999809265137,-15.75,15.75,37.96468734741211,0,
 762547,6.270751953125,-2.56884765625,1.987548828125,226.31097412109375,258.81097412109375,231.76829528808594,-11.699999809265137,-11.399999618530273,15.0,38.15637969970703,0,
 762557,1.60009765625,-1.823486328125,-1.855712890625,-787.8658447265625,-152.59146118164062,162.8353729248047,-11.699999809265137,-11.399999618530273,15.0,37.91676330566406,0,
 762567,-0.61767578125,0.53857421875,1.404052734375,-231.4329376220703,70.09146881103516,83.75,-13.050000190734863,-22.350000381469727,23.399999618530273,37.62922668457031,0,
 762577,1.85546875,1.13037109375,-1.489501953125,-54.57317352294922,156.06707763671875,45.64024353027344,-11.399999618530273,-26.850000381469727,20.549999237060547,38.300148010253906,0,
 762587,0.156494140625,-1.13232421875,-4.580322265625,998.993896484375,-0.4878048896789551,-45.64024353027344,-12.75,-24.75,20.700000762939453,38.108455657958984,0,
 762597,0.07080078125,-1.5947265625,1.75830078125,107.62195587158203,14.603658676147461,-79.14634704589844,-9.899999618530273,-17.399999618530273,17.549999237060547,38.15637969970703,0,
 762607,-0.430419921875,-1.31005859375,-3.658935546875,-31.49390411376953,27.408536911010742,-174.2987823486328,-9.899999618530273,-17.399999618530273,17.549999237060547,38.395992279052734,0,
 762617,-0.336181640625,-0.962646484375,-0.421630859375,44.817073822021484,-139.48170471191406,-51.7378044128418,-9.899999618530273,-15.300000190734863,18.75,37.868839263916016,0,
 762627,0.391845703125,0.292236328125,-0.2158203125,-168.41464233398438,-98.17073059082031,86.9817123413086,-9.449999809265137,-15.0,17.549999237060547,38.25222396850586,0,
 762637,-0.42578125,0.44091796875,-1.06494140625,-218.90245056152344,-15.97560977935791,62.774391174316406,-8.100000381469727,-17.100000381469727,17.399999618530273,37.96468734741211,0,
 762647,-0.063720703125,-0.073974609375,-1.122802734375,-44.48170852661133,40.39634323120117,-0.6402438879013062,-8.100000381469727,-17.100000381469727,17.399999618530273,37.96468734741211,0,
 762657,-0.10400390625,-0.08154296875,-1.107666015625,47.92683029174805,-5.060975551605225,8.658536911010742,-11.25,-18.75,20.399999618530273,37.96468734741211,0,
 762667,-0.078125,-0.3134765625,-0.951904296875,36.49390411376953,-22.10365867614746,-22.042682647705078,-11.399999618530273,-17.700000762939453,18.299999237060547,37.96468734741211,0,
 762678,-0.001220703125,-0.247314453125,-1.099853515625,27.98780632019043,2.195122003555298,-6.95121955871582,-10.199999809265137,-18.899999618530273,17.549999237060547,38.15637969970703,0,
 762688,-0.056396484375,-0.0966796875,-0.976806640625,10.243902206420898,1.737804889678955,-7.865853786468506,-9.149999618530273,-18.600000381469727,18.299999237060547,38.25222396850586,0,
 762698,-0.02587890625,-0.106689453125,-1.27099609375,-39.45122146606445,3.9634146690368652,-6.280488014221191,-8.550000190734863,-19.200000762939453,17.700000762939453,38.108455657958984,0,
 762738,-0.05712890625,-0.037841796875,-1.12255859375,-22.469512939453125,-7.5,7.469512462615967,-9.600000381469727,-17.100000381469727,19.649999618530273,37.96468734741211,0,
 762748,-0.012451171875,-0.251953125,-1.107421875,19.207317352294922,-8.109756469726562,6.79878044128418,-8.850000381469727,-16.799999237060547,18.899999618530273,37.96468734741211,0,
 762758,-0.075927734375,-0.099609375,-1.127685546875,-18.079269409179688,-19.63414764404297,5.396341800689697,-7.949999809265137,-18.600000381469727,18.0,37.96468734741211,0,
 762768,-0.046630859375,-0.2607421875,-1.12451171875,6.128048896789551,-17.80487823486328,8.079268455505371,-9.149999618530273,-17.399999618530273,20.25,37.96468734741211,0,
 762778,-0.257568359375,-0.4033203125,-1.202880859375,12.835366249084473,-32.469512939453125,7.1646342277526855,-8.699999809265137,-17.700000762939453,19.5,37.91676330566406,0,
 762788,-0.619140625,-0.169189453125,-1.126220703125,-19.481708526611328,-45.060977935791016,2.9268293380737305,-8.850000381469727,-18.0,18.450000762939453,38.25222396850586,0,
 762798,-1.0537109375,-0.095947265625,-1.202880859375,9.786585807800293,-63.59756088256836,-12.164634704589844,-7.199999809265137,-16.950000762939453,17.25,38.06053161621094,0,
 762808,-1.03173828125,0.003662109375,-1.116455078125,41.64634323120117,-28.292682647705078,-18.75,-8.100000381469727,-17.100000381469727,18.450000762939453,38.06053161621094,0,
 762818,-0.403076171875,0.12646484375,-0.35693359375,38.84146499633789,23.170732498168945,-5.030488014221191,-7.949999809265137,-16.950000762939453,18.299999237060547,37.868839263916016,0,
 762828,0.177734375,0.223876953125,0.16162109375,2.2560975551605225,-31.89024543762207,21.0060977935791,-7.949999809265137,-16.950000762939453,18.299999237060547,38.06053161621094,0,
 762838,-1.1572265625,0.388427734375,-1.322509765625,49.20731735229492,-113.87195587158203,76.67683410644531,-7.050000190734863,-15.899999618530273,14.699999809265137,38.06053161621094,0,
 762848,-1.6328125,-0.277587890625,-0.8837890625,176.49391174316406,-73.2317123413086,69.57317352294922,-7.199999809265137,-14.25,16.5,38.06053161621094,0,
 762858,-0.913330078125,-0.463623046875,-0.809814453125,42.19512176513672,-20.0,56.49390411376953,-5.099999904632568,-14.399999618530273,15.899999618530273,37.77299499511719,0,
 762868,-0.0908203125,-0.182861328125,-0.330810546875,-19.268293380737305,-88.44512176513672,70.03048706054688,-5.099999904632568,-14.399999618530273,15.899999618530273,38.15637969970703,0,
 762878,-0.53955078125,0.212890625,-0.828857421875,3.841463565826416,-106.46341705322266,79.84756469726562,-6.300000190734863,-15.149999618530273,15.149999618530273,38.06053161621094,0,
 762888,-0.68994140625,0.270751953125,-0.734375,82.56097412109375,-75.82317352294922,76.79878234863281,-5.400000095367432,-14.399999618530273,15.149999618530273,37.91676330566406,0,
 762898,-0.402099609375,-0.170654296875,-0.98876953125,104.4817123413086,-104.23780822753906,81.49390411376953,-3.75,-15.0,15.300000190734863,38.15637969970703,0,
 762908,-0.386474609375,-0.40478515625,-0.990966796875,53.84146499633789,-104.45122528076172,72.19512176513672,-3.5999999046325684,-14.399999618530273,13.649999618530273,37.91676330566406,0,
 762918,-0.276123046875,-0.521728515625,-1.27294921875,3.7804877758026123,-99.20732116699219,75.82317352294922,-3.5999999046325684,-14.399999618530273,13.649999618530273,37.96468734741211,0,
 762938,0.236083984375,-0.549072265625,-1.321044921875,0.15243902802467346,-105.51829528808594,74.90853881835938,-1.5,-12.149999618530273,11.550000190734863,38.06053161621094,0,
 762948,0.281982421875,-0.5322265625,-1.412109375,-5.121951103210449,-90.09146881103516,67.40853881835938,1.0499999523162842,-14.550000190734863,14.25,37.96468734741211,0,
 762958,0.3896484375,-0.462158203125,-1.472412109375,23.231708526611328,-72.92683410644531,60.51829528808594,1.0499999523162842,-14.550000190734863,14.25,38.06053161621094,0,
 762968,0.59814453125,-0.57568359375,-1.474609375,39.93902587890625,-49.45122146606445,57.0121955871582,1.2000000476837158,-15.149999618530273,12.149999618530273,38.06053161621094,0,
 762978,0.79345703125,-0.70556640625,-1.458740234375,0.9146341681480408,-40.88414764404297,44.35975646972656,0.8999999761581421,-14.850000381469727,12.899999618530273,37.91676330566406,0,
 762988,0.8271484375,-0.583251953125,-1.37060546875,-1.9817073345184326,-26.920732498168945,36.76829528808594,3.75,-15.0,10.800000190734863,38.06053161621094,0,
 762998,0.934814453125,-0.539794921875,-1.362548828125,4.603658676147461,-9.542683601379395,24.481708526611328,1.2000000476837158,-15.899999618530273,11.699999809265137,38.300148010253906,0,
 763008,0.99560546875,-0.55615234375,-1.43017578125,4.481707572937012,5.731707572937012,5.853658676147461,1.2000000476837158,-15.899999618530273,11.699999809265137,37.72507095336914,0,
 763018,0.9482421875,-0.565673828125,-1.363525390625,3.2012195587158203,27.2560977935791,-7.5,1.0499999523162842,-14.550000190734863,13.050000190734863,38.06053161621094,0,
 763028,0.93359375,-0.51123046875,-1.23828125,-8.87195110321045,39.57317352294922,-16.829269409179688,2.8499999046325684,-15.600000381469727,11.699999809265137,38.06053161621094,0,
 763038,0.921142578125,-0.51806640625,-1.253662109375,-7.9268293380737305,53.59756088256836,-22.926830291748047,0.30000001192092896,-15.300000190734863,10.050000190734863,37.91676330566406,0,
 763048,0.829833984375,-0.589599609375,-1.222900390625,-2.9573171138763428,64.78659057617188,-31.95121955871582,0.30000001192092896,-15.300000190734863,10.050000190734863,38.108455657958984,0,
 763058,0.884521484375,-0.6357421875,-1.145751953125,1.585365891456604,80.0,-42.89634323120117,0.0,-14.550000190734863,12.300000190734863,37.77299499511719,0,
 763068,0.9365234375,-0.649169921875,-1.127197265625,1.097561001777649,89.8780517578125,-52.317073822021484,0.8999999761581421,-15.600000381469727,12.449999809265137,38.06053161621094,0,
 763078,0.855224609375,-0.638427734375,-1.155517578125,0.18292683362960815,97.98780822753906,-64.8780517578125,-2.0999999046325684,-15.899999618530273,13.649999618530273,38.15637969970703,0,
 763088,0.888916015625,-0.70849609375,-1.103515625,10.609756469726562,113.81098175048828,-80.33536529541016,-0.8999999761581421,-15.149999618530273,13.649999618530273,38.300148010253906,0,
 763098,0.9169921875,-0.7294921875,-1.076416015625,11.890244483947754,125.30487823486328,-95.70122528076172,-0.8999999761581421,-15.149999618530273,13.649999618530273,37.96468734741211,0,
 763108,0.8232421875,-0.6767578125,-1.114501953125,10.365854263305664,130.2134246826172,-111.25,-2.549999952316284,-13.800000190734863,12.75,38.06053161621094,0,
 763148,-3.215576171875,0.760498046875,8.0,-663.0792846679688,-213.53659057617188,-82.3780517578125,-6.300000190734863,-14.850000381469727,13.949999809265137,38.06053161621094,0,
 763158,-8.0,8.0,-7.999755859375,-999.0244140625,-644.2987670898438,-280.18292236328125,-2.25,-22.049999237060547,20.549999237060547,37.77299499511719,0,
 763168,-0.65234375,-1.1640625,1.302978515625,608.993896484375,790.792724609375,-103.2317123413086,-4.199999809265137,-21.75,18.0,37.96468734741211,0,
 763178,4.90234375,-3.282470703125,3.347900390625,822.5914916992188,730.4268188476562,276.06707763671875,-10.050000190734863,-10.800000190734863,14.399999618530273,38.06053161621094,0,
 763188,4.060791015625,0.1142578125,-4.57470703125,28.871952056884766,246.9207305908203,209.4512176513672,-10.050000190734863,-10.800000190734863,14.399999618530273,37.96468734741211,0,
 763198,-1.3603515625,0.21630859375,-1.48193359375,-665.8231811523438,-507.43902587890625,147.9268341064453,-12.300000190734863,-19.200000762939453,19.649999618530273,38.06053161621094,0,
 763208,-0.68115234375,0.88916015625,0.47998046875,-230.85366821289062,-17.13414764404297,248.8414764404297,-10.199999809265137,-25.649999618530273,18.75,37.77299499511719,0,
 763218,2.1015625,1.505126953125,-3.69140625,530.0,153.41464233398438,69.23780822753906,-7.5,-23.700000762939453,19.5,38.06053161621094,0,
 763228,0.563232421875,-1.286376953125,-0.832763671875,704.268310546875,-15.304878234863281,-90.64024353027344,-7.5,-23.700000762939453,19.5,38.06053161621094,0,
 763238,-0.095458984375,-1.462646484375,0.515625,-214.35975646972656,-141.31097412109375,-167.46951293945312,-4.949999809265137,-13.800000190734863,17.25,38.06053161621094,0,
 763248,-1.223388671875,-0.490234375,-3.279052734375,-114.6036605834961,206.85975646972656,-218.84146118164062,-4.949999809265137,-13.800000190734863,15.300000190734863,38.06053161621094,0,
 763258,-0.178955078125,-0.379638671875,-1.2314453125,138.2926788330078,-146.52439880371094,-72.31707763671875,-7.5,-13.800000190734863,18.0,37.72507095336914,0,
 763268,0.701171875,-0.105224609375,-0.01611328125,73.3536605834961,-199.02439880371094,107.3780517578125,-6.300000190734863,-15.149999618530273,17.700000762939453,38.15637969970703,0,
 763278,-0.634521484375,0.13134765625,-0.692626953125,-44.085365295410156,-37.378047943115234,82.53048706054688,-6.300000190734863,-15.149999618530273,17.700000762939453,38.25222396850586,0,
 763288,-0.451416015625,-0.425537109375,-1.093505859375,-81.1280517578125,62.408538818359375,-28.38414764404297,-8.399999618530273,-14.550000190734863,17.25,37.96468734741211,0,
 763298,0.276123046875,-0.36865234375,-1.37353515625,-33.567073822021484,79.66463470458984,18.414634704589844,-7.050000190734863,-16.350000381469727,17.700000762939453,37.868839263916016,0,
 763308,0.008056640625,-0.02978515625,-0.87451171875,-66.34146118164062,-13.841464042663574,22.530488967895508,-8.550000190734863,-16.350000381469727,17.399999618530273,38.06053161621094,0,
 763318,-0.1875,0.052978515625,-1.050537109375,65.30487823486328,11.981707572937012,-0.5182926654815674,-8.550000190734863,-16.350000381469727,17.399999618530273,38.06053161621094,0,
 763328,-0.043701171875,-0.19287109375,-0.960693359375,24.817073822021484,6.8597564697265625,1.0670732259750366,-6.300000190734863,-18.0,16.950000762939453,37.96468734741211,0,
 763338,-0.013427734375,-0.341796875,-1.10400390625,34.969512939453125,4.45121955871582,-11.52439022064209,-7.199999809265137,-15.75,18.299999237060547,38.06053161621094,0,
 763348,-0.005615234375,-0.580322265625,-1.248779296875,2.896341562271118,-23.414634704589844,-3.6890244483947754,-4.650000095367432,-13.649999618530273,13.949999809265137,37.77299499511719,0,
 763358,-0.3427734375,-0.332275390625,-0.98876953125,-57.164634704589844,-5.70121955871582,11.158536911010742,-6.300000190734863,-15.149999618530273,18.149999618530273,37.91676330566406,0,
 763368,-0.05810546875,-0.0068359375,-1.086181640625,24.390243530273438,-6.981707572937012,16.4939022064209,-6.300000190734863,-15.149999618530273,18.149999618530273,38.395992279052734,0,
 763378,-0.142578125,-0.32421875,-1.021728515625,-10.365854263305664,-8.292682647705078,16.4939022064209,-7.199999809265137,-13.800000190734863,19.049999237060547,38.15637969970703,0,
 763388,-0.370361328125,-0.23046875,-1.064697265625,-20.823171615600586,-5.365853786468506,7.5,-7.199999809265137,-16.5,18.75,38.15637969970703,0,
 763398,-0.611083984375,-0.152587890625,-1.150634765625,26.280488967895508,4.45121955871582,-0.060975611209869385,-7.800000190734863,-16.350000381469727,18.149999618530273,37.868839263916016,0,
 763408,-0.6767578125,-0.304443359375,-1.150634765625,17.957317352294922,30.457317352294922,7.408536911010742,-7.800000190734863,-16.350000381469727,18.149999618530273,38.108455657958984,0,
 763418,-0.32421875,-0.294677734375,-0.9541015625,7.682927131652832,24.359756469726562,21.768293380737305,-6.0,-15.75,18.0,38.06053161621094,0,
 763428,-0.112548828125,-0.23681640625,-1.062744140625,-5.365853786468506,18.689023971557617,31.43292808532715,-7.050000190734863,-14.850000381469727,17.399999618530273,38.06053161621094,0,
 763438,0.03173828125,-0.137939453125,-0.779296875,-18.170732498168945,2.012195110321045,33.506099700927734,-7.199999809265137,-16.5,17.25,37.96468734741211,0,
 763549,-0.257568359375,-0.175537109375,-1.064208984375,1.6463414430618286,-94.93902587890625,63.47561264038086,-3.0,-15.0,14.25,37.91676330566406,0,
 763559,-0.237060546875,-0.317626953125,-1.170166015625,7.286585330963135,-100.57926940917969,64.29878234863281,1.0499999523162842,-15.75,11.25,37.96468734741211,0,
 763569,-0.05615234375,-0.447509765625,-1.18798828125,7.469512462615967,-93.4756088256836,62.408538818359375,-0.8999999761581421,-14.850000381469727,15.149999618530273,38.15637969970703,0,
 763579,0.1240234375,-0.4931640625,-1.31103515625,-7.012195110321045,-89.14634704589844,60.060977935791016,-0.15000000596046448,-14.850000381469727,15.449999809265137,38.108455657958984,0,
 763589,0.132568359375,-0.4853515625,-1.364013671875,-17.19512176513672,-83.65853881835938,54.35975646972656,-0.15000000596046448,-14.850000381469727,15.449999809265137,38.25222396850586,0,
 763599,0.30224609375,-0.552001953125,-1.271728515625,-4.115853786468506,-66.09756469726562,44.42073440551758,1.7999999523162842,-15.0,13.800000190734863,37.72507095336914,0,
 763609,0.68896484375,-0.635498046875,-1.19921875,16.615854263305664,-52.65243911743164,35.67073440551758,2.4000000953674316,-14.850000381469727,13.949999809265137,38.06053161621094,0,
 763619,0.640869140625,-0.63134765625,-1.246826171875,-0.5487805008888245,-52.92683029174805,24.207317352294922,2.4000000953674316,-16.350000381469727,12.899999618530273,38.06053161621094,0,
 763629,0.58740234375,-0.449951171875,-1.272216796875,-27.13414764404297,-51.524391174316406,9.329268455505371,2.25,-15.75,13.5,38.108455657958984,0,
 763639,0.8076171875,-0.606689453125,-1.210693359375,4.695122241973877,-26.768293380737305,-4.420732021331787,2.25,-15.75,13.5,38.108455657958984,0,
 763649,0.908447265625,-0.520263671875,-1.21337890625,-10.365854263305664,-15.792683601379395,-17.774391174316406,3.5999999046325684,-18.0,11.699999809265137,37.91676330566406,0,
 763659,0.97900390625,-0.421875,-1.286865234375,-6.554878234863281,-3.8719513416290283,-30.85365867614746,3.0,-16.5,10.050000190734863,37.91676330566406,0,
 763669,0.968994140625,-0.458984375,-1.24853515625,6.646341800689697,13.689024925231934,-40.79268264770508,1.0499999523162842,-16.5,13.800000190734863,38.108455657958984,0,
 763679,1.031982421875,-0.411865234375,-1.2314453125,4.695122241973877,34.20731735229492,-46.524391174316406,1.0499999523162842,-16.5,13.800000190734863,38.108455657958984,0,
 763689,1.02587890625,-0.40625,-1.22705078125,8.810976028442383,53.29268264770508,-48.506099700927734,0.30000001192092896,-15.75,14.25,37.96468734741211,0,
 763699,0.994873046875,-0.3955078125,-1.26513671875,9.17682933807373,72.92683410644531,-51.64634323120117,0.44999998807907104,-16.350000381469727,12.449999809265137,37.868839263916016,0,
 763709,0.96240234375,-0.388427734375,-1.24951171875,8.506097793579102,94.32926940917969,-54.5121955871582,0.30000001192092896,-15.0,14.25,37.868839263916016,0,
 763719,0.96826171875,-0.47607421875,-1.231689453125,13.32317066192627,116.4024429321289,-56.585365295410156,-0.15000000596046448,-16.350000381469727,12.899999618530273,37.96468734741211,0,
 763729,0.926025390625,-0.5498046875,-1.23193359375,11.67682933807373,134.35975646972656,-60.121952056884766,-0.15000000596046448,-16.350000381469727,12.899999618530273,38.06053161621094,0,
 763739,0.818359375,-0.60498046875,-1.231689453125,10.82317066192627,151.61585998535156,-66.49390411376953,-2.4000000953674316,-13.649999618530273,15.899999618530273,38.15637969970703,0,
 763749,0.7041015625,-0.60400390625,-1.232666015625,6.8597564697265625,168.10975646972656,-73.20121765136719,-3.5999999046325684,-13.949999809265137,14.699999809265137,38.06053161621094,0,
 763759,0.52783203125,-0.607666015625,-1.268798828125,12.682927131652832,180.2134246826172,-78.2317123413086,-1.7999999523162842,-11.399999618530273,13.050000190734863,38.108455657958984,0,
 763769,-2.164794921875,-1.572021484375,6.41943359375,-999.0244140625,-691.9207763671875,-9.939024925231934,-1.7999999523162842,-11.399999618530273,13.050000190734863,38.06053161621094,0,
 763779,-3.8203125,2.574462890625,3.116455078125,-453.81097412109375,-412.6219482421875,-745.4268188476562,-2.4000000953674316,-20.25,19.649999618530273,38.15637969970703,0,
 763789,-8.0,3.30908203125,0.067626953125,656.3719482421875,955.3353881835938,142.53048706054688,-0.44999998807907104,-23.850000381469727,19.950000762939453,38.06053161621094,0,
 763799,1.516357421875,-0.554931640625,0.02490234375,876.1890258789062,373.2317199707031,292.01220703125,-7.050000190734863,-15.149999618530273,17.700000762939453,38.06053161621094,0,
 763809,6.36181640625,-2.728271484375,0.576171875,-106.76829528808594,235.6707305908203,315.4268493652344,-10.800000190734863,-7.199999809265137,13.649999618530273,38.300148010253906,0,
 763819,2.68017578125,-1.50830078125,-2.444580078125,-345.7926940917969,-588.4756469726562,253.44512939453125,-10.800000190734863,-7.199999809265137,13.649999618530273,38.108455657958984,0,
 763859,0.656494140625,0.12841796875,-1.63330078125,159.23780822753906,3.5060975551605225,-203.78048706054688,-7.349999904632568,-15.899999618530273,16.950000762939453,38.06053161621094,0,
 763869,-0.8056640625,-1.083984375,0.21728515625,132.53048706054688,23.475610733032227,18.35365867614746,-5.699999809265137,-16.950000762939453,16.049999237060547,38.108455657958984,0,
 763879,-1.263916015625,-0.964599609375,-2.226318359375,-147.53048706054688,-141.40243530273438,52.07317352294922,-5.099999904632568,-12.0,17.700000762939453,38.25222396850586,0,
 763889,0.398193359375,-0.086181640625,-0.22802734375,-111.9817123413086,-65.42683410644531,70.88414764404297,-6.449999809265137,-15.0,18.75,37.77299499511719,0,
 763899,0.276611328125,0.60498046875,-0.6533203125,50.82317352294922,-0.6097561120986938,2.9573171138763428,-7.199999809265137,-14.25,18.299999237060547,38.06053161621094,0,
 763909,-0.47900390625,-0.29296875,-0.922119140625,65.67073059082031,21.4939022064209,9.817073822021484,-7.199999809265137,-14.25,18.299999237060547,38.15637969970703,0,
 763919,-0.060546875,-0.76953125,-1.081787109375,-92.46951293945312,17.19512176513672,27.98780632019043,-6.300000190734863,-15.600000381469727,17.700000762939453,38.108455657958984,0,
 763929,-0.097412109375,-0.22900390625,-1.12353515625,-103.506103515625,-8.445121765136719,3.1097562313079834,-6.75,-14.550000190734863,18.75,38.06053161621094,0,
 763939,-0.09326171875,0.0126953125,-1.05517578125,43.658538818359375,-0.5182926654815674,1.8292683362960815,-6.0,-16.5,18.299999237060547,37.91676330566406,0,
 763949,-0.071533203125,-0.09765625,-0.96728515625,73.9024429321289,-2.896341562271118,1.8597561120986938,-6.0,-16.5,18.299999237060547,38.25222396850586,0,
 763959,-0.119140625,-0.781982421875,-1.559326171875,131.76829528808594,22.28658676147461,-34.29878234863281,-3.299999952316284,-15.75,18.0,38.25222396850586,0,
 763969,-0.091552734375,-0.686767578125,-0.655029296875,70.42683410644531,-12.012195587158203,-18.018293380737305,-1.0499999523162842,-14.25,16.049999237060547,38.06053161621094,0,
 763979,-0.1689453125,0.00830078125,-1.011962890625,-107.59146881103516,-17.164634704589844,8.170731544494629,-3.75,-16.200000762939453,17.25,38.06053161621094,0,
 763989,-0.039306640625,-0.038330078125,-1.029296875,-46.524391174316406,19.268293380737305,8.353658676147461,-5.099999904632568,-16.799999237060547,19.200000762939453,37.91676330566406,0,
 763999,-0.08837890625,-0.305419921875,-0.99658203125,17.10365867614746,7.22560977935791,2.9573171138763428,-5.099999904632568,-16.799999237060547,19.200000762939453,37.96468734741211,0,
 764009,-0.09228515625,-0.103515625,-1.04931640625,-11.52439022064209,5.54878044128418,0.060975611209869385,-4.650000095367432,-15.600000381469727,17.700000762939453,38.06053161621094,0,
 764019,-0.052001953125,-0.23486328125,-1.009765625,13.20121955871582,6.95121955871582,-0.18292683362960815,-3.9000000953674316,-15.600000381469727,16.950000762939453,38.108455657958984,0,
 764029,-0.0712890625,-0.3359375,-0.999755859375,13.414634704589844,3.8109757900238037,-0.15243902802467346,-4.5,-15.0,18.75,38.06053161621094,0,
 764039,-0.072998046875,-0.111572265625,-1.029541015625,-18.719512939453125,0.060975611209869385,0.8536585569381714,-4.5,-15.0,18.75,37.72507095336914,0,
 764049,-0.10791015625,-0.116455078125,-1.066650390625,-4.0853657722473145,0.8231707215309143,0.8841463327407837,-5.25,-15.75,18.0,38.15637969970703,0,
 764059,-0.0888671875,-0.145263671875,-1.06494140625,5.670732021331787,-0.792682945728302,-3.5060975551605225,-4.5,-15.75,18.299999237060547,38.108455657958984,0,
 764069,-0.06591796875,-0.196533203125,-1.0322265625,11.920731544494629,-1.7987805604934692,-6.554878234863281,-2.549999952316284,-16.5,15.300000190734863,37.91676330566406,0,
 764079,-0.09521484375,-0.21435546875,-1.042236328125,11.981707572937012,-4.939024448394775,-7.134146690368652,-4.349999904632568,-15.899999618530273,16.950000762939453,37.96468734741211,0,
 764089,-0.11279296875,-0.2177734375,-1.0361328125,9.146341323852539,-6.189024448394775,-7.896341800689697,-4.349999904632568,-15.899999618530273,16.950000762939453,37.77299499511719,0,
 764099,-0.079345703125,-0.193603515625,-1.0595703125,5.3353657722473145,-4.908536911010742,-8.689024925231934,-2.0999999046325684,-15.899999618530273,18.450000762939453,38.108455657958984,0,
 764109,-0.1748046875,-0.204345703125,-1.135986328125,10.091464042663574,-7.987804889678955,-10.579268455505371,-3.1500000953674316,-15.600000381469727,20.399999618530273,38.15637969970703,0,
 764119,-0.214599609375,-0.264892578125,-1.060546875,19.05487823486328,-8.04878044128418,-14.359756469726562,-4.199999809265137,-16.200000762939453,17.549999237060547,38.25222396850586,0,
 764129,-0.15771484375,-0.260498046875,-1.0791015625,19.78658676147461,-3.8719513416290283,-14.664634704589844,-4.199999809265137,-16.200000762939453,17.549999237060547,38.06053161621094,0,
 764139,-0.235595703125,-0.268310546875,-1.116943359375,23.231708526611328,-5.152439117431641,-15.579268455505371,-4.199999809265137,-16.200000762939453,17.25,37.91676330566406,0,
 764149,-0.182373046875,-0.272705078125,-1.04248046875,22.19512176513672,2.6219513416290283,-15.97560977935791,-3.9000000953674316,-15.149999618530273,17.399999618530273,38.06053161621094,0,
 764159,-0.22021484375,-0.281494140625,-1.12548828125,17.530488967895508,2.591463565826416,-14.115854263305664,-6.300000190734863,-13.649999618530273,15.899999618530273,38.06053161621094,0,
