timestamp,accl_x,accl_y,accl_z,gyro_x,gyro_y,gyro_z,mag_x,mag_y,mag_z,temp,emg,
 38889,-0.62744140625,0.020263671875,-0.8486328125,11.67682933807373,-10.82317066192627,1.9817073345184326,11.550000190734863,-52.349998474121094,-0.15000000596046448,39.689910888671875,0,
 38899,-0.652099609375,0.033447265625,-0.838134765625,22.28658676147461,-15.640244483947754,2.0426828861236572,11.399999618530273,-53.849998474121094,0.30000001192092896,39.689910888671875,0,
 38909,-0.66357421875,0.01904296875,-0.808349609375,28.780488967895508,-19.63414764404297,1.6463414430618286,10.949999809265137,-52.95000076293945,0.0,39.689910888671875,0,
 38979,-0.721435546875,-0.01171875,-0.7177734375,-3.5060975551605225,2.4390244483947754,0.4573170840740204,11.550000190734863,-54.75,-3.1500000953674316,39.546142578125,0,
 38989,-0.716552734375,0.003662109375,-0.740478515625,-3.628048896789551,4.6646342277526855,0.12195122241973877,9.600000381469727,-54.0,-1.2000000476837158,39.689910888671875,0,
 38999,-0.69921875,0.008544921875,-0.736572265625,-3.7804877758026123,6.890244007110596,0.12195122241973877,12.899999618530273,-52.95000076293945,-1.0499999523162842,39.737831115722656,0,
 39009,-0.703857421875,0.011474609375,-0.750244140625,-4.146341323852539,8.59756088256836,0.030487805604934692,12.899999618530273,-52.95000076293945,-1.0499999523162842,39.689910888671875,0,
 39019,-0.6923828125,0.003173828125,-0.75244140625,-3.567073345184326,10.0,-0.6402438879013062,12.149999618530273,-53.400001525878906,-1.0499999523162842,39.689910888671875,0,
 39029,-0.692138671875,-0.000244140625,-0.767822265625,-3.7804877758026123,10.914634704589844,-0.8841463327407837,12.600000381469727,-52.650001525878906,-1.0499999523162842,39.737831115722656,0,
 39039,-0.668212890625,-0.010498046875,-0.781982421875,-5.365853786468506,11.646341323852539,-0.8841463327407837,11.550000190734863,-52.04999923706055,-0.44999998807907104,39.689910888671875,0,
 39049,-0.661376953125,-0.016357421875,-0.799560546875,-4.146341323852539,10.792683601379395,-0.3658536672592163,11.550000190734863,-52.04999923706055,-0.44999998807907104,39.546142578125,0,
 39059,-0.657470703125,-0.01904296875,-0.81201171875,-4.1768293380737305,8.90243911743164,0.396341472864151,10.649999618530273,-54.150001525878906,-0.75,39.546142578125,0,
 39069,-0.646240234375,-0.0068359375,-0.818359375,-5.579268455505371,7.042683124542236,0.8536585569381714,12.600000381469727,-52.20000076293945,1.0499999523162842,39.546142578125,0,
 39079,-0.65625,0.014892578125,-0.81787109375,-5.243902683258057,4.45121955871582,1.1585365533828735,10.949999809265137,-55.79999923706055,-3.75,39.64198684692383,0,
 39089,-0.66455078125,0.022216796875,-0.803955078125,-1.432926893234253,1.5243902206420898,0.8231707215309143,10.949999809265137,-55.79999923706055,-3.75,39.689910888671875,0,
 39099,-0.67724609375,0.005859375,-0.7783203125,2.865853786468506,-0.7012194991111755,0.7317073345184326,11.699999809265137,-53.400001525878906,-0.75,39.737831115722656,0,
 39109,-0.6884765625,0.009765625,-0.7744140625,2.012195110321045,-1.0670732259750366,0.7012194991111755,13.5,-53.25,-0.44999998807907104,39.737831115722656,0,
 39129,-0.691162109375,0.01171875,-0.767333984375,5.670732021331787,-0.8231707215309143,-0.21341463923454285,12.75,-54.45000076293945,-1.649999976158142,39.64198684692383,0,
 39139,-0.698974609375,0.001708984375,-0.7529296875,6.493902683258057,-0.030487805604934692,-0.4268292784690857,12.75,-54.45000076293945,-1.649999976158142,39.737831115722656,0,
 39149,-0.701416015625,-0.001708984375,-0.751220703125,4.542683124542236,1.6158536672592163,-0.7012194991111755,13.5,-53.54999923706055,-1.2000000476837158,39.546142578125,0,
 39169,-0.68701171875,0.0087890625,-0.763427734375,0.3048780560493469,5.731707572937012,-1.3719512224197388,12.300000190734863,-53.25,-2.4000000953674316,39.83367919921875,0,
 39179,-0.6875,-0.00830078125,-0.767822265625,0.3048780560493469,6.890244007110596,-1.1280487775802612,12.300000190734863,-53.25,-2.4000000953674316,39.83367919921875,0,
 39189,-0.666015625,-0.010986328125,-0.78955078125,0.030487805604934692,7.560975551605225,-1.6463414430618286,11.550000190734863,-53.25,-0.15000000596046448,39.88159942626953,0,
 39199,-0.6572265625,-0.019775390625,-0.80615234375,-1.3109756708145142,7.22560977935791,-1.3109756708145142,11.699999809265137,-52.650001525878906,-0.30000001192092896,39.689910888671875,0,
 39209,-0.660888671875,-0.00537109375,-0.815185546875,-2.9268293380737305,6.158536911010742,-0.7317073345184326,12.600000381469727,-53.400001525878906,-1.5,39.88159942626953,0,
 39219,-0.658935546875,-0.006103515625,-0.81103515625,-2.5609755516052246,4.634146213531494,-0.3048780560493469,12.600000381469727,-53.400001525878906,-1.5,39.546142578125,0,
 39229,-0.65576171875,-0.00390625,-0.80712890625,-2.012195110321045,2.5304877758026123,0.060975611209869385,12.149999618530273,-52.20000076293945,-0.30000001192092896,39.737831115722656,0,
 39249,-0.662109375,0.00048828125,-0.790771484375,-0.792682945728302,0.0,-0.27439025044441223,11.399999618530273,-52.650001525878906,-1.0499999523162842,39.737831115722656,0,
 39259,-0.67919921875,-0.001708984375,-0.7783203125,0.396341472864151,-0.7012194991111755,-0.12195122241973877,12.300000190734863,-54.0,-0.15000000596046448,39.689910888671875,0,
 39269,-0.680908203125,0.000244140625,-0.7744140625,0.7012194991111755,-0.3353658616542816,-0.3048780560493469,11.699999809265137,-52.650001525878906,-0.75,39.737831115722656,0,
 39279,-0.6826171875,0.0009765625,-0.7685546875,0.8231707215309143,0.8536585569381714,-0.4268292784690857,12.0,-50.849998474121094,-0.44999998807907104,39.83367919921875,0,
 39289,-0.6796875,0.002685546875,-0.771484375,0.6097561120986938,1.8597561120986938,-0.3353658616542816,13.050000190734863,-54.45000076293945,0.15000000596046448,39.64198684692383,0,
 39299,-0.678955078125,0.00244140625,-0.772216796875,0.7012194991111755,2.1646342277526855,-0.7012194991111755,10.949999809265137,-52.95000076293945,-0.30000001192092896,39.64198684692383,0,
 39309,-0.67138671875,0.001953125,-0.778564453125,0.27439025044441223,2.3475611209869385,-0.4878048896789551,10.949999809265137,-52.95000076293945,-0.30000001192092896,39.64198684692383,0,
 39319,-0.673583984375,-0.005859375,-0.790771484375,0.4268292784690857,2.0426828861236572,-0.4573170840740204,10.5,-52.349998474121094,1.2000000476837158,39.64198684692383,0,
 39329,-0.673828125,-0.009033203125,-0.784423828125,0.5792682766914368,1.585365891456604,-0.21341463923454285,10.649999618530273,-51.75,-0.30000001192092896,39.689910888671875,0,
 39339,-0.681640625,-0.012451171875,-0.784423828125,-0.3353658616542816,1.6463414430618286,-0.27439025044441223,12.300000190734863,-52.79999923706055,-0.44999998807907104,39.88159942626953,0,
 39349,-0.673583984375,-0.003662109375,-0.782470703125,0.4878048896789551,1.7073171138763428,0.0,12.300000190734863,-52.79999923706055,-0.44999998807907104,39.546142578125,0,
 39359,-0.67529296875,-0.003662109375,-0.782958984375,0.7012194991111755,1.4939024448394775,-0.030487805604934692,11.550000190734863,-53.54999923706055,-0.8999999761581421,39.49821853637695,0,
 39369,-0.672119140625,0.00146484375,-0.78173828125,0.21341463923454285,2.22560977935791,-0.27439025044441223,10.649999618530273,-52.95000076293945,0.0,39.83367919921875,0,
 39379,-0.675048828125,-0.006103515625,-0.777587890625,-0.030487805604934692,2.804877996444702,-0.21341463923454285,11.399999618530273,-53.400001525878906,0.75,39.977447509765625,0,
 39509,-0.679443359375,0.006103515625,-0.77685546875,-0.5182926654815674,-0.5182926654815674,1.0670732259750366,10.800000190734863,-52.79999923706055,-2.4000000953674316,39.64198684692383,0,
 39519,-0.67333984375,0.004150390625,-0.77490234375,-0.7012194991111755,0.4268292784690857,0.5792682766914368,10.800000190734863,-52.79999923706055,-2.4000000953674316,39.64198684692383,0,
 39559,-0.667724609375,-0.004150390625,-0.788330078125,-0.8231707215309143,1.6463414430618286,0.6097561120986938,12.75,-54.0,-1.9500000476837158,39.450294494628906,0,
 39589,-0.6630859375,0.00146484375,-0.796875,-1.6158536672592163,1.3109756708145142,0.9146341681480408,12.0,-52.04999923706055,-1.649999976158142,39.737831115722656,0,
 39599,-0.66455078125,0.00048828125,-0.797607421875,-1.585365891456604,0.396341472864151,0.5182926654815674,12.300000190734863,-52.04999923706055,0.15000000596046448,39.546142578125,0,
 39609,-0.668701171875,-0.001220703125,-0.79150390625,-0.9451219439506531,-0.21341463923454285,0.4573170840740204,12.300000190734863,-52.04999923706055,0.15000000596046448,39.546142578125,0,
 39619,-0.6689453125,-0.006591796875,-0.78564453125,-1.0365853309631348,-0.3048780560493469,0.8841463327407837,13.649999618530273,-52.20000076293945,-3.299999952316284,39.689910888671875,0,
 39629,-0.674560546875,-0.010009765625,-0.78271484375,-0.7317073345184326,-0.7012194991111755,1.097561001777649,11.399999618530273,-53.849998474121094,0.30000001192092896,39.546142578125,0,
 39639,-0.677490234375,-0.006103515625,-0.785888671875,-1.1890244483947754,-0.3353658616542816,0.792682945728302,12.899999618530273,-53.400001525878906,0.30000001192092896,39.737831115722656,0,
 39649,-0.671142578125,-0.00146484375,-0.787841796875,-0.9146341681480408,-0.6097561120986938,1.2195122241973877,12.899999618530273,-53.400001525878906,0.30000001192092896,39.689910888671875,0,
 39670,-0.679443359375,0.002685546875,-0.779052734375,-0.9451219439506531,-0.4878048896789551,0.792682945728302,12.899999618530273,-53.400001525878906,-0.30000001192092896,39.83367919921875,0,
 39680,-0.673095703125,0.00341796875,-0.780517578125,-0.7317073345184326,-0.09146341681480408,0.9756097793579102,12.600000381469727,-54.150001525878906,-1.0499999523162842,39.689910888671875,0,
 39690,-0.6796875,0.0068359375,-0.776123046875,-0.3048780560493469,0.12195122241973877,0.6097561120986938,10.050000190734863,-54.0,-1.2000000476837158,39.64198684692383,0,
 39700,-0.677734375,0.000244140625,-0.774658203125,-0.6707317233085632,0.6402438879013062,0.12195122241973877,10.050000190734863,-54.0,-1.2000000476837158,39.737831115722656,0,
 39710,-0.673828125,-0.004150390625,-0.77978515625,-0.24390244483947754,1.2195122241973877,0.21341463923454285,10.050000190734863,-52.349998474121094,0.15000000596046448,39.546142578125,0,
 39740,-0.670654296875,0.0009765625,-0.783203125,-0.4268292784690857,0.6707317233085632,0.24390244483947754,11.399999618530273,-53.849998474121094,-0.30000001192092896,39.64198684692383,0,
 39750,-0.669921875,-0.000732421875,-0.793212890625,-0.6097561120986938,0.4878048896789551,-0.09146341681480408,12.0,-53.25,-1.2000000476837158,39.689910888671875,0,
 39760,-0.665771484375,-0.002197265625,-0.795654296875,-0.3048780560493469,-0.4268292784690857,-0.15243902802467346,12.600000381469727,-52.20000076293945,0.30000001192092896,39.689910888671875,0,
 39770,-0.667236328125,0.003662109375,-0.791748046875,-0.4268292784690857,-0.5792682766914368,-0.12195122241973877,11.25,-52.349998474121094,0.44999998807907104,39.88159942626953,0,
 39780,-0.666259765625,-0.001953125,-0.78564453125,-0.24390244483947754,-0.9451219439506531,-0.030487805604934692,11.25,-52.349998474121094,0.44999998807907104,39.83367919921875,0,
 39800,-0.670166015625,-0.004638671875,-0.784423828125,-0.15243902802467346,-0.7621951103210449,-0.12195122241973877,11.550000190734863,-52.349998474121094,-0.8999999761581421,39.64198684692383,0,
 39810,-0.677490234375,-0.0029296875,-0.783203125,-0.030487805604934692,-0.8841463327407837,-0.15243902802467346,11.699999809265137,-55.04999923706055,-1.5,39.689910888671875,0,
 39820,-0.671875,-0.00341796875,-0.780029296875,-0.27439025044441223,-0.3048780560493469,-0.060975611209869385,12.300000190734863,-52.349998474121094,-0.8999999761581421,39.83367919921875,0,
 39830,-0.6767578125,-0.00537109375,-0.780029296875,0.0,0.0,-0.3048780560493469,12.300000190734863,-52.349998474121094,-0.8999999761581421,39.737831115722656,0,
 39910,-0.668701171875,-0.001953125,-0.7861328125,-0.4268292784690857,0.09146341681480408,-0.15243902802467346,11.25,-56.400001525878906,-1.2000000476837158,39.64198684692383,0,
 39920,-0.673095703125,-0.00830078125,-0.787841796875,0.3048780560493469,-0.030487805604934692,-0.5182926654815674,13.350000381469727,-52.95000076293945,0.30000001192092896,39.737831115722656,0,
 39930,-0.678466796875,-0.005126953125,-0.784423828125,-0.060975611209869385,0.18292683362960815,-0.060975611209869385,11.25,-52.79999923706055,-1.2000000476837158,39.977447509765625,0,
 39950,-0.672607421875,-0.0068359375,-0.7900390625,-0.18292683362960815,0.4268292784690857,-0.3353658616542816,12.0,-53.25,0.15000000596046448,39.35445022583008,0,
 39960,-0.674560546875,-0.01025390625,-0.78955078125,-0.4573170840740204,0.5487805008888245,0.030487805604934692,12.0,-53.25,0.15000000596046448,39.737831115722656,0,
 39970,-0.671875,-0.01123046875,-0.781982421875,-0.12195122241973877,0.24390244483947754,0.3353658616542816,12.899999618530273,-52.650001525878906,-1.0499999523162842,39.737831115722656,0,
 39980,-0.675048828125,-0.011474609375,-0.79052734375,-0.7317073345184326,0.27439025044441223,0.6707317233085632,10.050000190734863,-52.349998474121094,0.15000000596046448,39.737831115722656,0,
 39990,-0.672119140625,-0.005126953125,-0.790771484375,-0.8536585569381714,-0.030487805604934692,0.4573170840740204,12.899999618530273,-54.150001525878906,0.30000001192092896,39.83367919921875,0,
 40100,-0.672119140625,-0.001708984375,-0.78271484375,-0.8231707215309143,1.432926893234253,0.4268292784690857,10.199999809265137,-51.75,-0.75,39.689910888671875,0,
 40110,-0.673583984375,-0.00244140625,-0.78857421875,-0.792682945728302,1.432926893234253,-0.12195122241973877,12.600000381469727,-53.849998474121094,-2.549999952316284,39.689910888671875,0,
 40120,-0.6650390625,-0.00439453125,-0.791015625,-0.792682945728302,1.1890244483947754,0.0,13.350000381469727,-52.650001525878906,0.30000001192092896,39.49821853637695,0,
 40130,-0.66064453125,-0.00390625,-0.793212890625,-0.5487805008888245,0.7621951103210449,-0.15243902802467346,13.350000381469727,-52.650001525878906,0.30000001192092896,39.83367919921875,0,
 40140,-0.6533203125,-0.003662109375,-0.80322265625,-1.4634146690368652,-0.060975611209869385,-0.15243902802467346,11.699999809265137,-54.150001525878906,0.30000001192092896,39.88159942626953,0,
 40150,-0.600830078125,-0.037353515625,-0.8544921875,-0.9146341681480408,-1.1280487775802612,0.09146341681480408,12.600000381469727,-52.20000076293945,-1.0499999523162842,39.35445022583008,0,
 40170,-0.515625,-0.001953125,-1.00146484375,-15.335366249084473,-12.317073822021484,0.6402438879013062,12.0,-52.79999923706055,0.15000000596046448,39.64198684692383,0,
 40190,-0.455810546875,-0.1875,-1.236572265625,-13.079268455505371,-48.506099700927734,4.603658676147461,11.25,-52.79999923706055,-0.15000000596046448,39.83367919921875,0,
 40210,-0.41162109375,-0.2109375,-1.486328125,-44.05487823486328,-149.81707763671875,27.68292808532715,12.300000190734863,-53.54999923706055,-0.44999998807907104,39.546142578125,0,
 40220,-0.498046875,-0.17431640625,-1.401611328125,-55.914634704589844,-177.10366821289062,34.14634323120117,13.350000381469727,-52.95000076293945,-0.30000001192092896,39.737831115722656,0,
 40240,-0.7216796875,0.091064453125,-1.07861328125,-52.621952056884766,-215.82318115234375,35.51829528808594,13.050000190734863,-54.0,-3.1500000953674316,39.450294494628906,0,
 40250,-0.83642578125,0.2421875,-0.9296875,-11.40243911743164,-234.6341552734375,31.829269409179688,13.050000190734863,-54.0,-3.1500000953674316,39.689910888671875,0,
 40270,-1.416015625,0.45166015625,-0.31201171875,59.05487823486328,-260.7926940917969,29.420732498168945,14.25,-53.54999923706055,-4.650000095367432,39.64198684692383,0,
 40280,-2.084228515625,0.660888671875,-0.021484375,136.3719482421875,-224.2073211669922,8.32317066192627,14.399999618530273,-54.599998474121094,-4.800000190734863,39.737831115722656,0,
 40290,-3.612548828125,0.5029296875,-0.721923828125,254.35975646972656,-67.19512176513672,-25.0,15.149999618530273,-53.849998474121094,-5.25,39.49821853637695,0,
 40300,-2.361572265625,-0.344482421875,-0.481201171875,206.61585998535156,61.03658676147461,-43.01829528808594,15.149999618530273,-53.849998474121094,-5.25,39.88159942626953,0,
 40410,0.278076171875,0.08740234375,0.033447265625,-31.79878044128418,98.20122528076172,-8.689024925231934,12.75,-52.349998474121094,-2.700000047683716,39.689910888671875,0,
 40420,0.288330078125,0.09375,-0.053466796875,18.719512939453125,75.2743911743164,-40.42683029174805,11.550000190734863,-52.79999923706055,-0.44999998807907104,39.737831115722656,0,
 40430,0.099609375,0.031494140625,0.105224609375,94.4817123413086,18.9939022064209,-19.969512939453125,11.550000190734863,-52.79999923706055,-0.44999998807907104,39.64198684692383,0,
 40440,0.1962890625,-0.21240234375,0.4521484375,98.07926940917969,16.829269409179688,-24.542682647705078,10.800000190734863,-51.150001525878906,0.44999998807907104,39.546142578125,0,
 40450,0.49755859375,-0.18359375,0.26953125,-18.963415145874023,2.1646342277526855,-19.84756088256836,12.149999618530273,-51.0,0.30000001192092896,39.546142578125,0,
 40460,0.463623046875,0.143798828125,0.1669921875,-87.53048706054688,-18.719512939453125,-2.0731706619262695,12.149999618530273,-50.70000076293945,0.75,39.737831115722656,0,
 40480,0.190185546875,0.013671875,0.118896484375,-18.780488967895508,-84.54268646240234,0.3353658616542816,12.0,-50.849998474121094,-0.8999999761581421,39.88159942626953,0,
 40490,0.0654296875,-0.059326171875,0.11767578125,-20.823171615600586,-105.21341705322266,1.6463414430618286,12.899999618530273,-51.75,0.0,39.64198684692383,0,
 40501,-0.076171875,-0.01513671875,0.032470703125,-53.84146499633789,-111.15853881835938,5.152439117431641,12.149999618530273,-51.45000076293945,0.0,39.83367919921875,0,
 40531,-1.01904296875,-0.013916015625,-0.409423828125,-6.890244007110596,-114.7256088256836,-4.02439022064209,13.5,-51.150001525878906,-1.649999976158142,39.737831115722656,0,
 40541,-8.0,4.265625,4.406005859375,-760.48779296875,288.506103515625,-192.22561645507812,15.0,-52.349998474121094,-2.4000000953674316,39.64198684692383,0,
 40551,7.999755859375,-1.84228515625,6.877685546875,998.993896484375,999.0244140625,-301.1585388183594,12.149999618530273,-53.400001525878906,-1.5,39.737831115722656,0,
 40561,-1.608642578125,1.368896484375,-4.783447265625,-999.0244140625,-641.03662109375,339.1463623046875,12.149999618530273,-53.400001525878906,-1.5,39.737831115722656,0,
 40571,-0.600341796875,-0.214599609375,-0.466064453125,-257.19512939453125,525.7012329101562,79.75609588623047,10.800000190734863,-54.45000076293945,0.8999999761581421,39.64198684692383,0,
 40591,2.9072265625,0.181884765625,-2.346923828125,-228.41464233398438,120.60975646972656,-72.3780517578125,8.100000381469727,-54.0,-0.44999998807907104,39.546142578125,0,
 40601,1.42919921875,0.1396484375,-1.479248046875,-19.207317352294922,-174.96951293945312,-57.04268264770508,8.100000381469727,-54.0,-0.44999998807907104,39.64198684692383,0,
 40611,-0.9580078125,0.6591796875,-0.674560546875,-58.59756088256836,-232.256103515625,-1.1585365533828735,10.5,-56.70000076293945,-2.4000000953674316,39.737831115722656,0,
 40621,-1.567138671875,0.2392578125,-0.3974609375,-25.2439022064209,-197.16464233398438,-40.274391174316406,10.050000190734863,-55.650001525878906,-1.9500000476837158,39.737831115722656,0,
 40651,-1.00830078125,0.235107421875,-0.418701171875,321.2804870605469,-173.01829528808594,-14.512195587158203,11.399999618530273,-55.04999923706055,-1.5,39.49821853637695,0,
 40661,-1.067138671875,0.1533203125,-0.267578125,289.3597717285156,-74.6036605834961,-20.0,12.300000190734863,-51.599998474121094,-0.8999999761581421,39.737831115722656,0,
 40701,-0.93359375,0.3046875,-0.525634765625,86.09756469726562,59.14634323120117,-30.274391174316406,13.050000190734863,-50.400001525878906,-0.44999998807907104,39.83367919921875,0,
 40711,-0.888671875,0.00244140625,-0.48876953125,74.11585235595703,77.86585235595703,-53.2621955871582,14.100000381469727,-52.20000076293945,-0.30000001192092896,39.737831115722656,0,
 40721,-0.68701171875,-0.419921875,-0.648193359375,-16.036584854125977,77.16463470458984,-23.719512939453125,12.0,-50.099998474121094,0.44999998807907104,39.737831115722656,0,
 40731,-0.643798828125,-0.375732421875,-0.783935546875,-93.17073059082031,72.34756469726562,-8.841464042663574,12.0,-50.099998474121094,0.44999998807907104,39.49821853637695,0,
 40741,-0.59765625,-0.4287109375,-0.870361328125,-183.53659057617188,72.80487823486328,4.878048896789551,12.149999618530273,-49.79999923706055,-0.30000001192092896,39.64198684692383,0,
 40771,-0.531005859375,0.121826171875,-1.3037109375,-353.26220703125,65.18292999267578,16.737804412841797,10.649999618530273,-54.599998474121094,-1.0499999523162842,39.64198684692383,0,
 40821,-0.712158203125,0.194091796875,-0.724365234375,45.853660583496094,-23.231708526611328,3.2317073345184326,11.699999809265137,-54.599998474121094,-1.0499999523162842,39.689910888671875,0,
 40831,-0.70361328125,0.197998046875,-0.722412109375,98.71951293945312,-30.213415145874023,-4.115853786468506,12.899999618530273,-54.150001525878906,-1.5,39.64198684692383,0,
 40841,-0.759765625,-0.054931640625,-0.641845703125,156.03659057617188,-35.7621955871582,-1.7987805604934692,12.300000190734863,-54.45000076293945,-1.649999976158142,39.546142578125,0,
 40851,-0.824462890625,-0.228515625,-0.610107421875,113.65853881835938,-20.365854263305664,-2.7134146690368652,12.0,-53.25,-0.15000000596046448,39.737831115722656,0,
 40861,-0.677978515625,-0.181884765625,-0.682861328125,8.04878044128418,13.567073822021484,-7.713414669036865,12.0,-53.25,-0.15000000596046448,39.546142578125,0,
 40871,-0.6650390625,0.055908203125,-0.83056640625,-49.35975646972656,26.615854263305664,-2.8353660106658936,12.149999618530273,-52.95000076293945,0.0,39.977447509765625,0,
 40881,-0.617919921875,0.086669921875,-0.888427734375,-24.024391174316406,19.512195587158203,-4.29878044128418,11.25,-51.599998474121094,-0.8999999761581421,39.450294494628906,0,
 40901,-0.63525390625,-0.065673828125,-0.83056640625,15.731707572937012,2.896341562271118,-4.0853657722473145,12.0,-54.0,-1.2000000476837158,39.737831115722656,0,
 40911,-0.64599609375,0.10205078125,-0.86962890625,-1.9817073345184326,2.804877996444702,-3.445122003555298,10.800000190734863,-52.349998474121094,-0.8999999761581421,39.737831115722656,0,
 40921,-0.615234375,-0.118896484375,-0.8095703125,8.963415145874023,-1.7987805604934692,-8.689024925231934,11.699999809265137,-51.75,-2.25,39.64198684692383,0,
 40931,-0.680419921875,0.076171875,-0.848388671875,-16.219512939453125,-2.7134146690368652,0.9756097793579102,10.5,-54.75,-1.9500000476837158,39.450294494628906,0,
 40941,-0.6318359375,0.095947265625,-0.828125,13.414634704589844,-9.512195587158203,0.7621951103210449,12.149999618530273,-50.70000076293945,0.75,39.689910888671875,0,
 40951,-0.6953125,0.046630859375,-0.785400390625,52.835365295410156,-22.34756088256836,-0.6097561120986938,12.149999618530273,-50.70000076293945,0.75,39.83367919921875,0,
 40961,-0.698974609375,-0.08154296875,-0.720703125,61.64634323120117,-21.189023971557617,-1.1890244483947754,11.25,-53.25,0.15000000596046448,39.689910888671875,0,
 40971,-0.74951171875,-0.164306640625,-0.630126953125,27.5,-13.079268455505371,1.2195122241973877,12.600000381469727,-52.650001525878906,0.0,39.64198684692383,0,
 40981,-0.703369140625,-0.067138671875,-0.727294921875,-30.457317352294922,5.487804889678955,1.7073171138763428,11.699999809265137,-52.20000076293945,-1.5,39.49821853637695,0,
 40991,-0.70068359375,-0.0009765625,-0.77490234375,-48.658538818359375,11.219511985778809,3.3231709003448486,11.699999809265137,-52.20000076293945,-1.5,39.64198684692383,0,
 41001,-0.687255859375,0.00048828125,-0.77001953125,-41.92073440551758,12.560976028442383,3.2317073345184326,12.300000190734863,-52.79999923706055,-0.15000000596046448,39.737831115722656,0,
 41011,-0.667724609375,-0.010009765625,-0.78759765625,-43.32317352294922,14.72560977935791,1.7682926654815674,12.149999618530273,-52.650001525878906,-0.30000001192092896,39.49821853637695,0,
 41021,-0.662109375,0.017822265625,-0.81494140625,-49.2378044128418,15.365854263305664,2.0426828861236572,10.199999809265137,-52.95000076293945,-1.7999999523162842,39.88159942626953,0,
 41031,-0.62744140625,0.044189453125,-0.8515625,-50.45731735229492,14.085366249084473,0.7317073345184326,10.199999809265137,-52.95000076293945,-1.7999999523162842,39.49821853637695,0,
 41041,-0.548583984375,0.0068359375,-0.944580078125,-39.664634704589844,8.47560977935791,1.5548781156539917,10.5,-54.0,-1.649999976158142,39.737831115722656,0,
 41051,-0.5556640625,0.059326171875,-0.977783203125,-37.256099700927734,-4.1768293380737305,1.6463414430618286,12.149999618530273,-52.95000076293945,-1.0499999523162842,39.88159942626953,0,
 41061,-0.489501953125,0.071533203125,-1.07470703125,-19.939023971557617,-20.426830291748047,1.6158536672592163,10.649999618530273,-54.150001525878906,-1.7999999523162842,39.737831115722656,0,
 41071,-0.493408203125,0.00146484375,-1.097900390625,1.2804877758026123,-43.871952056884766,1.8292683362960815,10.649999618530273,-53.400001525878906,-2.25,39.64198684692383,0,
 41081,-0.51025390625,-0.086181640625,-1.181640625,8.292682647705078,-63.90243911743164,3.079268455505371,10.649999618530273,-53.400001525878906,-2.25,39.546142578125,0,
 41091,-0.47265625,-0.09326171875,-1.171630859375,1.6158536672592163,-86.49390411376953,5.4268293380737305,13.350000381469727,-53.849998474121094,-0.30000001192092896,39.689910888671875,0,
 41101,-0.510986328125,-0.100341796875,-1.208251953125,-5.609755992889404,-110.09146881103516,7.530488014221191,12.899999618530273,-53.849998474121094,-0.75,39.977447509765625,0,
 41121,-0.66162109375,-0.052490234375,-1.095947265625,-40.060977935791016,-160.5792694091797,9.664634704589844,12.899999618530273,-53.400001525878906,-2.25,39.64198684692383,0,
 41131,-0.72998046875,-0.02783203125,-1.04296875,-42.621952056884766,-172.9268341064453,10.518293380737305,14.699999809265137,-54.0,-5.699999809265137,39.83367919921875,0,
 41151,-0.88916015625,0.047119140625,-0.796875,-40.182926177978516,-191.73780822753906,10.15243911743164,13.800000190734863,-54.0,-3.450000047683716,39.689910888671875,0,
 41231,-0.964599609375,0.250244140625,-0.236572265625,-51.03658676147461,169.78659057617188,10.243902206420898,15.600000381469727,-54.150001525878906,-4.5,39.49821853637695,0,
 41241,-0.8720703125,0.410400390625,-0.250244140625,-29.329269409179688,186.52439880371094,24.69512176513672,12.75,-54.45000076293945,-6.150000095367432,39.35445022583008,0,
 41251,-0.79638671875,0.391845703125,-0.29638671875,5.487804889678955,190.8841552734375,31.768293380737305,12.75,-54.45000076293945,-6.150000095367432,39.737831115722656,0,
 41261,-0.776611328125,0.33642578125,-0.271484375,47.34756088256836,191.9512176513672,28.628049850463867,12.600000381469727,-53.400001525878906,-2.549999952316284,39.689910888671875,0,
 41271,-0.683837890625,0.226806640625,-0.2314453125,85.0,186.6768341064453,15.914634704589844,12.75,-53.25,-3.9000000953674316,39.546142578125,0,
 41281,-0.0966796875,0.06640625,-0.031005859375,112.86585998535156,168.84146118164062,3.2317073345184326,13.350000381469727,-53.849998474121094,-0.75,39.546142578125,0,
 41291,0.046142578125,-0.369384765625,-0.040283203125,129.2073211669922,147.01219177246094,-29.176830291748047,13.350000381469727,-53.849998474121094,-0.75,39.737831115722656,0,
 41301,0.090087890625,-0.28125,0.028564453125,66.89024353027344,113.04878234863281,-0.5182926654815674,11.399999618530273,-52.650001525878906,-1.0499999523162842,39.64198684692383,0,
 41311,-0.151123046875,-0.029052734375,-0.14892578125,-3.658536672592163,79.63414764404297,-12.743903160095215,10.649999618530273,-52.95000076293945,0.30000001192092896,39.546142578125,0,
 41321,-0.28759765625,0.102783203125,-0.2099609375,27.65243911743164,60.7621955871582,-28.35365867614746,9.899999618530273,-52.20000076293945,0.0,39.546142578125,0,
 41442,-8.0,-3.9736328125,-7.999755859375,-60.97561264038086,-115.30487823486328,17.469512939453125,13.5,-53.54999923706055,-3.1500000953674316,39.737831115722656,0,
 41482,1.79345703125,1.222900390625,-4.568115234375,-513.75,177.74391174316406,46.524391174316406,10.050000190734863,-54.0,0.44999998807907104,39.737831115722656,0,
 41512,-1.140869140625,0.12451171875,-0.4853515625,19.939023971557617,-185.5792694091797,0.9756097793579102,11.25,-55.20000076293945,-1.649999976158142,39.737831115722656,0,
 41522,-0.599365234375,0.146240234375,-0.550048828125,-27.378049850463867,-148.0792694091797,-8.993902206420898,11.399999618530273,-55.04999923706055,-1.5,39.546142578125,0,
 41542,-0.878173828125,0.251708984375,-0.436767578125,152.10366821289062,-180.36585998535156,14.359756469726562,12.149999618530273,-54.150001525878906,-4.800000190734863,39.83367919921875,0,
 41552,-0.92919921875,0.107177734375,-0.31396484375,213.87196350097656,-147.98780822753906,23.780488967895508,12.149999618530273,-54.150001525878906,-4.800000190734863,39.977447509765625,0,
 41562,-1.045654296875,0.04345703125,-0.14404296875,220.82318115234375,-119.29878234863281,0.09146341681480408,11.550000190734863,-53.25,-1.2000000476837158,39.64198684692383,0,
 41582,-1.10107421875,0.011962890625,0.13037109375,5.579268455505371,28.963415145874023,-27.5,12.300000190734863,-52.04999923706055,-0.44999998807907104,39.64198684692383,0,
 41592,-1.093017578125,0.279541015625,-0.109619140625,13.689024925231934,60.121952056884766,-39.2378044128418,12.300000190734863,-52.04999923706055,-0.44999998807907104,39.689910888671875,0,
 41602,-0.92578125,0.24365234375,-0.476806640625,110.67073059082031,68.65853881835938,-48.932926177978516,14.25,-50.849998474121094,-1.649999976158142,39.83367919921875,0,
 41612,-0.8798828125,-0.08447265625,-0.49365234375,119.45122528076172,86.92073059082031,-52.469512939453125,12.600000381469727,-51.0,-2.25,39.35445022583008,0,
 41622,-0.70703125,-0.4443359375,-0.42333984375,5.54878044128418,98.20122528076172,-35.030487060546875,12.899999618530273,-52.650001525878906,-1.5,39.689910888671875,0,
 41632,-0.67431640625,-0.52978515625,-0.71923828125,-89.69512176513672,98.81097412109375,-15.12195110321045,14.25,-50.400001525878906,-0.15000000596046448,39.689910888671875,0,
 41642,-0.720458984375,-0.484375,-1.052734375,-135.36585998535156,96.55487823486328,-3.3841464519500732,14.25,-50.400001525878906,-0.15000000596046448,39.737831115722656,0,
 41652,-0.415283203125,-0.463134765625,-1.072509765625,-221.7987823486328,84.93902587890625,2.987804889678955,11.25,-50.849998474121094,-0.15000000596046448,39.546142578125,0,
 41682,-0.290283203125,0.723388671875,-1.49462890625,-99.6036605834961,-5.579268455505371,-16.219512939453125,10.949999809265137,-52.95000076293945,-1.5,39.64198684692383,0,
 41692,-0.356689453125,0.840087890625,-0.990966796875,117.01219940185547,-69.45121765136719,23.231708526611328,11.550000190734863,-54.75,-1.2000000476837158,39.737831115722656,0,
 41702,-0.609375,-0.033935546875,-0.843994140625,81.82926940917969,-63.78049087524414,13.140244483947754,10.800000190734863,-55.20000076293945,-1.9500000476837158,39.64198684692383,0,
 41712,-0.844482421875,-0.124755859375,-0.616455078125,7.804878234863281,-38.353660583496094,-4.756097793579102,10.5,-54.0,-1.649999976158142,39.689910888671875,0,
 41722,-0.728515625,0.03271484375,-0.6533203125,15.304878234863281,-32.8658561706543,-3.8719513416290283,10.5,-54.0,-1.649999976158142,39.977447509765625,0,
 41732,-0.763671875,0.109130859375,-0.6611328125,98.2317123413086,-46.79878234863281,1.7682926654815674,12.75,-53.54999923706055,-2.4000000953674316,39.64198684692383,0,
 41742,-0.854736328125,-0.148681640625,-0.522705078125,141.85975646972656,-45.94512176513672,1.3414634466171265,12.75,-54.75,-3.9000000953674316,39.689910888671875,0,
 41752,-0.85986328125,-0.2490234375,-0.441162109375,89.26829528808594,-19.817073822021484,-1.0060975551605225,10.649999618530273,-52.95000076293945,-1.7999999523162842,39.737831115722656,0,
 41762,-0.79443359375,-0.098876953125,-0.57373046875,-7.103658676147461,13.079268455505371,-1.097561001777649,12.300000190734863,-51.599998474121094,-0.8999999761581421,39.35445022583008,0,
 41772,-0.7236328125,0.052734375,-0.756103515625,-43.14024353027344,29.23780632019043,-1.9817073345184326,12.300000190734863,-51.599998474121094,-0.8999999761581421,39.88159942626953,0,
 41782,-0.677490234375,0.076904296875,-0.81201171875,-19.542682647705078,25.2439022064209,-2.4695122241973877,12.0,-52.79999923706055,0.44999998807907104,39.64198684692383,0,
 41792,-0.691162109375,0.001220703125,-0.793212890625,10.70121955871582,17.65243911743164,-1.432926893234253,11.399999618530273,-52.20000076293945,-0.75,39.64198684692383,0,
 41802,-0.651123046875,-0.031982421875,-0.83984375,8.353658676147461,17.19512176513672,-1.8597561120986938,11.550000190734863,-53.54999923706055,-0.8999999761581421,39.64198684692383,0,
 41812,-0.635498046875,0.056640625,-0.896484375,6.371951580047607,12.957317352294922,-4.146341323852539,11.550000190734863,-53.54999923706055,-0.8999999761581421,39.64198684692383,0,
 41822,-0.595947265625,-0.08154296875,-0.823486328125,21.676830291748047,2.7134146690368652,-4.02439022064209,10.800000190734863,-52.349998474121094,-0.44999998807907104,39.64198684692383,0,
 41832,-0.616943359375,0.0361328125,-0.893310546875,-4.908536911010742,2.9268293380737305,0.7621951103210449,10.800000190734863,-50.099998474121094,-1.649999976158142,39.88159942626953,0,
 41852,-0.6611328125,0.0166015625,-0.8154296875,40.914634704589844,-16.95121955871582,0.3658536672592163,10.5,-49.650001525878906,-1.649999976158142,39.737831115722656,0,
 41892,-0.71240234375,0.022216796875,-0.755859375,-35.39634323120117,3.9024391174316406,2.1646342277526855,11.550000190734863,-53.54999923706055,0.44999998807907104,39.546142578125,0,
 41902,-0.7158203125,-0.0185546875,-0.727294921875,-22.5,3.4146342277526855,1.8292683362960815,10.949999809265137,-52.95000076293945,-0.75,39.689910888671875,0,
 41912,-0.70556640625,-0.033935546875,-0.7275390625,-25.518293380737305,6.646341800689697,1.5548781156539917,11.550000190734863,-54.0,-1.649999976158142,39.64198684692383,0,
 41922,-0.66259765625,-0.021240234375,-0.796875,-38.658538818359375,11.432927131652832,1.8597561120986938,12.899999618530273,-52.650001525878906,-0.75,39.64198684692383,0,
 41932,-0.601806640625,-0.016845703125,-0.869140625,-42.256099700927734,9.085366249084473,1.5243902206420898,12.600000381469727,-52.650001525878906,-0.75,39.737831115722656,0,
 41952,-0.491943359375,-0.021728515625,-1.076904296875,-27.89634132385254,-16.25,4.5731706619262695,12.149999618530273,-55.04999923706055,-1.7999999523162842,39.49821853637695,0,
 41962,-0.4677734375,-0.078369140625,-1.1884765625,-13.90243911743164,-40.09146499633789,8.47560977935791,10.949999809265137,-53.400001525878906,-1.0499999523162842,39.546142578125,0,
 41972,-0.4873046875,-0.1728515625,-1.2412109375,-8.567073822021484,-65.9756088256836,15.396342277526855,11.550000190734863,-52.04999923706055,-1.649999976158142,39.546142578125,0,
 41982,-0.496337890625,-0.15234375,-1.23193359375,-15.335366249084473,-92.53048706054688,22.225610733032227,11.550000190734863,-52.04999923706055,-1.649999976158142,39.64198684692383,0,
 41992,-0.52587890625,-0.050537109375,-1.224853515625,-27.408536911010742,-118.04878234863281,28.53658676147461,12.899999618530273,-54.599998474121094,-2.25,39.546142578125,0,
 42002,-0.6376953125,0.0029296875,-1.18017578125,-25.091463088989258,-144.84756469726562,31.920732498168945,11.699999809265137,-52.20000076293945,-1.5,39.689910888671875,0,
 42012,-0.747802734375,-0.009521484375,-1.065673828125,-9.390244483947754,-164.96951293945312,33.475608825683594,13.050000190734863,-53.25,-2.4000000953674316,39.64198684692383,0,
 42032,-0.80517578125,0.109130859375,-0.8642578125,11.341464042663574,-197.59146118164062,40.30487823486328,14.699999809265137,-54.0,-2.700000047683716,39.737831115722656,0,
 42042,-0.947998046875,0.157958984375,-0.751220703125,41.03658676147461,-203.84146118164062,42.07317352294922,13.050000190734863,-55.20000076293945,-3.9000000953674316,40.025367736816406,0,
 42163,-0.722900390625,0.178466796875,-0.143310546875,57.835365295410156,211.18902587890625,-31.981708526611328,13.800000190734863,-53.54999923706055,-4.199999809265137,39.64198684692383,0,
 42173,-0.524169921875,0.09814453125,-0.2421875,98.59756469726562,197.34756469726562,-47.28658676147461,12.0,-51.599998474121094,0.15000000596046448,39.737831115722656,0,
 42183,-0.214111328125,-0.0517578125,-0.15283203125,107.83536529541016,187.6219482421875,-52.80487823486328,11.699999809265137,-51.0,0.30000001192092896,39.689910888671875,0,
 42193,0.135009765625,-0.593505859375,-0.0078125,80.57926940917969,169.69512939453125,-61.40243911743164,10.949999809265137,-51.0,1.0499999523162842,39.64198684692383,0,
 42203,0.26123046875,-0.08203125,-0.01708984375,-37.682926177978516,144.8780517578125,-13.04878044128418,10.949999809265137,-51.0,1.0499999523162842,39.450294494628906,0,
 42213,0.124755859375,0.119140625,-0.25048828125,-74.54268646240234,106.37195587158203,-43.780487060546875,10.800000190734863,-50.099998474121094,1.649999976158142,39.737831115722656,0,
 42223,0.042724609375,0.23583984375,-0.167724609375,17.89634132385254,58.99390411376953,-32.560977935791016,9.899999618530273,-50.70000076293945,1.0499999523162842,39.689910888671875,0,
 42233,0.04150390625,-0.052001953125,-0.013671875,93.32317352294922,40.82317352294922,-32.13414764404297,8.699999809265137,-49.5,1.5,39.689910888671875,0,
 42243,0.119140625,-0.165283203125,0.190185546875,39.57317352294922,37.59146499633789,-27.378049850463867,8.699999809265137,-49.5,1.5,39.689910888671875,0,
 42253,0.221435546875,0.052001953125,0.081787109375,-61.70731735229492,30.18292808532715,-19.329269409179688,8.699999809265137,-48.29999923706055,1.0499999523162842,39.64198684692383,0,
 42263,0.41552734375,0.1962890625,0.099365234375,-68.2317123413086,8.109756469726562,-14.969512939453125,8.850000381469727,-51.150001525878906,1.9500000476837158,39.689910888671875,0,
 42273,0.66796875,0.181884765625,0.324462890625,-40.060977935791016,-28.719512939453125,-17.957317352294922,10.649999618530273,-51.75,1.7999999523162842,39.737831115722656,0,
 42283,1.14892578125,0.045654296875,0.42529296875,-32.5,-64.8780517578125,-17.012195587158203,10.649999618530273,-51.75,1.7999999523162842,39.737831115722656,0,
 42313,-0.076416015625,0.041259765625,-0.00732421875,-14.817073822021484,-254.90853881835938,40.7621955871582,12.149999618530273,-49.79999923706055,0.0,39.737831115722656,0,
 42323,-0.2890625,-0.076904296875,-0.14013671875,38.871952056884766,-269.7865905761719,40.57926940917969,13.050000190734863,-50.849998474121094,0.15000000596046448,39.689910888671875,0,
 42333,-8.0,-7.853759765625,-7.999755859375,-22.98780632019043,-247.74391174316406,58.44512176513672,13.050000190734863,-50.849998474121094,0.15000000596046448,39.689910888671875,0,
 42363,-0.211181640625,1.22021484375,-0.461669921875,-258.1402587890625,175.2134246826172,132.65243530273438,10.199999809265137,-51.75,1.0499999523162842,39.88159942626953,0,
 42463,-1.168701171875,0.165771484375,-0.008544921875,189.81707763671875,-88.75,-2.7439024448394775,11.25,-52.04999923706055,-3.1500000953674316,39.546142578125,0,
 42473,-1.186279296875,0.09423828125,0.215576171875,180.48780822753906,-35.3658561706543,-20.426830291748047,14.25,-52.349998474121094,-0.8999999761581421,39.450294494628906,0,
 42483,-1.20703125,0.216552734375,0.275390625,36.09756088256836,63.963417053222656,-46.95122146606445,13.050000190734863,-52.79999923706055,-0.8999999761581421,39.737831115722656,0,
 42513,-0.86328125,-0.31494140625,-0.41455078125,75.51829528808594,108.14024353027344,-67.80487823486328,14.25,-48.0,0.15000000596046448,39.689910888671875,0,
 42533,-0.64404296875,-0.536865234375,-0.81787109375,-111.006103515625,104.7256088256836,-1.1280487775802612,14.100000381469727,-49.04999923706055,0.0,39.689910888671875,0,
 42543,-0.646240234375,-0.447021484375,-0.9072265625,-197.43902587890625,100.8536605834961,13.20121955871582,14.100000381469727,-49.04999923706055,0.0,39.546142578125,0,
 42553,-0.555419921875,-0.328369140625,-0.98681640625,-303.68902587890625,104.08536529541016,13.567073822021484,12.149999618530273,-51.45000076293945,-0.75,39.546142578125,0,
 42563,-0.55322265625,-0.327880859375,-1.29052734375,-380.1219482421875,111.006103515625,29.725610733032227,13.800000190734863,-54.0,-1.2000000476837158,39.64198684692383,0,
 42583,-0.1708984375,0.901611328125,-1.451904296875,-98.20122528076172,-38.38414764404297,-3.1097562313079834,12.75,-53.25,-1.9500000476837158,39.737831115722656,0,
 42593,-0.617431640625,0.851318359375,-0.95703125,124.35975646972656,-60.0,17.286584854125977,12.0,-55.650001525878906,-3.450000047683716,39.546142578125,0,
 42603,-0.5810546875,-0.03955078125,-0.8994140625,56.82926940917969,-66.61585235595703,14.085366249084473,12.600000381469727,-53.849998474121094,-2.25,39.64198684692383,0,
 42613,-0.727783203125,-0.046630859375,-0.646240234375,-0.4268292784690857,-53.07926940917969,0.27439025044441223,12.75,-53.54999923706055,-1.2000000476837158,39.737831115722656,0,
 42633,-0.74560546875,0.24853515625,-0.627197265625,117.98780822753906,-58.719512939453125,-2.865853786468506,11.550000190734863,-53.54999923706055,-2.4000000953674316,39.689910888671875,0,
 42643,-0.7939453125,0.113037109375,-0.56689453125,155.15243530273438,-56.219512939453125,-1.9817073345184326,11.699999809265137,-52.95000076293945,-2.549999952316284,39.64198684692383,0,
 42663,-0.841796875,-0.152099609375,-0.470458984375,15.091464042663574,8.59756088256836,-5.121951103210449,13.050000190734863,-52.04999923706055,-4.949999809265137,39.737831115722656,0,
 42673,-0.804931640625,0.064208984375,-0.62841796875,-42.103660583496094,32.04268264770508,-1.585365891456604,13.050000190734863,-52.04999923706055,-4.949999809265137,39.88159942626953,0,
 42683,-0.745361328125,0.118896484375,-0.697021484375,-22.865854263305664,34.84756088256836,-3.3841464519500732,12.0,-54.0,-1.2000000476837158,39.64198684692383,0,
 42693,-0.736572265625,0.06005859375,-0.708251953125,12.743903160095215,29.60365867614746,-2.7134146690368652,12.0,-52.04999923706055,-2.4000000953674316,39.546142578125,0,
 42703,-0.715576171875,0.009765625,-0.752685546875,26.829269409179688,29.268293380737305,-4.02439022064209,12.0,-54.45000076293945,-1.9500000476837158,39.737831115722656,0,
 42713,-0.68359375,0.076416015625,-0.8369140625,25.121952056884766,29.84756088256836,-6.5853657722473145,12.0,-54.45000076293945,-1.9500000476837158,39.64198684692383,0,
 42723,-0.655029296875,-0.0771484375,-0.85888671875,42.22561264038086,21.95121955871582,-14.146341323852539,13.5,-54.0,-1.649999976158142,39.88159942626953,0,
 42733,-0.664794921875,0.00439453125,-0.829345703125,23.109756469726562,19.14634132385254,2.1341464519500732,10.949999809265137,-54.150001525878906,-1.0499999523162842,39.737831115722656,0,
 42743,-0.6416015625,0.062255859375,-0.87060546875,11.280488014221191,15.945122718811035,-0.24390244483947754,11.699999809265137,-53.849998474121094,-1.0499999523162842,39.35445022583008,0,
 42753,-0.67041015625,0.045654296875,-0.848388671875,25.54878044128418,5.152439117431641,-2.0426828861236572,11.25,-53.25,-0.15000000596046448,39.737831115722656,0,
 42773,-0.71533203125,-0.082763671875,-0.68359375,-4.329268455505371,5.762195110321045,-0.4878048896789551,12.600000381469727,-52.95000076293945,-3.299999952316284,39.737831115722656,0,
 42783,-0.728271484375,-0.000244140625,-0.7158203125,-44.63414764404297,15.731707572937012,1.9817073345184326,12.600000381469727,-53.400001525878906,-0.30000001192092896,39.64198684692383,0,
 42793,-0.739501953125,0.051513671875,-0.70166015625,-50.73170852661133,20.365854263305664,2.0731706619262695,12.600000381469727,-54.150001525878906,-1.0499999523162842,39.49821853637695,0,
 42873,-0.478759765625,-0.1533203125,-1.2822265625,-1.4939024448394775,-61.34146499633789,7.896341800689697,12.300000190734863,-52.349998474121094,-3.450000047683716,39.737831115722656,0,
 42883,-0.438720703125,-0.047607421875,-1.3115234375,-26.73780632019043,-88.38414764404297,13.810976028442383,11.399999618530273,-53.849998474121094,-1.0499999523162842,39.737831115722656,0,
 42944,-0.94287109375,0.2216796875,-0.709716796875,23.90243911743164,-217.46951293945312,26.920732498168945,14.699999809265137,-54.45000076293945,-4.199999809265137,39.83367919921875,0,
 42974,-2.3134765625,0.778564453125,-0.052978515625,211.03659057617188,-129.84756469726562,6.52439022064209,14.850000381469727,-54.150001525878906,-5.550000190734863,39.737831115722656,0,
 43074,-0.531494140625,0.1337890625,-0.191162109375,60.42683029174805,153.8719482421875,-23.323171615600586,13.649999618530273,-51.0,-3.75,39.64198684692383,0,
 43084,-0.37158203125,-0.0302734375,-0.252197265625,79.57317352294922,142.7134246826172,-42.92683029174805,12.300000190734863,-52.79999923706055,-1.2000000476837158,39.35445022583008,0,
 43094,-0.288818359375,-0.0859375,-0.1337890625,58.14024353027344,134.26829528808594,-50.94512176513672,10.5,-50.400001525878906,-0.8999999761581421,39.546142578125,0,
 43104,0.16162109375,-0.169921875,-0.021240234375,-19.14634132385254,127.74390411376953,-17.34756088256836,10.5,-50.400001525878906,-0.8999999761581421,39.689910888671875,0,
 43124,0.095703125,0.138671875,-0.190673828125,2.0731706619262695,54.756099700927734,-50.45731735229492,10.199999809265137,-51.0,1.7999999523162842,39.977447509765625,0,
 43134,0.020263671875,-0.059814453125,-0.0166015625,59.39024353027344,25.426830291748047,-38.53658676147461,10.199999809265137,-51.0,2.25,39.64198684692383,0,
 43144,0.135498046875,-0.209228515625,0.107421875,18.90243911743164,26.920732498168945,-36.67683029174805,10.199999809265137,-51.0,2.25,39.35445022583008,0,
 43154,0.117919921875,-0.035400390625,-0.018310546875,-69.57317352294922,22.7439022064209,-23.170732498168945,10.649999618530273,-51.45000076293945,0.30000001192092896,39.88159942626953,0,
 43164,0.222412109375,0.147216796875,-0.0078125,-88.75,8.59756088256836,-12.195121765136719,11.550000190734863,-50.400001525878906,1.649999976158142,39.83367919921875,0,
 43284,0.825927734375,1.902587890625,-1.053955078125,-438.8414611816406,-58.78049087524414,-17.591463088989258,10.050000190734863,-54.45000076293945,-1.9500000476837158,39.450294494628906,0,
 43294,-0.925048828125,0.131591796875,-0.8037109375,5.152439117431641,-203.78048706054688,-26.158536911010742,10.050000190734863,-54.75,-0.44999998807907104,39.64198684692383,0,
 43304,-0.627197265625,-0.304931640625,-0.6787109375,72.2256088256836,-157.01219177246094,55.73170852661133,10.649999618530273,-54.599998474121094,-1.5,39.689910888671875,0,
 43314,-1.244140625,0.19384765625,-0.471923828125,-40.82317352294922,-189.26829528808594,-54.20731735229492,12.149999618530273,-55.04999923706055,-3.299999952316284,39.689910888671875,0,
 43324,-0.4267578125,0.058837890625,-0.638427734375,82.3780517578125,-151.9207305908203,-7.134146690368652,10.800000190734863,-54.75,-2.4000000953674316,39.689910888671875,0,
 43354,-0.964111328125,0.01953125,-0.275390625,251.6768341064453,-149.756103515625,18.079269409179688,12.899999618530273,-54.150001525878906,-3.299999952316284,39.64198684692383,0,
 43364,-1.1474609375,-0.0361328125,-0.050048828125,246.98171997070312,-116.73780822753906,-4.146341323852539,12.899999618530273,-54.150001525878906,-3.299999952316284,39.64198684692383,0,
 43374,-1.228515625,-0.1298828125,0.189453125,182.40853881835938,-46.280487060546875,-22.408536911010742,13.5,-52.79999923706055,-2.700000047683716,39.546142578125,0,
 43504,-0.581298828125,-0.01171875,-0.8623046875,66.34146118164062,-60.274391174316406,5.670732021331787,12.149999618530273,-54.599998474121094,-1.5,39.689910888671875,0,
 43524,-0.811279296875,0.106689453125,-0.649169921875,26.64634132385254,-37.103660583496094,-6.128048896789551,12.75,-54.75,-1.9500000476837158,39.450294494628906,0,
 43534,-0.71484375,0.14794921875,-0.667236328125,84.05487823486328,-44.29878234863281,-2.103658676147461,12.75,-54.75,-1.9500000476837158,39.689910888671875,0,
 43544,-0.775390625,0.082275390625,-0.605712890625,112.83536529541016,-41.585365295410156,-1.2804877758026123,12.899999618530273,-54.599998474121094,-3.0,39.83367919921875,0,
 43554,-0.88720703125,-0.076416015625,-0.5205078125,74.23780822753906,-16.859756469726562,-2.5304877758026123,11.699999809265137,-53.849998474121094,-2.549999952316284,39.546142578125,0,
 43584,-0.72509765625,0.135498046875,-0.712646484375,-6.189024448394775,24.817073822021484,-0.9451219439506531,11.699999809265137,-51.75,-2.25,39.83367919921875,0,
 43604,-0.668701171875,0.042724609375,-0.8212890625,25.792682647705078,24.05487823486328,-6.493902683258057,12.899999618530273,-52.95000076293945,-0.75,39.689910888671875,0,
 43624,-0.629150390625,0.01416015625,-0.87744140625,27.7439022064209,11.432927131652832,0.6097561120986938,13.050000190734863,-53.25,-0.8999999761581421,39.450294494628906,0,
 43634,-0.62158203125,0.055419921875,-0.891357421875,26.219512939453125,4.481707572937012,-1.7987805604934692,11.699999809265137,-53.400001525878906,-1.5,39.88159942626953,0,
 43644,-0.630615234375,0.033203125,-0.87548828125,41.280487060546875,-5.304878234863281,-2.2865853309631348,11.699999809265137,-52.95000076293945,-1.0499999523162842,39.88159942626953,0,
 43654,-0.669189453125,-0.05029296875,-0.77978515625,46.85975646972656,-13.810976028442383,-0.792682945728302,11.699999809265137,-52.650001525878906,-2.25,39.64198684692383,0,
 43684,-0.72314453125,0.033203125,-0.741455078125,-42.28658676147461,1.3109756708145142,2.7134146690368652,10.800000190734863,-53.25,-0.44999998807907104,39.737831115722656,0,
 43694,-0.732421875,0.021240234375,-0.7080078125,-36.03658676147461,3.47560977935791,1.920731782913208,13.5,-52.349998474121094,-1.9500000476837158,39.88159942626953,0,
 43704,-0.74267578125,0.011962890625,-0.6875,-34.17683029174805,7.286585330963135,1.1585365533828735,13.5,-52.349998474121094,-1.9500000476837158,39.689910888671875,0,
 43714,-0.7509765625,0.0400390625,-0.694580078125,-37.74390411376953,12.317073822021484,0.6097561120986938,11.399999618530273,-54.150001525878906,-1.0499999523162842,39.737831115722656,0,
 43735,-0.675537109375,0.072509765625,-0.751953125,-23.871952056884766,17.987804412841797,-1.6463414430618286,11.399999618530273,-52.20000076293945,-1.0499999523162842,39.64198684692383,0,
 43745,-0.592529296875,0.02685546875,-0.889892578125,-7.652439117431641,14.634146690368652,-3.5975611209869385,12.600000381469727,-53.849998474121094,-2.25,39.64198684692383,0,
 43795,-0.395751953125,-0.100341796875,-1.364990234375,-29.60365867614746,-93.68902587890625,14.57317066192627,13.649999618530273,-53.849998474121094,-2.25,39.64198684692383,0,
 43815,-0.5625,-0.016357421875,-1.375,-37.28658676147461,-167.6219482421875,23.59756088256836,12.75,-53.54999923706055,-3.1500000953674316,39.977447509765625,0,
 43825,-0.739013671875,0.025146484375,-1.2490234375,-42.0121955871582,-190.7012176513672,23.170732498168945,12.899999618530273,-53.849998474121094,-3.0,39.737831115722656,0,
 43865,-1.20654296875,0.31005859375,-0.442626953125,46.067073822021484,-266.55487060546875,33.20122146606445,12.600000381469727,-53.849998474121094,-4.050000190734863,39.49821853637695,0,
 43875,-1.493896484375,0.55712890625,0.003173828125,57.3780517578125,-272.8658752441406,17.83536720275879,15.0,-55.20000076293945,-4.949999809265137,39.737831115722656,0,
 43885,-2.500732421875,0.746337890625,0.086669921875,279.57318115234375,-169.96951293945312,-7.0731706619262695,15.0,-55.20000076293945,-4.949999809265137,39.689910888671875,0,
 43915,-1.595703125,-0.644775390625,0.108642578125,-29.08536720275879,156.5853729248047,-47.59146499633789,15.75,-52.04999923706055,-6.449999809265137,39.30652618408203,0,
 43925,-0.995849609375,-0.10009765625,-0.117919921875,-118.75,177.8353729248047,-10.243902206420898,15.75,-52.04999923706055,-6.449999809265137,39.737831115722656,0,
 43975,-0.525390625,0.04931640625,0.0224609375,45.0,166.34146118164062,-12.62195110321045,12.75,-53.54999923706055,-1.649999976158142,39.64198684692383,0,
 43985,-0.2783203125,0.1298828125,-0.086669921875,92.1036605834961,150.15243530273438,-31.676830291748047,13.350000381469727,-50.25,-0.75,39.83367919921875,0,
 43995,-0.037353515625,-0.067626953125,-0.06982421875,111.1280517578125,123.56707763671875,-45.57926940917969,13.050000190734863,-50.849998474121094,-2.700000047683716,39.83367919921875,0,
 44005,0.0556640625,-0.2666015625,0.057861328125,36.067073822021484,96.95122528076172,-6.95121955871582,13.649999618530273,-51.45000076293945,-1.5,39.64198684692383,0,
 44025,0.07958984375,0.23388671875,-0.1796875,-52.28658676147461,56.34146499633789,-16.737804412841797,11.399999618530273,-50.70000076293945,0.0,39.88159942626953,0,
 44035,0.023193359375,0.114013671875,-0.0927734375,68.14024353027344,11.310976028442383,-30.39634132385254,12.899999618530273,-51.0,1.0499999523162842,39.35445022583008,0,
 44045,-0.017333984375,-0.142822265625,0.1298828125,111.28048706054688,-7.804878234863281,-26.25,10.800000190734863,-50.099998474121094,-0.15000000596046448,39.83367919921875,0,
 44055,0.074951171875,-0.211181640625,0.2841796875,14.939024925231934,-0.24390244483947754,-23.44512176513672,10.800000190734863,-50.099998474121094,-0.15000000596046448,39.689910888671875,0,
 44065,0.07861328125,0.058837890625,-0.01171875,-105.1524429321289,10.396341323852539,-11.981707572937012,12.75,-50.400001525878906,1.2000000476837158,39.35445022583008,0,
 44075,0.089111328125,0.22705078125,-0.07080078125,-119.6036605834961,-3.3231709003448486,0.3353658616542816,12.0,-50.849998474121094,0.44999998807907104,39.64198684692383,0,
 44095,0.11669921875,0.166015625,0.01220703125,-52.774391174316406,-19.481708526611328,-0.030487805604934692,12.75,-50.099998474121094,-0.44999998807907104,39.737831115722656,0,
 44115,0.253662109375,0.093505859375,0.08984375,-45.79268264770508,-36.310977935791016,14.45121955871582,13.050000190734863,-51.599998474121094,-0.44999998807907104,39.450294494628906,0,
 44215,1.405517578125,-0.009521484375,-3.391357421875,-113.68902587890625,-9.115854263305664,-105.0,8.550000190734863,-54.45000076293945,1.2000000476837158,39.450294494628906,0,
 44225,0.31103515625,0.521240234375,-1.282470703125,-138.10975646972656,-137.3780517578125,48.99390411376953,8.550000190734863,-54.45000076293945,1.2000000476837158,39.689910888671875,0,
 44265,-0.708984375,0.0263671875,-0.519287109375,108.26219940185547,-169.4207305908203,11.95121955871582,10.649999618530273,-56.099998474121094,-1.5,39.49821853637695,0,
 44275,-0.796875,0.306884765625,-0.52001953125,140.91464233398438,-164.02439880371094,-0.4573170840740204,10.050000190734863,-52.79999923706055,-1.9500000476837158,39.689910888671875,0,
 44285,-0.873779296875,0.388427734375,-0.43603515625,247.04269409179688,-162.5,-5.121951103210449,11.399999618530273,-55.04999923706055,-3.0,39.64198684692383,0,
 44596,-0.71240234375,-0.068115234375,-0.702392578125,47.774391174316406,-23.963415145874023,0.8536585569381714,10.800000190734863,-52.349998474121094,-1.2000000476837158,39.546142578125,0,
 44626,-0.72802734375,0.0322265625,-0.736572265625,-55.18292999267578,10.091464042663574,5.365853786468506,11.399999618530273,-54.150001525878906,-1.0499999523162842,39.64198684692383,0,
 44636,-0.714599609375,0.02880859375,-0.742431640625,-46.432926177978516,13.231707572937012,3.8109757900238037,10.800000190734863,-54.45000076293945,-1.649999976158142,39.88159942626953,0,
 44666,-0.547607421875,0.038818359375,-0.93701171875,-52.9878044128418,12.957317352294922,-0.396341472864151,12.0,-54.45000076293945,-1.9500000476837158,39.737831115722656,0,
 44746,-0.712646484375,0.110595703125,-1.0,-23.871952056884766,-197.56097412109375,24.45121955871582,13.050000190734863,-54.0,-2.4000000953674316,39.689910888671875,0,
 44786,-1.378662109375,0.46923828125,-0.141845703125,49.20731735229492,-228.0487823486328,24.29878044128418,15.149999618530273,-52.95000076293945,-4.800000190734863,39.689910888671875,0,
 44796,-1.878173828125,0.692138671875,0.010498046875,172.6829376220703,-159.39024353027344,3.6890244483947754,15.899999618530273,-53.849998474121094,-6.0,39.49821853637695,0,
 44806,-2.77880859375,0.380615234375,-0.5009765625,276.25,-65.67073059082031,-32.682926177978516,14.850000381469727,-53.849998474121094,-6.0,39.83367919921875,0,
 44816,-2.128173828125,-0.330078125,-0.3857421875,215.8841552734375,37.34756088256836,-59.26829528808594,17.549999237060547,-51.75,-6.75,39.737831115722656,0,
 44826,-1.743408203125,-0.552490234375,0.079833984375,44.42073440551758,132.0426788330078,-55.18292999267578,17.549999237060547,-51.75,-6.75,39.64198684692383,0,
 44836,-1.108642578125,-0.2998046875,0.0908203125,-100.33536529541016,185.6707305908203,-20.2439022064209,15.449999809265137,-51.150001525878906,-3.450000047683716,39.977447509765625,0,
 44866,-0.70947265625,0.505859375,-0.317626953125,86.18902587890625,192.98780822753906,-12.957317352294922,14.399999618530273,-52.20000076293945,-4.5,39.737831115722656,0,
 44886,-0.623291015625,0.052490234375,0.011962890625,10.884146690368652,203.32318115234375,-2.1341464519500732,12.899999618530273,-52.650001525878906,-2.549999952316284,39.737831115722656,0,
 44896,-0.36962890625,0.15966796875,-0.103515625,50.213417053222656,190.15245056152344,-12.987805366516113,13.350000381469727,-52.95000076293945,-1.0499999523162842,39.49821853637695,0,
 44926,-0.0439453125,-0.56396484375,0.039794921875,-10.030488014221191,108.20122528076172,28.53658676147461,11.25,-52.79999923706055,-0.15000000596046448,39.64198684692383,0,
 44936,-0.02392578125,0.07421875,-0.197021484375,-60.97561264038086,95.06097412109375,-1.5548781156539917,10.949999809265137,-50.25,0.75,39.737831115722656,0,
 44946,-0.12060546875,0.134765625,-0.266357421875,12.77439022064209,54.35975646972656,-26.0060977935791,9.899999618530273,-50.70000076293945,1.0499999523162842,39.450294494628906,0,
 44956,-0.222900390625,-0.052490234375,-0.095458984375,103.41463470458984,21.79878044128418,-30.579269409179688,9.899999618530273,-50.70000076293945,1.0499999523162842,39.83367919921875,0,
 44966,-0.095947265625,-0.296875,0.1806640625,86.46341705322266,29.08536720275879,-42.34756088256836,9.600000381469727,-51.150001525878906,1.2000000476837158,39.546142578125,0,
 44976,0.05810546875,-0.171875,0.05859375,-22.621952056884766,41.82926940917969,-36.219512939453125,9.449999809265137,-50.70000076293945,1.0499999523162842,39.83367919921875,0,
 45006,0.237548828125,0.16943359375,0.133056640625,-45.274391174316406,3.5060975551605225,-19.237804412841797,10.800000190734863,-50.099998474121094,-0.44999998807907104,39.64198684692383,0,
 45016,0.455078125,0.124267578125,0.22607421875,-31.707317352294922,-15.792683601379395,-18.628049850463867,11.550000190734863,-51.599998474121094,-1.649999976158142,39.88159942626953,0,
 45026,0.693359375,0.1123046875,0.273681640625,-28.93292808532715,-38.810977935791016,-15.304878234863281,10.050000190734863,-50.400001525878906,-2.700000047683716,39.88159942626953,0,
 45036,0.64501953125,-0.06640625,-0.0419921875,-24.29878044128418,-82.83536529541016,-8.109756469726562,10.800000190734863,-53.54999923706055,0.15000000596046448,39.689910888671875,0,
 45046,0.071044921875,0.110107421875,-0.10498046875,-45.09146499633789,-155.76219177246094,31.829269409179688,10.800000190734863,-53.54999923706055,0.15000000596046448,39.546142578125,0,
 45066,-8.0,3.383056640625,2.543701171875,-394.20733642578125,180.0,-11.067073822021484,13.050000190734863,-53.25,-0.44999998807907104,39.83367919921875,0,
 45076,7.360107421875,-5.388427734375,-0.25390625,998.993896484375,999.0244140625,-465.6402587890625,11.399999618530273,-53.400001525878906,-1.5,39.737831115722656,0,
 45086,-0.020263671875,1.08740234375,-3.608154296875,-999.0244140625,-564.4512329101562,336.006103515625,11.399999618530273,-53.400001525878906,-1.5,39.83367919921875,0,
 45126,-0.59326171875,-0.55810546875,-0.357421875,125.88414764404297,-177.43902587890625,48.29268264770508,8.699999809265137,-57.0,-3.75,39.64198684692383,0,
 45136,-1.45068359375,0.302734375,-0.5341796875,-55.30487823486328,-215.91464233398438,-32.92683029174805,8.699999809265137,-57.0,-3.75,39.88159942626953,0,
 45146,-0.45947265625,-0.0986328125,-0.642333984375,38.23170852661133,-152.65243530273438,-16.55487823486328,10.5,-55.20000076293945,-2.4000000953674316,39.49821853637695,0,
 45156,-0.700927734375,0.255859375,-0.47900390625,58.10975646972656,-174.51219177246094,-18.109756469726562,11.550000190734863,-54.75,-1.2000000476837158,39.737831115722656,0,
 45166,-0.792236328125,0.21826171875,-0.48388671875,151.25,-167.31707763671875,-6.036585330963135,12.149999618530273,-56.099998474121094,-1.7999999523162842,39.64198684692383,0,
 45176,-0.82568359375,-0.12841796875,-0.135498046875,236.09756469726562,-150.1829376220703,15.853658676147461,12.149999618530273,-56.099998474121094,-1.7999999523162842,39.689910888671875,0,
 45186,-1.2822265625,-0.034423828125,-0.033935546875,198.3841552734375,-115.51829528808594,26.64634132385254,11.550000190734863,-52.349998474121094,-2.4000000953674316,39.689910888671875,0,
 45196,-1.255615234375,-0.191650390625,0.196533203125,139.5426788330078,-54.5121955871582,-23.658536911010742,14.100000381469727,-52.20000076293945,-0.75,39.49821853637695,0,
 45206,-1.073486328125,0.055908203125,0.0068359375,29.45121955871582,7.012195110321045,-19.78658676147461,13.800000190734863,-51.150001525878906,-0.8999999761581421,39.49821853637695,0,
 45216,-1.055908203125,0.452880859375,-0.375244140625,-38.353660583496094,32.19512176513672,-18.59756088256836,13.800000190734863,-51.150001525878906,-0.8999999761581421,39.64198684692383,0,
 45226,-0.90771484375,0.10546875,-0.505126953125,144.35975646972656,58.353660583496094,-43.17073440551758,15.75,-51.599998474121094,-2.4000000953674316,39.546142578125,0,
 45236,-0.743896484375,-0.3896484375,-0.524658203125,54.84756088256836,71.03659057617188,-32.65243911743164,14.399999618530273,-49.79999923706055,-1.7999999523162842,39.49821853637695,0,
 45256,-0.69970703125,-0.28466796875,-0.817626953125,-81.21951293945312,69.45121765136719,6.036585330963135,12.600000381469727,-49.04999923706055,-0.30000001192092896,39.689910888671875,0,
 45266,-0.65234375,-0.3271484375,-0.96240234375,-156.9207305908203,68.56707763671875,11.829268455505371,12.600000381469727,-49.04999923706055,-0.30000001192092896,39.64198684692383,0,
 45296,-0.51904296875,0.308349609375,-1.04052734375,-253.1707305908203,46.7378044128418,7.286585330963135,12.899999618530273,-52.95000076293945,-1.0499999523162842,39.64198684692383,0,
 45307,-0.38818359375,0.67236328125,-1.365966796875,-25.274391174316406,-36.98170852661133,9.603658676147461,12.899999618530273,-52.95000076293945,-1.0499999523162842,39.64198684692383,0,
 45327,-0.681884765625,-0.076416015625,-0.683349609375,22.7439022064209,-44.26829528808594,4.634146213531494,11.550000190734863,-52.79999923706055,-2.700000047683716,39.737831115722656,0,
 45347,-0.753173828125,0.2021484375,-0.651611328125,40.335365295410156,-31.676830291748047,-4.512195110321045,11.399999618530273,-52.95000076293945,-2.25,39.737831115722656,0,
 45357,-0.722900390625,0.14306640625,-0.65576171875,88.41463470458984,-37.9878044128418,-0.5487805008888245,11.25,-53.54999923706055,-1.649999976158142,39.546142578125,0,
 45367,-0.82373046875,0.034423828125,-0.5791015625,90.30487823486328,-28.35365867614746,-3.658536672592163,12.149999618530273,-53.400001525878906,-1.5,39.83367919921875,0,
 45377,-0.85986328125,-0.123291015625,-0.508056640625,35.73170852661133,-2.7439024448394775,-3.3231709003448486,12.149999618530273,-53.400001525878906,-2.549999952316284,39.546142578125,0,
 45387,-0.769775390625,0.04248046875,-0.657470703125,-25.060976028442383,18.963415145874023,0.09146341681480408,12.600000381469727,-53.849998474121094,-2.25,39.546142578125,0,
 45407,-0.731201171875,0.052490234375,-0.710205078125,11.737805366516113,17.19512176513672,-0.12195122241973877,14.100000381469727,-53.400001525878906,-1.5,39.737831115722656,0,
 45417,-0.701904296875,0.025634765625,-0.755615234375,16.128049850463867,18.109756469726562,-1.8902438879013062,12.600000381469727,-53.849998474121094,-2.25,39.689910888671875,0,
 45427,-0.66259765625,0.01953125,-0.815673828125,13.59756088256836,17.2560977935791,-3.9024391174316406,12.149999618530273,-52.95000076293945,-1.0499999523162842,39.737831115722656,0,
 45447,-0.64404296875,0.076171875,-0.886962890625,26.707317352294922,4.603658676147461,-1.7682926654815674,12.600000381469727,-52.95000076293945,-1.5,39.689910888671875,0,
 45457,-0.648193359375,0.04248046875,-0.87109375,46.76829528808594,-6.829268455505371,-2.5609755516052246,11.399999618530273,-52.650001525878906,-2.549999952316284,39.64198684692383,0,
 45467,-0.690185546875,-0.033447265625,-0.7978515625,56.92073440551758,-16.4939022064209,-1.402438998222351,13.350000381469727,-52.95000076293945,-0.75,39.737831115722656,0,
 45477,-0.719970703125,-0.10302734375,-0.692626953125,35.853660583496094,-14.207317352294922,1.097561001777649,13.350000381469727,-52.95000076293945,-0.75,39.737831115722656,0,
 45537,-0.75,0.066650390625,-0.69775390625,-39.45122146606445,14.085366249084473,0.4573170840740204,10.800000190734863,-53.54999923706055,-2.4000000953674316,39.30652618408203,0,
 45547,-0.758544921875,0.09765625,-0.694580078125,-30.18292808532715,16.036584854125977,-1.0670732259750366,12.0,-53.25,-1.649999976158142,39.64198684692383,0,
 45567,-0.667236328125,-0.02880859375,-0.775146484375,10.82317066192627,14.085366249084473,-2.8353660106658936,12.75,-52.79999923706055,-0.8999999761581421,39.64198684692383,0,
 45577,-0.56640625,-0.091796875,-1.02294921875,4.2682929039001465,12.408536911010742,-1.8597561120986938,11.399999618530273,-53.400001525878906,-0.75,39.83367919921875,0,
 45587,-0.486083984375,-0.01611328125,-1.080078125,-18.567073822021484,0.12195122241973877,2.012195110321045,13.350000381469727,-53.849998474121094,-1.5,39.30652618408203,0,
 45597,-0.490966796875,-0.054443359375,-1.28271484375,-21.707317352294922,-18.5060977935791,4.603658676147461,12.600000381469727,-53.849998474121094,-1.0499999523162842,39.689910888671875,0,
 45607,-0.4013671875,-0.12353515625,-1.3515625,-26.0060977935791,-48.59756088256836,7.987804889678955,12.600000381469727,-53.849998474121094,-1.0499999523162842,39.64198684692383,0,
 45617,-0.48681640625,-0.150634765625,-1.322509765625,-24.481708526611328,-86.06707763671875,17.317073822021484,11.550000190734863,-53.54999923706055,-0.44999998807907104,39.689910888671875,0,
 45627,-0.546630859375,-0.220703125,-1.29833984375,-25.030488967895508,-118.20122528076172,24.817073822021484,12.75,-52.349998474121094,-1.2000000476837158,39.689910888671875,0,
 45637,-0.652099609375,-0.10888671875,-1.28173828125,-47.95731735229492,-145.48780822753906,32.43902587890625,15.0,-55.95000076293945,-3.9000000953674316,39.689910888671875,0,
 45647,-0.718017578125,-0.0068359375,-1.1455078125,-53.01829528808594,-166.18902587890625,37.225608825683594,11.699999809265137,-54.150001525878906,-2.549999952316284,39.64198684692383,0,
 45667,-0.89453125,0.17822265625,-0.843505859375,-30.426830291748047,-197.8048858642578,42.89634323120117,14.100000381469727,-53.849998474121094,-4.800000190734863,39.977447509765625,0,
 45677,-1.0478515625,0.28515625,-0.641845703125,18.20121955871582,-217.10366821289062,45.79268264770508,14.699999809265137,-54.45000076293945,-3.450000047683716,39.64198684692383,0,
 45687,-1.219482421875,0.38134765625,-0.380615234375,36.585365295410156,-231.34146118164062,42.8658561706543,11.399999618530273,-55.04999923706055,-4.5,39.546142578125,0,
 45707,-2.84375,0.6064453125,-0.55810546875,205.79269409179688,-75.30487823486328,-30.426830291748047,14.25,-53.54999923706055,-4.650000095367432,39.737831115722656,0,
 45717,-2.58642578125,-0.1875,-0.390869140625,164.26829528808594,55.94512176513672,-53.414634704589844,14.25,-54.45000076293945,-4.650000095367432,39.64198684692383,0,
 45757,-0.708740234375,0.760498046875,-0.291015625,39.29878234863281,209.4512176513672,-30.518293380737305,16.5,-53.25,-5.400000095367432,39.689910888671875,0,
 45767,-0.5478515625,0.435302734375,-0.176513671875,86.4024429321289,186.7987823486328,-29.268293380737305,13.800000190734863,-52.79999923706055,-1.649999976158142,39.64198684692383,0,
 45777,-0.510498046875,0.16015625,0.04052734375,64.23780822753906,178.53659057617188,-30.54878044128418,13.050000190734863,-53.25,-2.700000047683716,39.64198684692383,0,
 45787,-0.2998046875,0.096923828125,0.09375,75.8536605834961,157.46951293945312,-35.060977935791016,13.5,-52.349998474121094,-2.4000000953674316,39.64198684692383,0,
 45807,0.0947265625,-0.052490234375,0.056396484375,88.32317352294922,77.01219940185547,-26.43292808532715,12.300000190734863,-52.349998474121094,-1.2000000476837158,39.83367919921875,0,
 45817,-0.083984375,-0.04931640625,-0.000244140625,29.908536911010742,60.09146499633789,-16.463415145874023,12.149999618530273,-52.95000076293945,0.0,39.64198684692383,0,
 45837,-0.167724609375,0.06103515625,-0.0615234375,-37.621952056884766,49.69512176513672,-29.29878044128418,8.550000190734863,-51.150001525878906,0.44999998807907104,39.64198684692383,0,
 45847,-0.097900390625,0.09423828125,-0.087890625,70.36585235595703,14.17682933807373,-22.317073822021484,10.949999809265137,-51.45000076293945,0.0,39.546142578125,0,
 45857,-0.125,-0.1318359375,0.11328125,73.2317123413086,5.853658676147461,-28.5060977935791,12.0,-50.849998474121094,-0.44999998807907104,39.737831115722656,0,
 45867,0.032958984375,-0.070556640625,0.060302734375,-29.60365867614746,14.481707572937012,-18.719512939453125,12.0,-50.849998474121094,-0.44999998807907104,39.737831115722656,0,
 45897,0.228271484375,0.14306640625,0.087890625,-62.103660583496094,-19.08536720275879,-4.847560882568359,12.600000381469727,-52.650001525878906,0.0,39.88159942626953,0,
 45937,0.3154296875,0.149169921875,-0.058837890625,-92.53048706054688,-158.29269409179688,42.92683029174805,11.699999809265137,-51.45000076293945,-3.0,39.49821853637695,0,
 46057,-0.807861328125,0.10791015625,-0.51416015625,60.213417053222656,-137.256103515625,14.45121955871582,11.699999809265137,-53.849998474121094,-3.75,39.83367919921875,0,
 46067,-0.752197265625,0.25341796875,-0.49609375,83.96341705322266,-123.59756469726562,5.70121955871582,12.0,-54.75,-2.4000000953674316,39.49821853637695,0,
 46077,-0.8525390625,0.3037109375,-0.514404296875,172.04269409179688,-126.58536529541016,2.012195110321045,12.0,-53.25,-1.9500000476837158,39.450294494628906,0,
 46087,-1.06396484375,0.117919921875,-0.203125,279.3597717285156,-127.95732116699219,-0.7012194991111755,12.0,-53.25,-1.9500000476837158,39.689910888671875,0,
 46097,-1.14892578125,-0.073974609375,0.238525390625,245.51829528808594,-69.20732116699219,-8.445121765136719,12.899999618530273,-51.45000076293945,-1.0499999523162842,39.83367919921875,0,
 46107,-0.98828125,-0.23681640625,-0.037109375,63.414634704589844,-7.804878234863281,-22.073171615600586,12.899999618530273,-51.75,-1.5,39.689910888671875,0,
 46128,-0.866943359375,-0.009521484375,-0.49169921875,37.317073822021484,37.621952056884766,-22.073171615600586,13.050000190734863,-51.150001525878906,-0.8999999761581421,39.64198684692383,0,
 46138,-0.8369140625,-0.282470703125,-0.50341796875,-6.280488014221191,61.006099700927734,-16.371952056884766,12.600000381469727,-52.650001525878906,-0.75,39.689910888671875,0,
 46148,-0.76025390625,-0.30615234375,-0.625,-48.99390411376953,64.96951293945312,-4.847560882568359,14.25,-48.0,-1.9500000476837158,39.64198684692383,0,
 46158,-0.735595703125,-0.29833984375,-0.719970703125,-97.19512176513672,69.57317352294922,3.262195110321045,12.600000381469727,-50.25,-1.7999999523162842,39.737831115722656,0,
 46278,-0.865234375,-0.163818359375,-0.484130859375,7.865853786468506,1.7682926654815674,-3.353658676147461,11.399999618530273,-51.75,-1.0499999523162842,39.64198684692383,0,
 46288,-0.818603515625,-0.090576171875,-0.5615234375,-21.890243530273438,16.890243530273438,-2.317073106765747,12.0,-53.25,-3.1500000953674316,39.546142578125,0,
 46298,-0.773193359375,0.046630859375,-0.668212890625,1.0670732259750366,16.189023971557617,-0.5182926654815674,12.300000190734863,-54.45000076293945,-1.649999976158142,39.83367919921875,0,
 46308,-0.748046875,-0.001953125,-0.68212890625,13.506097793579102,16.310976028442383,-0.15243902802467346,13.050000190734863,-54.0,-2.4000000953674316,39.83367919921875,0,
 46318,-0.693115234375,0.026611328125,-0.768310546875,4.542683124542236,20.426830291748047,-1.0060975551605225,12.75,-54.45000076293945,-3.1500000953674316,39.450294494628906,0,
 46328,-0.674560546875,0.0263671875,-0.826904296875,12.042683601379395,16.036584854125977,-0.3048780560493469,12.600000381469727,-53.849998474121094,-2.25,39.64198684692383,0,
 46348,-0.6484375,0.04150390625,-0.85986328125,30.426830291748047,1.0060975551605225,-0.4268292784690857,11.699999809265137,-52.95000076293945,-1.0499999523162842,39.737831115722656,0,
 46358,-0.67578125,0.0068359375,-0.823486328125,38.810977935791016,-6.493902683258057,0.5487805008888245,11.550000190734863,-52.79999923706055,-4.949999809265137,39.83367919921875,0,
 46658,-0.6328125,0.226806640625,-0.056884765625,39.29878234863281,175.39634704589844,-35.39634323120117,13.350000381469727,-52.95000076293945,-4.800000190734863,39.49821853637695,0,
 46668,-0.583984375,0.11572265625,-0.057373046875,32.28658676147461,166.73780822753906,-34.78658676147461,13.649999618530273,-56.099998474121094,-4.5,39.737831115722656,0,
 46678,-0.348388671875,0.109375,-0.03173828125,47.8658561706543,146.9512176513672,-30.33536720275879,12.75,-53.849998474121094,-2.25,39.83367919921875,0,
 46688,-0.076416015625,0.046142578125,-0.078857421875,47.80487823486328,116.92073822021484,-10.182927131652832,12.75,-50.099998474121094,-3.1500000953674316,39.977447509765625,0,
 46698,-0.054443359375,0.146728515625,-0.056884765625,45.54878234863281,87.89634704589844,-10.15243911743164,12.300000190734863,-53.54999923706055,-2.4000000953674316,39.737831115722656,0,
 46708,-0.250244140625,-0.275146484375,-0.0400390625,-1.4634146690368652,81.03659057617188,17.286584854125977,11.399999618530273,-52.95000076293945,-1.0499999523162842,39.450294494628906,0,
 46718,-0.125732421875,-0.05517578125,-0.01611328125,-22.83536720275879,68.93292999267578,-8.719511985778809,10.949999809265137,-51.75,0.75,39.83367919921875,0,
 46738,-0.11328125,0.1044921875,-0.20556640625,111.61585998535156,3.47560977935791,-13.59756088256836,10.949999809265137,-52.650001525878906,-1.0499999523162842,39.689910888671875,0,
 46758,-0.083984375,-0.185546875,0.114990234375,-45.64024353027344,13.384146690368652,-14.756097793579102,11.699999809265137,-52.20000076293945,-0.30000001192092896,39.30652618408203,0,
 46788,0.50439453125,0.048828125,0.156005859375,-29.420732498168945,-45.60975646972656,-2.9573171138763428,12.300000190734863,-52.04999923706055,0.44999998807907104,39.689910888671875,0,
 46798,0.665771484375,0.02001953125,0.087890625,-54.2378044128418,-73.65853881835938,4.756097793579102,11.550000190734863,-51.150001525878906,0.44999998807907104,39.35445022583008,0,
 46808,0.3310546875,0.1044921875,-0.04248046875,-91.76829528808594,-113.65853881835938,23.75,11.699999809265137,-51.45000076293945,0.0,39.737831115722656,0,
 46818,0.082275390625,0.11376953125,-0.07470703125,-69.35975646972656,-153.0792694091797,41.85975646972656,11.699999809265137,-51.45000076293945,0.0,39.64198684692383,0,
 46868,-2.568603515625,1.677001953125,-4.86181640625,-999.0244140625,-723.1402587890625,285.0304870605469,14.100000381469727,-54.599998474121094,-4.5,39.64198684692383,0,
 46908,0.050537109375,0.869384765625,-1.142822265625,-234.81707763671875,-78.6280517578125,66.4024429321289,10.800000190734863,-54.45000076293945,-1.2000000476837158,39.49821853637695,0,
 46918,-0.73876953125,0.688720703125,-0.853515625,-151.28048706054688,-176.1280517578125,-43.75,11.25,-55.20000076293945,-2.700000047683716,39.546142578125,0,
 46938,-0.74560546875,-0.071044921875,-0.3251953125,19.63414764404297,-166.28048706054688,-9.542683601379395,9.300000190734863,-55.95000076293945,-3.1500000953674316,39.83367919921875,0,
 46948,-0.874755859375,0.502197265625,-0.447021484375,5.97560977935791,-136.3719482421875,1.920731782913208,9.300000190734863,-55.95000076293945,-3.1500000953674316,39.546142578125,0,
 46959,-0.69677734375,0.37548828125,-0.47412109375,122.62195587158203,-136.9512176513672,-11.067073822021484,13.350000381469727,-55.04999923706055,-3.75,39.49821853637695,0,
 46969,-0.803466796875,0.3701171875,-0.37548828125,272.2865905761719,-164.0853729248047,-13.993903160095215,12.300000190734863,-54.75,-5.400000095367432,39.64198684692383,0,
 46979,-1.198974609375,0.105224609375,-0.017822265625,389.45123291015625,-178.35366821289062,-26.341463088989258,13.050000190734863,-53.25,-1.649999976158142,39.689910888671875,0,
 46989,-1.357666015625,-0.24267578125,0.766357421875,294.4207458496094,-94.0243911743164,-33.04878234863281,13.050000190734863,-53.25,-1.649999976158142,39.737831115722656,0,
 46999,-0.925537109375,-0.302978515625,0.161865234375,97.92683410644531,17.591463088989258,-31.95121955871582,13.050000190734863,-53.25,-1.649999976158142,39.689910888671875,0,
 47009,-0.91357421875,0.16845703125,-0.390380859375,-55.51829528808594,42.0121955871582,-23.871952056884766,13.649999618530273,-52.650001525878906,-3.75,39.30652618408203,0,
 47019,-1.098388671875,0.2109375,-0.256103515625,8.75,39.45122146606445,-26.615854263305664,15.899999618530273,-51.0,-2.549999952316284,39.689910888671875,0,
 47029,-0.981689453125,-0.187255859375,-0.242431640625,86.4024429321289,75.67073059082031,-47.256099700927734,15.899999618530273,-51.0,-2.549999952316284,39.737831115722656,0,
 47039,-0.816162109375,-0.464111328125,-0.38232421875,48.29268264770508,95.36585235595703,-45.79268264770508,15.899999618530273,-51.0,-2.549999952316284,39.546142578125,0,
 47049,-0.786865234375,-0.427490234375,-0.64599609375,-29.60365867614746,104.93902587890625,-17.469512939453125,14.850000381469727,-52.650001525878906,-1.7999999523162842,39.546142578125,0,
 47059,-0.78125,-0.33154296875,-0.739990234375,-127.04268646240234,110.2743911743164,7.256097793579102,13.649999618530273,-50.70000076293945,-3.299999952316284,39.689910888671875,0,
 47069,-0.762451171875,-0.18505859375,-0.743896484375,-199.96951293945312,117.6524429321289,19.63414764404297,13.649999618530273,-50.70000076293945,-3.299999952316284,39.689910888671875,0,
 47079,-0.714599609375,-0.229736328125,-0.726318359375,-289.0243835449219,144.23780822753906,42.103660583496094,13.649999618530273,-50.70000076293945,-3.299999952316284,39.689910888671875,0,
 47089,-0.626953125,0.125244140625,-0.8359375,-303.1707458496094,156.9207305908203,25.060976028442383,12.899999618530273,-52.95000076293945,-1.5,39.64198684692383,0,
 47099,-0.33837890625,0.3935546875,-1.512939453125,-165.7012176513672,60.73170852661133,15.731707572937012,10.800000190734863,-54.45000076293945,-3.1500000953674316,39.546142578125,0,
 47109,-0.23583984375,0.772705078125,-1.23095703125,60.24390411376953,-2.77439022064209,10.640244483947754,10.199999809265137,-55.349998474121094,-2.25,39.64198684692383,0,
 47119,-0.570556640625,0.09423828125,-1.170166015625,29.29878044128418,-18.810976028442383,5.97560977935791,10.199999809265137,-55.349998474121094,-2.25,39.64198684692383,0,
 47129,-0.58349609375,-0.044189453125,-0.87890625,-39.93902587890625,-17.19512176513672,-0.8536585569381714,10.199999809265137,-55.349998474121094,-2.25,39.689910888671875,0,
 47139,-0.60888671875,0.28076171875,-0.90673828125,13.506097793579102,-32.774391174316406,-4.054878234863281,12.75,-57.150001525878906,-4.949999809265137,39.64198684692383,0,
 47169,-0.8134765625,0.042236328125,-0.620849609375,53.75,-36.85975646972656,-7.5,11.25,-55.20000076293945,-5.400000095367432,39.546142578125,0,
 47179,-0.811767578125,0.012939453125,-0.571533203125,42.713417053222656,-23.871952056884766,-6.615853786468506,12.600000381469727,-54.150001525878906,-6.0,39.64198684692383,0,
 47189,-0.832275390625,-0.020263671875,-0.538330078125,22.957317352294922,-8.140244483947754,-4.359755992889404,12.300000190734863,-54.45000076293945,-5.699999809265137,39.737831115722656,0,
 47199,-0.826416015625,-0.01953125,-0.545166015625,5.243902683258057,4.72560977935791,-1.7073171138763428,12.300000190734863,-54.45000076293945,-5.699999809265137,39.64198684692383,0,
 47209,-0.813720703125,0.017578125,-0.58837890625,6.493902683258057,12.134146690368652,0.030487805604934692,12.300000190734863,-54.45000076293945,-5.699999809265137,39.546142578125,0,
 47219,-0.745849609375,0.109375,-0.702392578125,29.268293380737305,12.07317066192627,-0.9146341681480408,12.149999618530273,-55.650001525878906,-3.1500000953674316,39.64198684692383,0,
 47249,-0.740478515625,0.0068359375,-0.72607421875,109.78659057617188,3.8109757900238037,-3.6890244483947754,13.800000190734863,-54.0,-1.9500000476837158,39.546142578125,0,
 47269,-0.705322265625,-0.116455078125,-0.724609375,51.67683029174805,16.615854263305664,-5.060975551605225,11.550000190734863,-54.45000076293945,-2.4000000953674316,39.737831115722656,0,
 47279,-0.720703125,-0.057373046875,-0.724609375,1.1890244483947754,21.829269409179688,-0.24390244483947754,14.25,-53.25,-0.8999999761581421,39.64198684692383,0,
 47289,-0.709228515625,-0.031982421875,-0.760009765625,-32.225608825683594,26.920732498168945,0.7621951103210449,14.25,-53.25,-0.8999999761581421,39.689910888671875,0,
 47299,-0.712646484375,-0.012939453125,-0.752685546875,-52.04268264770508,27.68292808532715,1.5243902206420898,14.25,-53.25,-0.8999999761581421,39.49821853637695,0,
 47309,-0.720703125,0.0029296875,-0.72802734375,-68.17073059082031,32.43902587890625,2.103658676147461,11.699999809265137,-52.650001525878906,-1.5,39.49821853637695,0,
 47319,-0.711181640625,0.03564453125,-0.739501953125,-80.42683410644531,38.414634704589844,0.6707317233085632,11.399999618530273,-56.099998474121094,-2.25,39.83367919921875,0,
 47329,-0.65625,0.061279296875,-0.793212890625,-79.29878234863281,39.20731735229492,0.5487805008888245,11.399999618530273,-56.099998474121094,-2.25,39.689910888671875,0,
 47339,-0.616943359375,0.068115234375,-0.901123046875,-61.98170852661133,33.23170852661133,-0.6097561120986938,11.399999618530273,-56.099998474121094,-2.25,39.737831115722656,0,
 47349,-0.57470703125,0.09326171875,-0.89453125,-39.817073822021484,19.29878044128418,-0.6097561120986938,12.300000190734863,-54.75,-1.649999976158142,39.546142578125,0,
 47359,-0.5498046875,0.053955078125,-0.970703125,-18.567073822021484,6.707317352294922,-1.5548781156539917,12.300000190734863,-54.75,-3.1500000953674316,39.49821853637695,0,
 47379,-0.500244140625,-0.026611328125,-1.05859375,-5.8231706619262695,-25.70121955871582,0.4268292784690857,13.050000190734863,-53.54999923706055,-4.650000095367432,39.689910888671875,0,
 47389,-0.489990234375,-0.05517578125,-1.205322265625,-12.92682933807373,-43.53658676147461,3.7804877758026123,12.300000190734863,-55.95000076293945,-3.450000047683716,39.546142578125,0,
 47399,-0.461669921875,-0.06787109375,-1.2744140625,-20.88414764404297,-69.75609588623047,9.634146690368652,14.25,-53.54999923706055,-1.9500000476837158,39.546142578125,0,
 47409,-0.4873046875,-0.11669921875,-1.2578125,-15.243903160095215,-104.54268646240234,15.853658676147461,12.600000381469727,-55.349998474121094,-3.0,39.546142578125,0,
 47429,-0.65576171875,-0.010009765625,-1.1484375,-33.475608825683594,-158.8719482421875,26.89024543762207,14.25,-55.20000076293945,-3.0,39.737831115722656,0,
 47439,-0.765380859375,0.0966796875,-1.11767578125,-38.84146499633789,-175.5487823486328,27.13414764404297,13.050000190734863,-54.45000076293945,-3.450000047683716,39.64198684692383,0,
 47449,-0.770751953125,0.119384765625,-0.982177734375,-23.658536911010742,-189.02439880371094,25.85365867614746,13.649999618530273,-55.79999923706055,-6.0,39.49821853637695,0,
 47459,-0.813720703125,0.163330078125,-0.83056640625,-10.97560977935791,-200.12196350097656,26.219512939453125,13.649999618530273,-55.79999923706055,-6.0,39.737831115722656,0,
 47469,-0.938720703125,0.21240234375,-0.688232421875,9.390244483947754,-211.28048706054688,27.042682647705078,14.25,-53.54999923706055,-6.0,39.546142578125,0,
 47479,-1.114990234375,0.2822265625,-0.4580078125,34.39024353027344,-219.11585998535156,29.05487823486328,14.399999618530273,-55.04999923706055,-6.300000190734863,39.546142578125,0,
 47489,-1.284912109375,0.450439453125,-0.172119140625,50.51829528808594,-223.84146118164062,31.676830291748047,14.399999618530273,-55.349998474121094,-6.0,39.546142578125,0,
 47499,-1.639892578125,0.70947265625,0.030029296875,61.067073822021484,-218.71951293945312,31.463415145874023,17.549999237060547,-55.349998474121094,-7.5,39.737831115722656,0,
 47529,-1.8193359375,-0.517333984375,0.00439453125,78.87195587158203,159.8780517578125,-65.18292999267578,16.950000762939453,-52.349998474121094,-5.699999809265137,39.689910888671875,0,
 47539,-1.294921875,-0.362548828125,0.106689453125,-87.98780822753906,216.006103515625,-41.280487060546875,16.5,-54.0,-3.9000000953674316,39.49821853637695,0,
 47739,-8.0,5.280029296875,3.385498046875,-872.2256469726562,311.9207458496094,12.042683601379395,13.050000190734863,-54.45000076293945,-0.8999999761581421,39.64198684692383,0,
 47800,-1.05126953125,0.074951171875,-0.658935546875,36.76829528808594,-186.52439880371094,78.84146881103516,11.399999618530273,-53.849998474121094,-2.25,39.546142578125,0,
 47810,-0.5263671875,0.703857421875,-0.64794921875,-101.06707763671875,-157.40853881835938,-6.707317352294922,11.399999618530273,-53.849998474121094,-2.25,39.737831115722656,0,
 47820,-0.500732421875,0.316162109375,-0.515380859375,93.506103515625,-190.2134246826172,-5.243902683258057,10.800000190734863,-55.95000076293945,-2.4000000953674316,39.737831115722656,0,
 47830,-0.92578125,0.198486328125,-0.35693359375,170.97561645507812,-195.09146118164062,11.79878044128418,11.699999809265137,-54.150001525878906,-3.75,39.64198684692383,0,
 47840,-0.892578125,0.10595703125,-0.2666015625,206.8292694091797,-155.06097412109375,37.103660583496094,12.75,-54.75,-3.1500000953674316,39.450294494628906,0,
 47850,-0.969482421875,-0.005126953125,-0.06103515625,226.4329376220703,-149.93902587890625,6.5853657722473145,12.75,-54.75,-3.1500000953674316,39.689910888671875,0,
 47860,-1.116455078125,0.025146484375,-0.01220703125,193.44512939453125,-99.39024353027344,-5.579268455505371,13.649999618530273,-52.650001525878906,-2.549999952316284,39.64198684692383,0,
 47870,-1.132080078125,0.0205078125,0.229248046875,155.7012176513672,-43.29268264770508,-22.957317352294922,13.5,-51.599998474121094,-1.9500000476837158,39.737831115722656,0,
 47930,-0.8408203125,-0.182861328125,-0.450927734375,-48.871952056884766,136.98170471191406,-46.280487060546875,12.300000190734863,-50.099998474121094,1.2000000476837158,39.546142578125,0,
 47940,-0.769775390625,-0.248779296875,-0.677734375,-76.18902587890625,150.8841552734375,-36.158538818359375,12.300000190734863,-50.099998474121094,1.2000000476837158,39.450294494628906,0,
 47950,-0.744384765625,-0.53466796875,-1.0849609375,-99.14634704589844,156.5853729248047,-22.98780632019043,13.5,-50.099998474121094,0.15000000596046448,39.49821853637695,0,
 47960,-0.096435546875,-0.930419921875,-1.419921875,-168.32318115234375,164.69512939453125,-19.512195587158203,10.5,-51.150001525878906,0.44999998807907104,39.546142578125,0,
 48020,-0.715576171875,0.154296875,-0.689208984375,43.567073822021484,-68.65853881835938,3.3841464519500732,10.050000190734863,-56.400001525878906,-0.8999999761581421,39.737831115722656,0,
 48040,-0.788818359375,0.15771484375,-0.64013671875,193.71951293945312,-87.56097412109375,11.707317352294922,10.800000190734863,-54.45000076293945,-0.44999998807907104,39.689910888671875,0,
 48050,-0.9052734375,-0.030029296875,-0.440673828125,176.15853881835938,-62.13414764404297,9.969511985778809,11.25,-52.79999923706055,-0.15000000596046448,39.689910888671875,0,
 48060,-0.96044921875,-0.22412109375,-0.34716796875,77.5,-19.024391174316406,-2.2560975551605225,11.699999809265137,-53.400001525878906,-0.75,39.49821853637695,0,
 48070,-0.950927734375,-0.27490234375,-0.248779296875,-43.506099700927734,31.524391174316406,-1.2804877758026123,11.699999809265137,-53.400001525878906,-0.75,39.737831115722656,0,
 48080,-0.8740234375,-0.005126953125,-0.4970703125,-56.310977935791016,49.72561264038086,-6.128048896789551,10.5,-53.25,-0.44999998807907104,39.689910888671875,0,
 48090,-0.765380859375,0.152587890625,-0.64404296875,-14.969512939453125,45.54878234863281,-7.743902683258057,12.0,-51.599998474121094,-3.1500000953674316,39.689910888671875,0,
 48110,-0.65869140625,-0.006591796875,-0.830810546875,23.5060977935791,35.030487060546875,-8.231707572937012,10.800000190734863,-52.349998474121094,-1.649999976158142,39.689910888671875,0,
 48120,-0.589111328125,-0.094482421875,-0.93310546875,13.963415145874023,26.128049850463867,-6.463414669036865,11.25,-52.04999923706055,-0.8999999761581421,39.737831115722656,0,
 48140,-0.63916015625,-0.0224609375,-0.92626953125,-21.189023971557617,8.810976028442383,6.463414669036865,12.149999618530273,-52.650001525878906,-0.30000001192092896,39.64198684692383,0,
 48150,-0.5751953125,0.087890625,-0.922119140625,-29.329269409179688,2.2865853309631348,3.1097562313079834,12.149999618530273,-52.650001525878906,-0.30000001192092896,39.88159942626953,0,
 48180,-0.70849609375,-0.050048828125,-0.701416015625,-9.45121955871582,-15.243903160095215,6.341463565826416,11.399999618530273,-51.75,-1.0499999523162842,39.450294494628906,0,
 48190,-0.7109375,0.033447265625,-0.7353515625,-41.34146499633789,-6.067073345184326,6.554878234863281,12.899999618530273,-51.75,-1.5,39.689910888671875,0,
 48200,-0.704833984375,0.0732421875,-0.733642578125,-40.42683029174805,-2.896341562271118,4.5731706619262695,12.899999618530273,-51.75,-1.5,39.64198684692383,0,
 48210,-0.672607421875,0.03173828125,-0.774169921875,-29.878049850463867,-3.2317073345184326,0.7012194991111755,10.800000190734863,-54.0,-0.15000000596046448,39.64198684692383,0,
 48220,-0.656005859375,0.029052734375,-0.801025390625,-37.34756088256836,-1.7987805604934692,-0.9451219439506531,12.149999618530273,-52.95000076293945,-1.0499999523162842,39.88159942626953,0,
 48240,-0.508544921875,-0.10791015625,-1.129150390625,-38.10975646972656,-15.182927131652832,-1.3414634466171265,10.5,-52.79999923706055,0.15000000596046448,39.737831115722656,0,
 48260,-0.443603515625,-0.260009765625,-1.35009765625,-37.95731735229492,-66.95121765136719,16.737804412841797,11.550000190734863,-53.25,-2.700000047683716,39.689910888671875,0,
 48270,-0.44677734375,-0.22314453125,-1.36767578125,-42.59146499633789,-104.20732116699219,27.378049850463867,12.300000190734863,-54.0,-2.700000047683716,39.689910888671875,0,
 48280,-0.514892578125,-0.06884765625,-1.306884765625,-51.92073440551758,-139.0853729248047,36.524391174316406,12.300000190734863,-54.0,-2.700000047683716,39.64198684692383,0,
 48290,-0.604736328125,0.092529296875,-1.2802734375,-57.103660583496094,-168.78048706054688,39.1158561706543,14.25,-54.0,-4.650000095367432,39.737831115722656,0,
 48300,-0.702392578125,0.224365234375,-1.179443359375,-40.39634323120117,-196.03659057617188,37.469512939453125,13.649999618530273,-55.79999923706055,-4.800000190734863,39.689910888671875,0,
 48320,-0.875,0.29833984375,-0.83349609375,16.43292808532715,-234.51220703125,34.20731735229492,14.100000381469727,-54.150001525878906,-3.75,39.64198684692383,0,
 48330,-1.037841796875,0.318115234375,-0.63623046875,55.88414764404297,-244.81707763671875,34.45122146606445,14.100000381469727,-54.150001525878906,-3.75,39.64198684692383,0,
 48340,-1.344482421875,0.444091796875,-0.31640625,91.00609588623047,-246.7987823486328,36.64634323120117,15.0,-55.650001525878906,-5.400000095367432,39.689910888671875,0,
 48350,-1.78271484375,0.6201171875,-0.0361328125,131.7987823486328,-238.90245056152344,38.719512939453125,15.0,-54.75,-5.699999809265137,39.689910888671875,0,
 48360,-1.98876953125,0.052734375,-0.886474609375,202.89634704589844,-205.12196350097656,26.341463088989258,16.350000381469727,-55.349998474121094,-6.0,39.689910888671875,0,
 48370,-3.726806640625,-0.297607421875,-0.193359375,208.84146118164062,-115.24390411376953,-49.603660583496094,16.350000381469727,-55.349998474121094,-6.0,39.546142578125,0,
 48380,-1.70947265625,-0.512939453125,0.204833984375,156.85975646972656,99.69512176513672,-84.08536529541016,15.0,-54.0,-3.9000000953674316,39.689910888671875,0,
 48390,-0.893310546875,-0.37255859375,-0.308349609375,32.0121955871582,212.28659057617188,-95.45732116699219,13.050000190734863,-51.150001525878906,-3.450000047683716,39.689910888671875,0,
 48400,-0.92333984375,0.433349609375,-0.0107421875,-95.57926940917969,210.27439880371094,-73.50609588623047,15.449999809265137,-54.0,-4.650000095367432,39.737831115722656,0,
 48410,-0.641845703125,0.68896484375,-0.22412109375,-102.71341705322266,251.89024353027344,-78.41463470458984,15.449999809265137,-54.0,-4.650000095367432,39.689910888671875,0,
 48420,-0.390869140625,0.604248046875,-0.154541015625,-25.609756469726562,249.69512939453125,-75.79268646240234,14.100000381469727,-52.95000076293945,-1.7999999523162842,39.546142578125,0,
 48430,-0.1953125,0.26953125,0.080810546875,75.30487823486328,200.64024353027344,-46.76829528808594,13.350000381469727,-50.70000076293945,0.0,39.689910888671875,0,
 48500,0.052001953125,0.085205078125,-0.090087890625,55.15243911743164,-23.079269409179688,6.79878044128418,10.5,-51.150001525878906,2.4000000953674316,39.64198684692383,0,
 48510,0.04736328125,0.281005859375,0.010986328125,181.9207305908203,-64.35975646972656,1.7987805604934692,10.800000190734863,-50.400001525878906,1.2000000476837158,39.689910888671875,0,
 48520,0.108154296875,-0.06640625,0.287841796875,131.25,-63.38414764404297,2.0731706619262695,12.300000190734863,-48.45000076293945,1.2000000476837158,39.689910888671875,0,
 48530,0.354248046875,-0.3369140625,0.673583984375,-55.82317352294922,-73.26219940185547,3.841463565826416,11.399999618530273,-49.04999923706055,1.5,39.64198684692383,0,
 48540,0.646240234375,-0.18115234375,0.32177734375,-155.24391174316406,-112.13414764404297,20.274391174316406,11.399999618530273,-49.04999923706055,1.5,39.83367919921875,0,
 48550,0.523681640625,0.214111328125,0.185546875,-128.14024353027344,-160.8841552734375,35.64024353027344,12.149999618530273,-51.45000076293945,0.30000001192092896,39.737831115722656,0,
 48560,0.248291015625,0.2666015625,0.116943359375,-86.46341705322266,-192.34756469726562,36.79878234863281,12.149999618530273,-51.0,-0.75,39.49821853637695,0,
 48711,-1.082275390625,-0.290283203125,0.07470703125,224.66464233398438,-84.69512176513672,-22.012195587158203,11.699999809265137,-54.599998474121094,-1.5,39.689910888671875,0,
 48721,-1.048583984375,-0.290771484375,-0.02294921875,80.18292999267578,-14.969512939453125,-12.865854263305664,13.050000190734863,-51.150001525878906,-1.2000000476837158,39.64198684692383,0,
 48731,-0.92236328125,0.0595703125,-0.411376953125,-30.70121955871582,18.079269409179688,-9.115854263305664,10.649999618530273,-51.75,0.30000001192092896,39.64198684692383,0,
 48741,-0.875732421875,0.038330078125,-0.556396484375,19.05487823486328,33.29268264770508,-8.170731544494629,13.649999618530273,-52.20000076293945,0.0,39.64198684692383,0,
 48751,-0.8134765625,-0.176025390625,-0.613525390625,73.32317352294922,44.39024353027344,-20.762195587158203,11.25,-50.849998474121094,-0.15000000596046448,39.64198684692383,0,
 48771,-0.604736328125,-0.3291015625,-0.830078125,-22.408536911010742,56.09756088256836,3.353658676147461,12.0,-50.849998474121094,-0.8999999761581421,39.546142578125,0,
 48781,-0.626220703125,-0.22705078125,-0.864013671875,-103.38414764404297,48.6280517578125,11.615854263305664,12.75,-50.849998474121094,0.44999998807907104,39.737831115722656,0,
 48811,-0.465576171875,0.37109375,-1.059326171875,-321.8902587890625,82.19512176513672,22.774391174316406,12.149999618530273,-55.349998474121094,-4.050000190734863,39.64198684692383,0,
 48931,-0.658203125,0.04052734375,-0.80908203125,10.457317352294922,11.707317352294922,-1.8902438879013062,11.25,-54.75,-1.9500000476837158,39.546142578125,0,
 48941,-0.622802734375,0.041748046875,-0.851318359375,12.682927131652832,6.097560882568359,-1.6158536672592163,10.949999809265137,-53.849998474121094,-1.0499999523162842,39.49821853637695,0,
 48951,-0.632568359375,0.098876953125,-0.872802734375,37.80487823486328,-3.8719513416290283,-3.9634146690368652,10.199999809265137,-55.04999923706055,-0.30000001192092896,39.88159942626953,0,
 48961,-0.6142578125,0.130615234375,-0.89208984375,73.68902587890625,-18.140243530273438,-4.390244007110596,12.300000190734863,-55.20000076293945,-0.8999999761581421,39.689910888671875,0,
 48991,-0.719482421875,-0.049560546875,-0.7001953125,52.65243911743164,-15.884146690368652,-2.9268293380737305,11.550000190734863,-53.25,-0.8999999761581421,39.64198684692383,0,
 49011,-0.74072265625,-0.052978515625,-0.6708984375,-32.13414764404297,11.707317352294922,-0.7012194991111755,10.050000190734863,-54.45000076293945,-2.4000000953674316,39.64198684692383,0,
 49041,-0.7080078125,-0.022216796875,-0.72216796875,-53.04878234863281,24.878049850463867,-0.6402438879013062,11.550000190734863,-54.0,-0.8999999761581421,39.64198684692383,0,
 49051,-0.658935546875,0.041748046875,-0.8203125,-61.95122146606445,27.621952056884766,0.7012194991111755,11.25,-52.349998474121094,-0.8999999761581421,39.83367919921875,0,
 49061,-0.6494140625,0.091064453125,-0.846435546875,-52.621952056884766,22.65243911743164,1.0060975551605225,11.25,-52.349998474121094,-0.8999999761581421,39.64198684692383,0,
 49071,-0.646484375,0.10693359375,-0.839599609375,-25.670732498168945,13.170731544494629,0.7317073345184326,11.550000190734863,-54.0,-1.649999976158142,39.689910888671875,0,
 49081,-0.6572265625,0.049072265625,-0.807373046875,2.987804889678955,4.603658676147461,0.060975611209869385,9.600000381469727,-55.20000076293945,-1.649999976158142,39.64198684692383,0,
 49111,-0.67822265625,0.064453125,-0.792724609375,10.243902206420898,0.12195122241973877,0.09146341681480408,11.699999809265137,-52.650001525878906,-3.75,39.689910888671875,0,
 49121,-0.68359375,0.0439453125,-0.77001953125,18.841463088989258,-1.4634146690368652,-0.7621951103210449,10.800000190734863,-55.20000076293945,0.15000000596046448,39.64198684692383,0,
 49141,-0.703369140625,0.031005859375,-0.737060546875,19.29878044128418,1.920731782913208,-1.4939024448394775,11.399999618530273,-53.400001525878906,0.0,39.737831115722656,0,
 49161,-0.670654296875,0.007568359375,-0.76025390625,6.371951580047607,11.158536911010742,-1.9512195587158203,11.399999618530273,-53.849998474121094,-1.0499999523162842,39.450294494628906,0,
 49171,-0.630615234375,0.00244140625,-0.809814453125,1.5243902206420898,13.018293380737305,-1.7682926654815674,11.699999809265137,-52.650001525878906,-1.5,39.737831115722656,0,
 49181,-0.623779296875,-0.001708984375,-0.849853515625,1.0670732259750366,10.945121765136719,-0.4573170840740204,12.600000381469727,-55.349998474121094,0.0,39.450294494628906,0,
 49201,-0.631591796875,0.020263671875,-0.838134765625,-5.213414669036865,4.603658676147461,1.9512195587158203,12.0,-54.45000076293945,0.44999998807907104,39.64198684692383,0,
 49221,-0.646240234375,0.059814453125,-0.819580078125,-6.097560882568359,-1.6463414430618286,1.432926893234253,11.399999618530273,-53.849998474121094,-1.0499999523162842,39.64198684692383,0,
 49231,-0.656494140625,0.04931640625,-0.79150390625,-1.4634146690368652,-4.390244007110596,1.097561001777649,11.399999618530273,-53.849998474121094,-1.0499999523162842,39.83367919921875,0,
 49241,-0.6796875,0.039794921875,-0.772216796875,0.4878048896789551,-4.5731706619262695,0.3658536672592163,10.050000190734863,-53.54999923706055,-0.44999998807907104,39.64198684692383,0,
 49251,-0.682373046875,0.035400390625,-0.769287109375,-1.402438998222351,-3.7195122241973877,-0.3353658616542816,12.300000190734863,-53.25,-1.2000000476837158,39.689910888671875,0,
 49261,-0.695068359375,0.030517578125,-0.7646484375,-0.9451219439506531,-2.5609755516052246,-0.5487805008888245,10.050000190734863,-54.45000076293945,-1.9500000476837158,39.49821853637695,0,
 49281,-0.69091796875,0.03173828125,-0.762451171875,-0.7621951103210449,1.2195122241973877,-0.7012194991111755,10.949999809265137,-54.150001525878906,0.0,39.689910888671875,0,
 49291,-0.680419921875,0.026611328125,-0.772216796875,-2.103658676147461,3.0487804412841797,-0.9451219439506531,10.649999618530273,-54.150001525878906,-1.0499999523162842,39.35445022583008,0,
 49341,-0.65673828125,0.03173828125,-0.79736328125,4.542683124542236,0.7317073345184326,-1.2804877758026123,9.449999809265137,-52.650001525878906,-1.0499999523162842,39.83367919921875,0,
 