timestamp,accl_x,accl_y,accl_z,gyro_x,gyro_y,gyro_z,mag_x,mag_y,mag_z,temp,emg,
 800825,-0.3046875,-0.272705078125,-0.9404296875,-0.030487805604934692,-0.24390244483947754,0.24390244483947754,2.4000000953674316,-12.75,12.899999618530273,37.77299499511719,0,
 800835,-0.314208984375,-0.278076171875,-0.936767578125,-0.5487805008888245,-0.21341463923454285,0.396341472864151,2.4000000953674316,-12.75,12.899999618530273,38.06053161621094,0,
 800845,-0.3134765625,-0.273193359375,-0.940673828125,-0.9756097793579102,-0.8231707215309143,-0.060975611209869385,2.549999952316284,-12.600000381469727,15.0,38.06053161621094,0,
 800855,-0.31494140625,-0.267333984375,-0.944091796875,-0.6402438879013062,-1.1280487775802612,0.7317073345184326,1.2000000476837158,-14.399999618530273,13.649999618530273,38.06053161621094,0,
 800865,-0.3330078125,-0.262939453125,-0.9599609375,-0.3658536672592163,-0.12195122241973877,0.3353658616542816,3.1500000953674316,-12.449999809265137,13.649999618530273,37.96468734741211,0,
 800875,-0.33642578125,-0.265380859375,-0.947265625,-0.4268292784690857,0.9756097793579102,0.396341472864151,3.1500000953674316,-13.949999809265137,12.449999809265137,37.77299499511719,0,
 800885,-0.319580078125,-0.271728515625,-0.947265625,0.060975611209869385,-0.3353658616542816,0.3048780560493469,3.1500000953674316,-13.949999809265137,12.449999809265137,37.96468734741211,0,
 800925,-0.317138671875,-0.273681640625,-0.9365234375,-0.7317073345184326,-1.3109756708145142,0.6097561120986938,3.0,-13.350000381469727,12.75,37.581302642822266,0,
 800935,-0.309814453125,-0.271240234375,-0.942626953125,-1.0365853309631348,-1.097561001777649,0.8841463327407837,4.5,-14.550000190734863,10.800000190734863,37.91676330566406,0,
 800945,-0.32568359375,-0.28173828125,-0.941162109375,-1.0060975551605225,-1.585365891456604,0.792682945728302,4.349999904632568,-12.75,12.899999618530273,38.06053161621094,0,
 800955,-0.31884765625,-0.272216796875,-0.94140625,-1.8292683362960815,-1.2804877758026123,1.0060975551605225,3.0,-12.149999618530273,13.050000190734863,37.91676330566406,0,
 800965,-0.31640625,-0.26904296875,-0.942138671875,-1.5243902206420898,-1.3719512224197388,1.3719512224197388,3.0,-11.399999618530273,13.050000190734863,37.91676330566406,0,
 800975,-0.3173828125,-0.266357421875,-0.944091796875,-2.22560977935791,-1.4939024448394775,1.4634146690368652,3.0,-11.399999618530273,13.050000190734863,37.72507095336914,0,
 800985,-0.31201171875,-0.260498046875,-0.92529296875,-2.591463565826416,-2.317073106765747,1.1890244483947754,2.4000000953674316,-11.550000190734863,13.949999809265137,37.868839263916016,0,
 800995,-0.322998046875,-0.275146484375,-0.941162109375,-1.1890244483947754,-1.737804889678955,1.4634146690368652,1.7999999523162842,-11.850000381469727,12.75,37.91676330566406,0,
 801005,-0.324951171875,-0.26171875,-0.950439453125,-2.682926893234253,-1.585365891456604,1.0365853309631348,3.5999999046325684,-13.949999809265137,13.649999618530273,37.91676330566406,0,
 801015,-0.3251953125,-0.274169921875,-0.947021484375,-1.3109756708145142,-1.3719512224197388,1.097561001777649,3.5999999046325684,-13.949999809265137,13.649999618530273,38.06053161621094,0,
 801025,-0.321533203125,-0.263916015625,-0.938720703125,-2.2560975551605225,-1.7987805604934692,1.2804877758026123,3.75,-13.350000381469727,13.050000190734863,37.91676330566406,0,
 801035,-0.318115234375,-0.264404296875,-0.94580078125,-1.737804889678955,-1.4634146690368652,1.4939024448394775,3.5999999046325684,-10.800000190734863,9.899999618530273,38.108455657958984,0,
 801045,-0.3203125,-0.255126953125,-0.948486328125,-2.7134146690368652,-1.737804889678955,1.3414634466171265,3.75,-12.600000381469727,13.5,37.91676330566406,0,
 801055,-0.340087890625,-0.265380859375,-0.961669921875,-0.8841463327407837,-2.317073106765747,1.1585365533828735,4.5,-13.350000381469727,13.800000190734863,38.108455657958984,0,
 801065,-0.33837890625,-0.265380859375,-0.93115234375,-1.2195122241973877,-1.2804877758026123,0.7012194991111755,4.5,-13.350000381469727,13.800000190734863,38.06053161621094,0,
 801075,-0.31396484375,-0.268798828125,-0.950439453125,-0.9146341681480408,0.060975611209869385,1.1280487775802612,1.7999999523162842,-11.850000381469727,14.25,37.72507095336914,0,
 801085,-0.32177734375,-0.271240234375,-0.9423828125,-0.7621951103210449,-1.1890244483947754,1.1585365533828735,3.299999952316284,-13.050000190734863,13.800000190734863,37.96468734741211,0,
 801095,-0.32470703125,-0.267822265625,-0.94384765625,-1.4939024448394775,-0.6707317233085632,0.9756097793579102,2.549999952316284,-12.600000381469727,13.050000190734863,37.77299499511719,0,
 801105,-0.32958984375,-0.26416015625,-0.939453125,-1.5243902206420898,-0.7317073345184326,0.9756097793579102,2.549999952316284,-12.600000381469727,13.050000190734863,37.91676330566406,0,
 801115,-0.342529296875,-0.26318359375,-0.952392578125,-1.1585365533828735,-0.4573170840740204,0.8231707215309143,5.400000095367432,-13.199999809265137,13.649999618530273,37.77299499511719,0,
 801125,-0.379638671875,-0.2607421875,-0.955322265625,-0.7317073345184326,-0.060975611209869385,0.12195122241973877,4.949999809265137,-11.399999618530273,13.050000190734863,37.62922668457031,0,
 801135,-0.329345703125,-0.26318359375,-0.940185546875,0.0,3.628048896789551,-0.792682945728302,2.549999952316284,-10.199999809265137,12.0,37.868839263916016,0,
 801145,-0.294189453125,-0.28125,-0.930419921875,0.9146341681480408,2.1646342277526855,-0.15243902802467346,4.199999809265137,-12.600000381469727,12.75,38.06053161621094,0,
 801155,-0.305419921875,-0.27490234375,-0.934814453125,-0.3658536672592163,1.2804877758026123,0.0,4.199999809265137,-12.600000381469727,12.75,37.72507095336914,0,
 801165,-0.314208984375,-0.2626953125,-0.9443359375,-0.9756097793579102,0.6402438879013062,-0.24390244483947754,3.75,-11.399999618530273,14.550000190734863,37.72507095336914,0,
 801175,-0.31103515625,-0.255126953125,-0.93701171875,-0.3048780560493469,-0.7621951103210449,0.27439025044441223,3.0,-13.050000190734863,13.5,37.96468734741211,0,
 801185,-0.329345703125,-0.2626953125,-0.9443359375,-0.4573170840740204,-0.27439025044441223,0.21341463923454285,3.75,-12.149999618530273,13.050000190734863,37.77299499511719,0,
 801195,-0.333251953125,-0.267333984375,-0.947265625,-0.8231707215309143,-0.030487805604934692,0.4268292784690857,3.75,-12.149999618530273,13.050000190734863,38.06053161621094,0,
 801205,-0.318115234375,-0.267578125,-0.946044921875,-0.9756097793579102,-0.4268292784690857,0.4878048896789551,3.299999952316284,-13.350000381469727,14.25,38.06053161621094,0,
 801215,-0.324951171875,-0.272216796875,-0.9482421875,-1.7987805604934692,0.0,0.8536585569381714,3.75,-13.800000190734863,13.5,37.581302642822266,0,
 801225,-0.324951171875,-0.26708984375,-0.932373046875,-1.8292683362960815,0.3353658616542816,1.0365853309631348,3.5999999046325684,-12.449999809265137,14.399999618530273,37.96468734741211,0,
 801335,-0.341796875,-0.2607421875,-0.942626953125,-2.5,-1.3109756708145142,2.0731706619262695,4.349999904632568,-13.649999618530273,13.199999809265137,37.91676330566406,0,
 801345,-0.33349609375,-0.2578125,-0.9404296875,-2.378048896789551,-1.585365891456604,1.5243902206420898,3.1500000953674316,-12.449999809265137,11.399999618530273,38.06053161621094,0,
 801355,-0.323974609375,-0.26025390625,-0.942138671875,-1.9512195587158203,-1.2804877758026123,1.7987805604934692,5.099999904632568,-12.75,13.199999809265137,38.06053161621094,0,
 801365,-0.322265625,-0.2607421875,-0.94140625,-2.1646342277526855,-1.9512195587158203,1.8902438879013062,2.8499999046325684,-13.199999809265137,13.199999809265137,37.62922668457031,0,
 801375,-0.327392578125,-0.2578125,-0.931640625,-2.22560977935791,-1.737804889678955,1.585365891456604,2.8499999046325684,-13.199999809265137,13.199999809265137,38.06053161621094,0,
 801385,-0.32470703125,-0.257568359375,-0.9453125,-1.920731782913208,-2.1646342277526855,1.7073171138763428,4.5,-13.050000190734863,14.25,38.108455657958984,0,
 801395,-0.33740234375,-0.257568359375,-0.94970703125,-2.5609755516052246,-2.591463565826416,1.8902438879013062,2.25,-12.149999618530273,13.050000190734863,37.91676330566406,0,
 801405,-0.332763671875,-0.261962890625,-0.93896484375,-1.9512195587158203,-2.317073106765747,1.737804889678955,3.9000000953674316,-12.449999809265137,14.699999809265137,37.868839263916016,0,
 801415,-0.338623046875,-0.2578125,-0.938720703125,-2.317073106765747,-2.1646342277526855,1.7073171138763428,3.75,-12.600000381469727,14.25,37.72507095336914,0,
 801425,-0.32421875,-0.2529296875,-0.94873046875,-2.2865853309631348,-1.6768293380737305,1.6158536672592163,3.75,-12.600000381469727,14.25,37.77299499511719,0,
 801435,-0.33984375,-0.25244140625,-0.947265625,-2.408536672592163,-2.5,1.7073171138763428,3.0,-12.149999618530273,13.800000190734863,37.96468734741211,0,
 801445,-0.334716796875,-0.250732421875,-0.9453125,-2.012195110321045,-1.9817073345184326,1.432926893234253,5.25,-13.350000381469727,9.75,37.77299499511719,0,
 801455,-0.337158203125,-0.244384765625,-0.957763671875,-1.25,-1.7682926654815674,1.1280487775802612,3.299999952316284,-14.25,12.75,37.77299499511719,0,
 801465,-0.345947265625,-0.2451171875,-0.9541015625,-0.3048780560493469,-1.7682926654815674,0.6707317233085632,3.299999952316284,-14.25,12.75,37.72507095336914,0,
 801475,-0.35693359375,-0.243896484375,-0.951904296875,0.27439025044441223,-1.0060975551605225,0.3353658616542816,3.1500000953674316,-13.949999809265137,13.649999618530273,37.96468734741211,0,
 801485,-0.32958984375,-0.24462890625,-0.95166015625,0.18292683362960815,0.0,0.15243902802467346,3.75,-11.850000381469727,12.0,37.868839263916016,0,
 801495,-0.34130859375,-0.25830078125,-0.951171875,1.3719512224197388,-0.7012194991111755,-0.12195122241973877,3.299999952316284,-13.800000190734863,13.5,37.868839263916016,0,
 801505,-0.3486328125,-0.2548828125,-0.951416015625,1.6768293380737305,-0.3048780560493469,-0.18292683362960815,4.650000095367432,-12.0,14.399999618530273,38.06053161621094,0,
 801515,-0.355712890625,-0.24658203125,-0.955810546875,1.6463414430618286,0.396341472864151,-0.6707317233085632,4.199999809265137,-12.600000381469727,12.75,37.581302642822266,0,
 801525,-0.376953125,-0.2373046875,-0.98046875,3.353658676147461,1.097561001777649,-1.3414634466171265,3.9000000953674316,-12.0,12.899999618530273,37.91676330566406,0,
 801536,-0.415771484375,-0.213623046875,-0.997314453125,4.329268455505371,2.896341562271118,-2.5304877758026123,3.5999999046325684,-13.949999809265137,13.949999809265137,37.91676330566406,0,
 801546,-0.427001953125,-0.197998046875,-1.031494140625,8.109756469726562,6.006097793579102,-4.329268455505371,2.25,-10.649999618530273,12.300000190734863,37.91676330566406,0,
 801556,-0.5986328125,-0.19287109375,-1.146728515625,14.115854263305664,7.195122241973877,-7.347561359405518,2.25,-10.649999618530273,12.300000190734863,37.96468734741211,0,
 801566,-0.715087890625,-0.167236328125,-1.13232421875,20.975610733032227,15.82317066192627,-14.481707572937012,3.0,-12.149999618530273,12.75,37.77299499511719,0,
 801576,-0.7587890625,-0.212890625,-1.199462890625,34.78658676147461,35.3658561706543,-22.408536911010742,3.75,-12.600000381469727,13.800000190734863,37.868839263916016,0,
 801586,-0.692626953125,-0.33056640625,-1.148681640625,41.92073440551758,51.524391174316406,-28.231708526611328,2.4000000953674316,-11.550000190734863,13.649999618530273,37.91676330566406,0,
 801596,-0.74072265625,-0.43212890625,-1.2529296875,48.07926940917969,63.719512939453125,-29.817073822021484,3.299999952316284,-10.949999809265137,13.5,37.91676330566406,0,
 801606,-0.51806640625,-0.565185546875,-1.096923828125,40.09146499633789,75.9756088256836,-27.073171615600586,4.199999809265137,-12.600000381469727,13.050000190734863,37.91676330566406,0,
 801616,-0.787109375,-0.31787109375,-1.140869140625,3.3231709003448486,75.60975646972656,-4.45121955871582,1.649999976158142,-11.550000190734863,12.899999618530273,37.91676330566406,0,
 801646,-1.029541015625,-0.291748046875,-1.753662109375,18.658536911010742,111.28048706054688,65.09146118164062,0.44999998807907104,-12.0,13.949999809265137,38.06053161621094,0,
 801656,-0.324462890625,-0.60986328125,-1.866943359375,37.469512939453125,100.60975646972656,58.567073822021484,-0.75,-15.0,12.300000190734863,37.72507095336914,0,
 801666,0.01025390625,-0.706298828125,-1.61474609375,38.20122146606445,103.56707763671875,45.853660583496094,0.15000000596046448,-12.75,13.199999809265137,37.96468734741211,0,
 801676,0.21240234375,-0.705322265625,-1.36474609375,-26.128049850463867,119.05487823486328,44.1158561706543,0.30000001192092896,-13.050000190734863,12.300000190734863,37.96468734741211,0,
 801686,0.455810546875,-0.283447265625,-1.02978515625,-48.29268264770508,118.2317123413086,53.2621955871582,0.30000001192092896,-13.050000190734863,12.300000190734863,37.72507095336914,0,
 801696,0.6572265625,-0.046142578125,-0.75341796875,-29.329269409179688,97.34756469726562,62.621952056884766,-3.0,-14.25,13.800000190734863,37.96468734741211,0,
 801706,0.349365234375,0.14453125,-0.92822265625,39.42073440551758,90.1524429321289,62.98780822753906,-3.299999952316284,-14.25,14.25,37.77299499511719,0,
 801716,0.112548828125,-0.135498046875,-0.6826171875,41.067073822021484,106.5243911743164,64.66463470458984,-2.4000000953674316,-15.600000381469727,15.149999618530273,37.91676330566406,0,
 801726,0.076416015625,-0.285888671875,-0.500244140625,23.38414764404297,99.20732116699219,63.567073822021484,-3.0,-15.300000190734863,15.0,38.06053161621094,0,
 801736,-0.11474609375,-0.2666015625,-0.338134765625,48.963417053222656,90.88414764404297,40.57926940917969,-3.0,-15.300000190734863,15.0,37.868839263916016,0,
 801746,-0.302978515625,-0.46923828125,-0.131103515625,48.810977935791016,83.2317123413086,6.615853786468506,-5.400000095367432,-13.649999618530273,13.199999809265137,37.91676330566406,0,
 801756,-0.30224609375,-0.666015625,0.28076171875,-32.95731735229492,76.67683410644531,-19.115854263305664,-4.199999809265137,-14.25,9.300000190734863,37.91676330566406,0,
 801766,-0.339599609375,-0.426025390625,0.475341796875,-86.73780822753906,73.75,-27.43902587890625,-7.199999809265137,-14.550000190734863,13.5,37.96468734741211,0,
 801776,-0.291015625,-0.20703125,0.754638671875,-97.59146881103516,59.72561264038086,-35.64024353027344,-7.199999809265137,-14.550000190734863,13.5,37.91676330566406,0,
 801796,-0.609619140625,-0.07763671875,0.15185546875,33.01829528808594,93.41463470458984,-102.16463470458984,-7.949999809265137,-14.550000190734863,12.300000190734863,37.77299499511719,0,
 801806,-0.783203125,0.009033203125,-0.10205078125,-3.0182926654815674,70.06097412109375,-108.2317123413086,-8.399999618530273,-12.149999618530273,13.050000190734863,37.77299499511719,0,
 801826,-1.343994140625,0.3076171875,0.027099609375,-51.18902587890625,-10.030488014221191,-101.21951293945312,-10.5,-11.25,12.449999809265137,37.91676330566406,0,
 801836,-1.343017578125,0.158447265625,0.0048828125,10.670731544494629,-29.878049850463867,-92.07317352294922,-10.649999618530273,-11.850000381469727,13.5,37.96468734741211,0,
 801846,1.028564453125,0.26953125,-1.6259765625,92.92683410644531,-13.932927131652832,-60.70122146606445,-10.800000190734863,-12.449999809265137,13.949999809265137,37.96468734741211,0,
 801856,6.71240234375,-0.7109375,-7.999755859375,486.18902587890625,740.1524658203125,121.73780822753906,-9.149999618530273,-12.600000381469727,10.5,37.77299499511719,0,
 801866,3.294189453125,-0.42138671875,4.107177734375,-647.4085693359375,12.5,273.5975646972656,-9.149999618530273,-12.600000381469727,10.5,37.91676330566406,0,
 801896,-0.324462890625,-4.608154296875,1.97216796875,731.7073364257812,-265.9146423339844,-211.37196350097656,-4.5,-13.800000190734863,15.0,37.72507095336914,0,
 801906,-0.97900390625,-0.87939453125,-1.812744140625,-542.0731811523438,-234.2073211669922,56.006099700927734,-6.599999904632568,-9.600000381469727,11.399999618530273,37.91676330566406,0,
 801916,-0.345947265625,1.8388671875,-1.466064453125,-580.792724609375,-169.48170471191406,-50.70122146606445,-6.599999904632568,-9.600000381469727,11.399999618530273,37.96468734741211,0,
 801926,0.008544921875,0.837158203125,0.036376953125,-271.70733642578125,-352.1646423339844,-109.05487823486328,-2.549999952316284,-13.050000190734863,14.25,37.72507095336914,0,
 801936,-0.524169921875,-0.41796875,0.165771484375,387.2256164550781,-419.2987976074219,15.792683601379395,-0.8999999761581421,-13.949999809265137,13.199999809265137,38.06053161621094,0,
 801946,-2.3740234375,-0.711669921875,-1.972412109375,313.1707458496094,-308.2926940917969,21.64634132385254,3.75,-10.949999809265137,12.75,37.77299499511719,0,
 801956,-1.912353515625,-2.105712890625,-1.43994140625,26.128049850463867,-120.45732116699219,-116.37195587158203,3.75,-10.949999809265137,12.75,37.62922668457031,0,
 801966,-1.053466796875,-1.8447265625,-0.4892578125,146.8292694091797,-165.3048858642578,-3.0182926654815674,7.199999809265137,-10.949999809265137,10.5,37.868839263916016,0,
 801976,-0.682373046875,-0.195068359375,-1.631103515625,-130.5792694091797,-94.7256088256836,136.5548858642578,7.5,-9.899999618530273,10.800000190734863,38.06053161621094,0,
 801986,-0.646484375,-0.119140625,-0.961181640625,-117.56098175048828,-194.57318115234375,184.3292694091797,9.899999618530273,-10.199999809265137,10.800000190734863,37.91676330566406,0,
 801996,-0.863525390625,0.213623046875,-0.572998046875,-91.03659057617188,-120.94512176513672,264.6646423339844,10.199999809265137,-11.850000381469727,10.800000190734863,37.96468734741211,0,
 802006,-0.728271484375,0.4228515625,-0.80908203125,-59.024391174316406,-47.74390411376953,169.14634704589844,10.199999809265137,-11.850000381469727,10.800000190734863,37.62922668457031,0,
 802016,-0.266357421875,-0.035400390625,-1.362548828125,2.3475611209869385,-15.945122718811035,19.45121955871582,10.5,-14.399999618530273,10.949999809265137,37.91676330566406,0,
 802056,-0.421142578125,-0.69775390625,-1.175048828125,108.20122528076172,-21.310976028442383,-64.29878234863281,13.649999618530273,-13.800000190734863,8.550000190734863,37.96468734741211,0,
 802066,-0.78759765625,-0.5810546875,-0.78857421875,33.20122146606445,-105.70122528076172,-31.310976028442383,14.100000381469727,-13.050000190734863,8.25,37.868839263916016,0,
 802076,-0.886962890625,-0.25732421875,-0.66162109375,-35.182926177978516,-118.20122528076172,-20.487804412841797,13.649999618530273,-12.149999618530273,7.800000190734863,38.108455657958984,0,
 802086,-0.80224609375,-0.47265625,-0.476806640625,-13.963415145874023,0.7317073345184326,7.256097793579102,15.899999618530273,-14.550000190734863,8.25,37.96468734741211,0,
 802096,-0.63330078125,-0.48095703125,-0.86376953125,-62.74390411376953,-0.9146341681480408,21.0060977935791,15.899999618530273,-14.550000190734863,8.25,37.581302642822266,0,
 802106,-0.539794921875,-0.23974609375,-0.87060546875,-31.067073822021484,-29.481708526611328,24.60365867614746,14.699999809265137,-14.399999618530273,8.399999618530273,37.96468734741211,0,
 802116,-0.6689453125,-0.12939453125,-0.7841796875,0.24390244483947754,-27.164634704589844,13.719512939453125,15.149999618530273,-13.800000190734863,7.5,37.91676330566406,0,
 802126,-0.738525390625,-0.230712890625,-0.73095703125,-7.012195110321045,-8.231707572937012,12.560976028442383,13.050000190734863,-14.399999618530273,8.699999809265137,37.77299499511719,0,
 802136,-0.667724609375,-0.19921875,-0.72607421875,-6.097560882568359,1.0060975551605225,10.27439022064209,13.050000190734863,-14.399999618530273,8.699999809265137,37.77299499511719,0,
 802146,-0.650390625,-0.248046875,-0.75341796875,-10.42682933807373,2.2865853309631348,14.664634704589844,14.850000381469727,-14.25,7.800000190734863,37.62922668457031,0,
 802156,-0.597900390625,-0.240234375,-0.762939453125,-17.19512176513672,-5.4268293380737305,15.70121955871582,14.699999809265137,-13.649999618530273,9.149999618530273,37.72507095336914,0,
 802166,-0.627685546875,-0.132080078125,-0.77001953125,-19.817073822021484,0.3048780560493469,11.52439022064209,14.850000381469727,-15.300000190734863,6.75,37.77299499511719,0,
 802176,-0.610107421875,-0.0927734375,-0.747802734375,-13.018293380737305,1.8292683362960815,7.378048896789551,16.799999237060547,-15.0,7.5,37.77299499511719,0,
 802186,-0.58642578125,-0.047607421875,-0.853271484375,11.432927131652832,-4.329268455505371,0.09146341681480408,16.799999237060547,-15.0,7.5,37.72507095336914,0,
 802196,-0.59228515625,-0.169677734375,-0.83935546875,10.54878044128418,-7.9268293380737305,-2.103658676147461,15.600000381469727,-16.200000762939453,9.0,37.868839263916016,0,
 802206,-0.607177734375,-0.20263671875,-0.79541015625,10.670731544494629,-5.884146690368652,-1.1280487775802612,15.600000381469727,-14.25,9.300000190734863,37.868839263916016,0,
 802216,-0.59716796875,-0.245361328125,-0.86279296875,1.0670732259750366,-6.981707572937012,1.0365853309631348,14.699999809265137,-16.350000381469727,7.199999809265137,37.72507095336914,0,
 802226,-0.535400390625,-0.227783203125,-0.835693359375,1.7987805604934692,-12.865854263305664,3.47560977935791,14.699999809265137,-16.350000381469727,7.199999809265137,37.96468734741211,0,
 802236,-0.54541015625,-0.232177734375,-0.8701171875,-0.9756097793579102,-16.371952056884766,4.603658676147461,17.100000381469727,-15.300000190734863,7.050000190734863,38.06053161621094,0,
 802246,-0.528564453125,-0.169189453125,-0.944580078125,10.945121765136719,-24.08536720275879,3.3231709003448486,15.0,-15.600000381469727,7.949999809265137,37.91676330566406,0,
 802367,-1.133544921875,0.247314453125,-1.0888671875,-347.83538818359375,85.36585235595703,107.56098175048828,13.649999618530273,-9.899999618530273,3.0,37.72507095336914,0,
 802377,-1.3642578125,1.029296875,-0.995849609375,-253.44512939453125,257.0426940917969,110.82317352294922,12.899999618530273,-15.0,7.5,37.868839263916016,0,
 802397,0.107421875,0.356689453125,-0.97509765625,97.07317352294922,389.1158752441406,-7.713414669036865,8.850000381469727,-16.350000381469727,9.899999618530273,37.72507095336914,0,
 802407,-0.41943359375,-0.195556640625,-0.14404296875,142.19512939453125,282.1646423339844,11.585366249084473,8.850000381469727,-16.350000381469727,9.899999618530273,37.96468734741211,0,
 802417,-0.287353515625,-0.0595703125,0.109375,37.28658676147461,324.51220703125,36.128047943115234,5.099999904632568,-15.149999618530273,10.949999809265137,37.96468734741211,0,
 802427,0.177978515625,-0.049072265625,0.528076171875,10.182927131652832,350.3658752441406,54.57317352294922,2.25,-14.25,12.0,37.91676330566406,0,
 802437,0.5439453125,0.135009765625,0.489990234375,53.01829528808594,275.1219482421875,41.49390411376953,0.44999998807907104,-14.399999618530273,10.199999809265137,37.72507095336914,0,
 802447,0.104736328125,0.1416015625,0.478515625,68.04878234863281,168.9329376220703,10.609756469726562,0.44999998807907104,-14.399999618530273,10.199999809265137,37.581302642822266,0,
 802457,0.05908203125,0.0390625,1.083740234375,43.38414764404297,78.50609588623047,-4.969512462615967,0.44999998807907104,-14.399999618530273,10.199999809265137,37.72507095336914,0,
 802467,-0.2587890625,0.292236328125,1.208740234375,2.4695122241973877,81.9817123413086,11.310976028442383,-3.75,-14.25,10.800000190734863,37.91676330566406,0,
 802477,-0.36962890625,0.244140625,0.67724609375,14.237805366516113,144.3292694091797,-22.5,-6.0,-11.850000381469727,12.75,37.91676330566406,0,
 802487,-0.3828125,-0.129150390625,0.485595703125,10.457317352294922,147.65243530273438,-70.21341705322266,-6.0,-11.850000381469727,12.75,37.96468734741211,0,
 802497,-0.68212890625,0.001220703125,0.49462890625,-32.07316970825195,105.12195587158203,-87.16463470458984,-6.0,-11.850000381469727,12.75,37.77299499511719,0,
 802507,-1.33349609375,0.357666015625,0.3916015625,-107.34756469726562,88.2317123413086,-121.46341705322266,-10.199999809265137,-10.649999618530273,12.75,38.06053161621094,0,
 802517,-1.550048828125,0.305419921875,0.16552734375,-58.506099700927734,103.14024353027344,-155.06097412109375,-7.800000190734863,-10.050000190734863,13.949999809265137,37.91676330566406,0,
 802527,-1.392578125,0.012451171875,0.09814453125,69.81707763671875,85.57926940917969,-145.91464233398438,-8.399999618530273,-11.399999618530273,11.550000190734863,37.91676330566406,0,
 802537,-0.623291015625,0.061767578125,-0.790771484375,101.67683410644531,29.63414764404297,-196.06707763671875,-8.399999618530273,-11.399999618530273,11.550000190734863,37.91676330566406,0,
 802567,6.3232421875,0.39453125,4.1865234375,103.32317352294922,-913.4146728515625,2.22560977935791,-3.1500000953674316,-20.25,13.949999809265137,37.77299499511719,0,
 802577,-1.6103515625,2.04296875,-4.7744140625,980.0609741210938,-464.3597717285156,-261.95123291015625,-3.1500000953674316,-20.25,13.949999809265137,37.96468734741211,0,
 802587,-4.78759765625,-4.1904296875,0.65625,-192.86585998535156,-190.51829528808594,-48.963417053222656,-3.75,-9.449999809265137,13.949999809265137,37.77299499511719,0,
 802597,-1.592041015625,-1.851806640625,-0.7529296875,-679.3292846679688,96.37195587158203,-99.78659057617188,-4.5,-7.5,9.300000190734863,37.91676330566406,0,
 802607,0.880126953125,1.461181640625,-1.025634765625,-430.7317199707031,-322.2256164550781,-98.32317352294922,-1.649999976158142,-6.0,12.899999618530273,38.06053161621094,0,
 802617,1.573974609375,1.361083984375,0.184814453125,-82.6524429321289,-473.6280517578125,11.219511985778809,1.0499999523162842,-9.449999809265137,13.5,37.77299499511719,0,
 802627,-0.0390625,-0.32275390625,0.269287109375,140.94512939453125,-300.6707458496094,56.34146499633789,1.0499999523162842,-9.449999809265137,13.5,37.77299499511719,0,
 802637,-1.95947265625,-0.162841796875,-1.367919921875,659.4207763671875,-266.8597717285156,34.603660583496094,7.349999904632568,-12.75,9.449999809265137,37.77299499511719,0,
 802647,-2.480224609375,-2.29296875,-2.874267578125,311.31097412109375,-227.86585998535156,56.82926940917969,9.149999618530273,-9.899999618530273,7.050000190734863,37.77299499511719,0,
 802657,-0.6650390625,-2.952392578125,0.0166015625,-325.06097412109375,-181.03659057617188,117.04268646240234,10.5,-8.399999618530273,7.199999809265137,37.91676330566406,0,
 802667,-0.581787109375,0.3310546875,-2.084228515625,-188.78048706054688,-213.68902587890625,98.4756088256836,10.5,-8.399999618530273,7.199999809265137,37.96468734741211,0,
 802677,-1.90625,0.41943359375,-2.251220703125,51.09756088256836,-261.0975646972656,265.8536682128906,13.050000190734863,-13.949999809265137,7.949999809265137,37.91676330566406,0,
 802687,-1.2255859375,-0.030029296875,0.26220703125,66.1280517578125,-149.4512176513672,248.10975646972656,15.600000381469727,-15.0,7.800000190734863,37.581302642822266,0,
 802697,-1.509765625,0.0517578125,-0.603271484375,-223.0487823486328,93.14024353027344,24.115854263305664,15.0,-15.899999618530273,6.900000095367432,37.96468734741211,0,
 802707,-0.80615234375,0.194091796875,-1.39794921875,-223.44512939453125,22.7439022064209,-46.7378044128418,15.0,-17.100000381469727,7.949999809265137,37.581302642822266,0,
 802717,-0.561279296875,0.240966796875,-0.796875,3.9024391174316406,-108.59756469726562,0.3658536672592163,15.0,-17.100000381469727,7.949999809265137,37.91676330566406,0,
 802727,-0.588134765625,-0.35400390625,-0.7333984375,129.1768341064453,-110.45732116699219,-32.256099700927734,16.5,-15.600000381469727,7.199999809265137,37.96468734741211,0,
 802737,-0.708251953125,-0.3544921875,-0.7001953125,90.60975646972656,-98.68902587890625,-49.84756088256836,16.5,-15.149999618530273,5.400000095367432,37.72507095336914,0,
 802767,-0.6611328125,-0.705810546875,-0.36474609375,51.432926177978516,-42.256099700927734,34.35975646972656,19.049999237060547,-10.949999809265137,1.7999999523162842,38.06053161621094,0,
 802777,-0.929931640625,-0.244873046875,-0.269287109375,-95.45732116699219,-55.70122146606445,54.54268264770508,17.850000381469727,-14.25,4.5,37.91676330566406,0,
 802787,-0.93359375,-0.1630859375,-0.447509765625,-79.75609588623047,16.280488967895508,55.060977935791016,17.100000381469727,-15.0,6.300000190734863,37.72507095336914,0,
 802797,-0.650146484375,-0.115478515625,-0.730224609375,-73.56707763671875,77.59146881103516,43.780487060546875,18.600000381469727,-15.0,5.550000190734863,37.96468734741211,0,
 802807,-0.429443359375,0.068603515625,-1.09912109375,-86.61585235595703,59.48170852661133,23.04878044128418,18.600000381469727,-15.0,5.550000190734863,37.72507095336914,0,
 802817,-0.62841796875,-0.0029296875,-0.8466796875,-14.02439022064209,-9.72560977935791,23.628049850463867,17.850000381469727,-17.399999618530273,6.300000190734863,38.06053161621094,0,
 802827,-0.633544921875,-0.202880859375,-0.889404296875,8.658536911010742,-4.512195110321045,13.506097793579102,17.850000381469727,-16.200000762939453,7.5,37.91676330566406,0,
 802837,-0.526611328125,-0.003173828125,-0.9296875,-23.9939022064209,-2.1341464519500732,12.896341323852539,16.799999237060547,-16.5,4.800000190734863,37.72507095336914,0,
 802847,-0.6025390625,-0.04150390625,-0.842041015625,-1.25,-21.128049850463867,8.536585807800293,16.799999237060547,-16.5,4.800000190734863,38.06053161621094,0,
 802857,-0.6181640625,-0.076171875,-0.867919921875,6.189024448394775,-22.10365867614746,1.432926893234253,19.649999618530273,-17.100000381469727,5.400000095367432,37.91676330566406,0,
 802867,-0.588134765625,-0.1005859375,-0.793212890625,5.9146342277526855,-26.73780632019043,-5.0,17.549999237060547,-15.300000190734863,5.25,37.77299499511719,0,
 802877,-0.582763671875,-0.228515625,-0.77294921875,15.609756469726562,-30.823171615600586,-5.3353657722473145,18.0,-17.549999237060547,3.9000000953674316,37.91676330566406,0,
 802887,-0.664794921875,-0.22607421875,-0.788330078125,5.54878044128418,-31.859756469726562,-7.286585330963135,18.299999237060547,-15.75,5.25,37.77299499511719,0,
 802897,-0.680419921875,-0.18310546875,-0.7177734375,-1.737804889678955,-31.128049850463867,-4.817073345184326,18.299999237060547,-15.75,5.25,37.91676330566406,0,
 802907,-0.712646484375,-0.253662109375,-0.68994140625,11.09756088256836,-30.670732498168945,-5.97560977935791,18.600000381469727,-16.5,6.0,37.91676330566406,0,
 802917,-0.72607421875,-0.191650390625,-0.642333984375,0.18292683362960815,-24.359756469726562,-2.408536672592163,20.399999618530273,-16.799999237060547,4.650000095367432,38.06053161621094,0,
 802927,-0.732421875,-0.226318359375,-0.657470703125,6.737804889678955,-16.341463088989258,-2.2865853309631348,18.0,-18.0,5.400000095367432,37.91676330566406,0,
 802937,-0.6953125,-0.2568359375,-0.634521484375,5.54878044128418,-9.664634704589844,-1.3109756708145142,18.0,-18.0,5.400000095367432,37.62922668457031,0,
 802947,-0.7060546875,-0.209716796875,-0.705322265625,2.103658676147461,-6.8597564697265625,0.5792682766914368,19.200000762939453,-15.149999618530273,3.9000000953674316,37.91676330566406,0,
 802957,-0.69921875,-0.275634765625,-0.671630859375,7.987804889678955,-3.932926893234253,1.3109756708145142,18.600000381469727,-15.300000190734863,6.0,37.868839263916016,0,
 802977,-0.633056640625,-0.197265625,-0.761474609375,2.896341562271118,0.8536585569381714,3.079268455505371,19.950000762939453,-18.0,3.1500000953674316,38.06053161621094,0,
 802987,-0.614013671875,-0.1875,-0.819580078125,1.4939024448394775,-2.012195110321045,3.0182926654815674,19.950000762939453,-18.0,3.1500000953674316,37.91676330566406,0,
 802997,-0.6240234375,-0.179931640625,-0.938232421875,4.115853786468506,-9.420731544494629,3.628048896789551,19.200000762939453,-16.350000381469727,6.150000095367432,37.91676330566406,0,
 803007,-0.588134765625,-0.25048828125,-1.00146484375,17.7439022064209,-26.79878044128418,3.9024391174316406,18.600000381469727,-15.300000190734863,4.800000190734863,37.91676330566406,0,
 803017,-0.55322265625,-0.3095703125,-1.079345703125,16.09756088256836,-42.95731735229492,9.57317066192627,18.899999618530273,-14.399999618530273,4.650000095367432,37.96468734741211,0,
 803027,-0.53955078125,-0.356689453125,-1.14453125,20.640243530273438,-59.48170852661133,15.518293380737305,18.899999618530273,-14.399999618530273,4.650000095367432,37.72507095336914,0,
 803037,-0.512451171875,-0.4375,-1.119873046875,11.219511985778809,-79.05487823486328,21.219512939453125,19.649999618530273,-16.799999237060547,3.1500000953674316,37.868839263916016,0,
 803047,-0.59521484375,-0.430419921875,-1.177490234375,10.243902206420898,-102.07317352294922,23.963415145874023,21.299999237060547,-15.300000190734863,3.0,37.77299499511719,0,
 803057,-0.741943359375,-0.382568359375,-1.09765625,17.83536720275879,-109.84756469726562,18.475610733032227,21.0,-17.700000762939453,2.25,38.06053161621094,0,
 803067,-1.125732421875,-0.373291015625,-1.0888671875,28.14024543762207,-119.756103515625,-5.3353657722473145,20.399999618530273,-17.549999237060547,0.15000000596046448,38.06053161621094,0,
 803077,-1.268798828125,-0.419677734375,-0.604736328125,23.079269409179688,-125.79268646240234,-27.042682647705078,20.399999618530273,-17.549999237060547,0.15000000596046448,37.77299499511719,0,
 803087,-3.63671875,-0.461669921875,-1.414794921875,54.63414764404297,-68.20121765136719,-126.9817123413086,21.299999237060547,-15.300000190734863,-0.75,37.868839263916016,0,
 803097,-3.734130859375,-1.140380859375,-0.64404296875,-46.95122146606445,282.1646423339844,-118.26219940185547,19.649999618530273,-14.850000381469727,0.15000000596046448,37.77299499511719,0,
 803107,-0.882568359375,-0.557373046875,-1.54541015625,-77.1036605834961,275.18292236328125,-154.14634704589844,18.0,-13.949999809265137,1.9500000476837158,37.91676330566406,0,
 803117,-0.903076171875,-0.926513671875,-1.571044921875,-145.1219482421875,202.16464233398438,-26.4939022064209,18.0,-13.949999809265137,1.9500000476837158,37.96468734741211,0,
 803127,-1.36279296875,-0.1982421875,-1.099853515625,-158.90243530273438,309.1768493652344,-11.09756088256836,15.0,-16.350000381469727,5.699999809265137,37.72507095336914,0,
 803138,-1.49365234375,0.405517578125,-0.751220703125,-74.35975646972656,458.5365905761719,-83.99390411376953,13.5,-14.399999618530273,8.399999618530273,37.868839263916016,0,
 803148,-0.812255859375,0.298583984375,-0.853271484375,58.414634704589844,471.06707763671875,-100.54878234863281,11.399999618530273,-16.200000762939453,9.75,37.91676330566406,0,
 803158,-0.274169921875,-0.197265625,-0.5654296875,58.04878234863281,423.9939270019531,-69.54268646240234,7.199999809265137,-14.25,9.75,37.96468734741211,0,
 803168,0.1884765625,-0.16748046875,0.31982421875,-0.7012194991111755,394.8780517578125,-21.859756469726562,7.199999809265137,-14.25,9.75,37.77299499511719,0,
 803178,0.260009765625,-0.10546875,0.34521484375,9.29878044128418,382.1646423339844,1.737804889678955,3.9000000953674316,-12.75,9.449999809265137,37.72507095336914,0,
 803188,0.250244140625,-0.24365234375,0.189208984375,40.88414764404297,345.3049011230469,-15.97560977935791,0.15000000596046448,-12.75,12.149999618530273,38.06053161621094,0,
 803198,0.166015625,-0.4052734375,0.389404296875,61.49390411376953,253.44512939453125,-43.68902587890625,-1.7999999523162842,-13.800000190734863,12.75,37.96468734741211,0,
 803208,0.157958984375,-0.40380859375,0.54345703125,65.09146118164062,182.6219482421875,-69.69512176513672,-1.7999999523162842,-13.800000190734863,12.75,37.77299499511719,0,
 803218,0.177734375,-0.261962890625,0.49462890625,37.408538818359375,127.07317352294922,-102.5,-5.699999809265137,-15.0,12.300000190734863,37.96468734741211,0,
 803228,0.12646484375,0.108154296875,0.429443359375,-25.823171615600586,99.756103515625,-113.6280517578125,-6.449999809265137,-14.550000190734863,13.050000190734863,37.72507095336914,0,
 803238,0.063232421875,0.543212890625,0.391357421875,-88.2317123413086,86.58536529541016,-103.87195587158203,-7.949999809265137,-14.550000190734863,12.300000190734863,37.96468734741211,0,
 803248,-0.033447265625,0.708251953125,0.162109375,-1.25,85.94512176513672,-107.2256088256836,-11.399999618530273,-12.149999618530273,12.0,37.96468734741211,0,
 803258,0.154052734375,0.190673828125,0.072998046875,121.28048706054688,101.1280517578125,-136.06707763671875,-11.399999618530273,-12.149999618530273,12.0,37.77299499511719,0,
 803268,0.059326171875,0.01171875,-0.13525390625,71.89024353027344,85.42683410644531,-134.6341552734375,-12.0,-9.300000190734863,12.899999618530273,38.06053161621094,0,
 803278,-0.096435546875,0.108154296875,-0.356689453125,-6.707317352294922,75.7317123413086,-107.04268646240234,-13.050000190734863,-9.300000190734863,11.399999618530273,37.62922668457031,0,
 803288,0.129638671875,0.001953125,-0.22998046875,19.207317352294922,114.8780517578125,-87.80487823486328,-12.75,-10.800000190734863,11.399999618530273,37.72507095336914,0,
 803298,-0.1201171875,-0.00439453125,-0.51806640625,55.70122146606445,128.0792694091797,-95.76219940185547,-12.75,-10.800000190734863,11.399999618530273,37.96468734741211,0,
 803308,-0.316162109375,-0.21923828125,-0.515380859375,83.78048706054688,123.506103515625,-107.2256088256836,-14.100000381469727,-9.899999618530273,10.5,38.108455657958984,0,
 803318,-0.435791015625,-0.308837890625,-0.27490234375,71.9817123413086,95.60975646972656,-91.31097412109375,-13.800000190734863,-10.050000190734863,10.199999809265137,37.96468734741211,0,
 803328,-0.473876953125,0.281982421875,-0.483154296875,-32.317073822021484,56.89024353027344,-48.01829528808594,-11.699999809265137,-9.899999618530273,12.0,37.62922668457031,0,
 803338,4.115966796875,0.489013671875,-6.454345703125,231.21951293945312,329.2378234863281,38.90243911743164,-13.5,-7.199999809265137,11.699999809265137,37.91676330566406,0,
 803348,4.89794921875,-0.71875,1.68798828125,18.871952056884766,-48.719512939453125,167.7134246826172,-13.5,-7.199999809265137,11.699999809265137,37.91676330566406,0,
 803358,-2.201416015625,2.5224609375,-7.2509765625,-141.76829528808594,-306.18902587890625,198.68902587890625,-11.399999618530273,-11.399999618530273,12.75,37.96468734741211,0,
 803368,-4.146728515625,-2.239990234375,1.13720703125,573.3841552734375,-251.18902587890625,-163.68902587890625,-11.399999618530273,-8.699999809265137,10.050000190734863,37.72507095336914,0,
 803378,0.43701171875,-2.462158203125,-1.21044921875,175.15245056152344,-108.44512176513672,-40.67073440551758,-10.800000190734863,-6.0,10.199999809265137,37.62922668457031,0,
 803388,-0.2158203125,-0.460205078125,-2.8271484375,-165.4573211669922,269.8780517578125,-8.170731544494629,-10.800000190734863,-6.0,10.199999809265137,37.91676330566406,0,
 803398,-0.880126953125,-0.42333984375,-2.15673828125,-63.90243911743164,-234.72561645507812,-160.1829376220703,-11.25,-5.699999809265137,9.149999618530273,37.91676330566406,0,
 803408,0.2041015625,-1.35693359375,0.2734375,271.6768493652344,-182.9268341064453,34.54268264770508,-8.550000190734863,-4.5,9.449999809265137,37.62922668457031,0,
 803418,-0.3662109375,-0.879150390625,-1.101806640625,160.06097412109375,-99.8780517578125,128.1707305908203,-7.800000190734863,-3.75,10.949999809265137,37.96468734741211,0,
 803428,-0.28173828125,-0.629150390625,-0.6025390625,-136.4329376220703,-48.90243911743164,-27.225610733032227,-9.449999809265137,-5.849999904632568,11.550000190734863,37.96468734741211,0,
 803438,-0.207763671875,-0.541015625,-0.8876953125,-47.408538818359375,35.853660583496094,31.371952056884766,-9.449999809265137,-5.849999904632568,11.550000190734863,37.91676330566406,0,
 803448,0.106689453125,-0.773681640625,-1.076416015625,-7.256097793579102,51.1280517578125,21.73780632019043,-8.699999809265137,-6.599999904632568,9.75,37.72507095336914,0,
 803458,-0.218505859375,-0.664794921875,-0.827880859375,-102.92683410644531,30.579269409179688,20.365854263305664,-7.349999904632568,-6.900000095367432,10.649999618530273,37.96468734741211,0,
 803468,-0.28271484375,-0.44677734375,-0.90380859375,-115.24390411376953,55.4878044128418,23.93292808532715,-9.149999618530273,-6.599999904632568,10.800000190734863,37.77299499511719,0,
 803478,0.007080078125,-0.33544921875,-0.947509765625,-91.73780822753906,21.280488967895508,32.378047943115234,-9.149999618530273,-6.599999904632568,10.800000190734863,37.91676330566406,0,
 803488,0.275634765625,-0.06201171875,-0.861572265625,-18.414634704589844,-6.189024448394775,18.536584854125977,-7.949999809265137,-8.25,8.550000190734863,38.06053161621094,0,
 803498,0.14599609375,-0.168212890625,-0.82373046875,21.676830291748047,-10.54878044128418,17.5,-7.800000190734863,-8.399999618530273,13.649999618530273,37.96468734741211,0,
 803508,0.04150390625,-0.31884765625,-0.91650390625,9.908536911010742,-9.756097793579102,10.518293380737305,-8.399999618530273,-7.800000190734863,12.300000190734863,37.868839263916016,0,
 803518,-0.036865234375,-0.386474609375,-0.872314453125,-9.72560977935791,9.756097793579102,7.469512462615967,-7.800000190734863,-8.100000381469727,12.149999618530273,37.77299499511719,0,
 803528,0.16796875,-0.29736328125,-0.950439453125,-15.0,-1.0060975551605225,-0.8536585569381714,-7.800000190734863,-8.100000381469727,12.149999618530273,37.91676330566406,0,
 803538,0.17333984375,-0.378173828125,-0.84033203125,-26.920732498168945,-3.3841464519500732,12.77439022064209,-7.800000190734863,-8.850000381469727,13.199999809265137,37.77299499511719,0,
 803548,0.09716796875,-0.412353515625,-0.887939453125,-54.085365295410156,-6.829268455505371,18.719512939453125,-7.5,-8.25,12.75,38.15637969970703,0,
 803558,0.144775390625,-0.297607421875,-0.82861328125,-47.65243911743164,-20.792682647705078,25.457317352294922,-7.800000190734863,-9.600000381469727,12.149999618530273,37.96468734741211,0,
 803568,0.049560546875,-0.232421875,-1.141845703125,21.43292808532715,-43.47561264038086,13.262195587158203,-7.800000190734863,-9.600000381469727,12.149999618530273,37.533382415771484,0,
 803578,-0.326171875,-0.5380859375,-1.175048828125,8.567073822021484,-21.371952056884766,2.896341562271118,-6.449999809265137,-7.800000190734863,12.300000190734863,37.96468734741211,0,
 803588,-0.18701171875,-0.58251953125,-0.9873046875,-23.323171615600586,-7.195122241973877,3.079268455505371,-5.400000095367432,-8.100000381469727,10.199999809265137,37.96468734741211,0,
 803598,-0.0537109375,-0.364013671875,-1.108642578125,9.603658676147461,-17.13414764404297,2.103658676147461,-7.949999809265137,-9.0,13.050000190734863,37.96468734741211,0,
 803608,-0.095458984375,-0.5390625,-0.953125,-17.19512176513672,-12.65243911743164,4.878048896789551,-6.599999904632568,-8.100000381469727,12.899999618530273,37.72507095336914,0,
 803618,-0.0595703125,-0.31494140625,-0.958984375,-3.9024391174316406,-11.09756088256836,2.317073106765747,-6.599999904632568,-8.100000381469727,12.899999618530273,37.72507095336914,0,
 803628,0.013916015625,-0.34326171875,-0.940673828125,4.29878044128418,-20.30487823486328,-1.7682926654815674,-8.100000381469727,-8.850000381469727,12.899999618530273,37.77299499511719,0,
 803638,0.030029296875,-0.466796875,-0.915771484375,9.84756088256836,-22.408536911010742,-1.2195122241973877,-7.050000190734863,-8.100000381469727,12.899999618530273,38.15637969970703,0,
 803648,-0.046630859375,-0.496826171875,-1.0185546875,0.3658536672592163,-26.920732498168945,4.45121955871582,-6.449999809265137,-8.25,12.300000190734863,38.06053161621094,0,
 803658,-0.151611328125,-0.517333984375,-1.02685546875,-2.591463565826416,-30.121952056884766,5.762195110321045,-6.449999809265137,-8.25,12.300000190734863,37.96468734741211,0,
 803668,-0.163330078125,-0.517333984375,-1.05859375,-7.865853786468506,-25.823171615600586,7.5,-7.5,-9.0,12.75,37.77299499511719,0,
 803698,-0.20263671875,-0.345703125,-1.24462890625,-14.664634704589844,-76.15853881835938,28.93292808532715,-6.0,-10.199999809265137,12.0,37.91676330566406,0,
 803708,-0.15283203125,-0.46484375,-1.23828125,4.146341323852539,-49.32926940917969,18.20121955871582,-6.0,-10.199999809265137,12.0,37.96468734741211,0,
 803718,-0.184814453125,-0.358642578125,-1.006103515625,1.585365891456604,-53.90243911743164,8.262195587158203,-4.650000095367432,-9.600000381469727,13.649999618530273,37.72507095336914,0,
 803728,-0.19873046875,-0.363037109375,-1.202392578125,4.02439022064209,-55.82317352294922,5.5182929039001465,-4.949999809265137,-10.199999809265137,13.800000190734863,37.91676330566406,0,
 803738,-0.21923828125,-0.550048828125,-1.07568359375,12.896341323852539,-65.0,1.920731782913208,-4.5,-10.949999809265137,13.5,38.06053161621094,0,
 803748,-0.173828125,-0.335205078125,-1.05322265625,-31.158536911010742,-60.82317352294922,4.72560977935791,-4.5,-10.949999809265137,13.5,37.91676330566406,0,
 803758,-0.150634765625,-0.23291015625,-1.024658203125,-41.49390411376953,-60.73170852661133,2.682926893234253,-2.4000000953674316,-9.600000381469727,13.649999618530273,38.25222396850586,0,
 803768,-0.38916015625,-0.304931640625,-1.179443359375,-28.018293380737305,-66.28048706054688,-3.9024391174316406,-2.4000000953674316,-10.050000190734863,12.149999618530273,37.96468734741211,0,
 803778,-1.0205078125,-0.3173828125,-1.320068359375,-12.5,-74.4817123413086,-18.323171615600586,-3.1500000953674316,-8.399999618530273,10.949999809265137,37.868839263916016,0,
 803788,-0.851318359375,-0.48876953125,-0.78515625,16.524391174316406,-55.18292999267578,-36.89024353027344,-2.25,-10.199999809265137,13.5,37.96468734741211,0,
 803798,-0.431396484375,-0.388671875,-0.683837890625,-17.80487823486328,-1.6463414430618286,-35.73170852661133,-2.25,-10.199999809265137,13.5,37.96468734741211,0,
 803808,-0.376708984375,0.064453125,-0.7236328125,-96.15853881835938,-5.243902683258057,-11.52439022064209,-1.2000000476837158,-10.800000190734863,13.199999809265137,37.91676330566406,0,
 803818,-0.710693359375,0.1875,-0.55517578125,-114.4817123413086,-26.0060977935791,16.981708526611328,-1.7999999523162842,-10.199999809265137,12.300000190734863,37.77299499511719,0,
 803828,-1.4169921875,0.3076171875,-1.255615234375,-57.560977935791016,-45.121952056884766,36.70731735229492,-2.4000000953674316,-10.800000190734863,12.899999618530273,37.91676330566406,0,
 803838,-0.94921875,-0.34765625,-0.53857421875,42.256099700927734,45.7621955871582,-8.262195587158203,-2.4000000953674316,-10.800000190734863,12.899999618530273,37.77299499511719,0,
 803848,-0.74853515625,-0.412841796875,-0.773193359375,17.13414764404297,65.30487823486328,-24.176830291748047,-3.1500000953674316,-10.350000381469727,13.649999618530273,37.91676330566406,0,
 803858,-0.417236328125,-0.242919921875,-0.534912109375,-37.682926177978516,75.03048706054688,-16.09756088256836,-5.25,-10.649999618530273,13.5,37.77299499511719,0,
 803868,-0.695068359375,-0.315673828125,-1.032470703125,-23.109756469726562,81.5243911743164,-8.353658676147461,-5.400000095367432,-11.25,13.199999809265137,38.06053161621094,0,
 803898,0.044677734375,-0.27978515625,-0.6943359375,-0.12195122241973877,130.1219482421875,24.908536911010742,-6.599999904632568,-12.0,8.699999809265137,37.96468734741211,0,
 803918,0.398681640625,-0.461181640625,-1.1064453125,17.2560977935791,19.207317352294922,120.51829528808594,-8.100000381469727,-12.0,12.899999618530273,38.06053161621094,0,
 803928,0.451416015625,-0.61767578125,-1.108642578125,48.47561264038086,5.121951103210449,131.7073211669922,-8.100000381469727,-12.0,12.899999618530273,38.108455657958984,0,
 803939,0.557373046875,-0.73193359375,-1.41552734375,80.9756088256836,7.957317352294922,125.18292999267578,-6.599999904632568,-13.949999809265137,13.649999618530273,38.06053161621094,0,
 803949,0.841552734375,-1.020263671875,-1.50927734375,98.71951293945312,16.128049850463867,104.11585235595703,-7.949999809265137,-13.350000381469727,11.25,37.96468734741211,0,
 803959,1.3017578125,-1.37451171875,-1.450927734375,8.231707572937012,27.28658676147461,74.51219940185547,-6.0,-12.600000381469727,10.5,37.77299499511719,0,
 803969,1.310546875,-1.133056640625,-1.486083984375,-9.390244483947754,35.15243911743164,47.13414764404297,-6.449999809265137,-15.0,11.25,38.108455657958984,0,
 803979,1.4873046875,-0.914794921875,-1.3115234375,0.27439025044441223,30.518293380737305,18.323171615600586,-6.449999809265137,-15.0,11.25,37.62922668457031,0,
 803989,1.4130859375,-0.73291015625,-1.316162109375,17.83536720275879,26.676830291748047,-14.29878044128418,-8.100000381469727,-13.199999809265137,10.649999618530273,37.91676330566406,0,
 803999,1.1748046875,-0.68798828125,-1.211669921875,18.536584854125977,43.04878234863281,-35.914634704589844,-6.75,-11.850000381469727,8.25,38.06053161621094,0,
 804009,1.14990234375,-0.576416015625,-1.17236328125,10.853658676147461,46.92073440551758,-45.97561264038086,-5.849999904632568,-12.0,11.399999618530273,37.72507095336914,0,
 804019,0.83984375,-0.400634765625,-1.0927734375,21.95121955871582,67.86585235595703,-46.18902587890625,-5.849999904632568,-12.0,11.399999618530273,37.96468734741211,0,
 804029,0.666748046875,-0.31884765625,-0.931640625,20.823171615600586,82.5,-37.95731735229492,-6.0,-12.149999618530273,9.75,37.91676330566406,0,
 804039,0.548583984375,-0.219970703125,-0.682373046875,15.060976028442383,101.25,-23.20121955871582,-9.300000190734863,-12.0,11.699999809265137,37.91676330566406,0,
 804049,0.455810546875,-0.134765625,-0.411376953125,35.42683029174805,123.17073822021484,-12.22560977935791,-9.899999618530273,-13.050000190734863,11.550000190734863,38.108455657958984,0,
 804059,0.359375,-0.20654296875,-0.1611328125,48.38414764404297,145.15243530273438,-17.89634132385254,-10.800000190734863,-11.550000190734863,11.399999618530273,37.72507095336914,0,
 804069,0.262939453125,-0.3662109375,-0.01025390625,32.9878044128418,153.1707305908203,-33.07926940917969,-10.800000190734863,-11.550000190734863,11.399999618530273,37.72507095336914,0,
 804079,-0.044921875,-0.3515625,0.296875,24.908536911010742,144.57318115234375,-57.07317352294922,-11.25,-11.25,10.949999809265137,38.06053161621094,0,
 804099,-0.76806640625,-0.561767578125,0.1376953125,70.70121765136719,108.71951293945312,-137.22561645507812,-14.399999618530273,-10.199999809265137,8.25,37.96468734741211,0,
 804109,-0.72900390625,-0.1494140625,-0.019775390625,17.65243911743164,88.26219940185547,-169.60366821289062,-14.399999618530273,-10.199999809265137,8.25,37.91676330566406,0,
 804119,-1.17236328125,1.060546875,-0.361328125,-112.95732116699219,66.34146118164062,-178.01829528808594,-16.350000381469727,-9.449999809265137,12.300000190734863,37.77299499511719,0,
 804129,-3.78076171875,3.755615234375,-4.33447265625,-670.7317504882812,-9.87804889678955,-92.89634704589844,-16.5,-11.25,12.449999809265137,37.96468734741211,0,
 804139,-2.994140625,-0.648681640625,1.2001953125,284.93902587890625,30.121952056884766,-118.84146881103516,-17.850000381469727,-11.850000381469727,10.800000190734863,38.06053161621094,0,
 804149,0.43212890625,-1.59375,3.198974609375,643.9634399414062,70.60975646972656,4.45121955871582,-18.899999618530273,-6.900000095367432,9.149999618530273,37.91676330566406,0,
 804159,-1.951416015625,0.419677734375,-1.7021484375,-332.9268493652344,-4.237804889678955,66.31097412109375,-18.899999618530273,-6.900000095367432,9.149999618530273,37.91676330566406,0,
 804169,-3.244384765625,-1.427734375,0.33642578125,-41.585365295410156,-249.90853881835938,-163.68902587890625,-18.600000381469727,-9.0,10.800000190734863,37.868839263916016,0,
 804179,-1.81201171875,-0.525146484375,-0.82373046875,79.51219940185547,-132.65243530273438,146.25,-17.850000381469727,-8.25,8.550000190734863,37.72507095336914,0,
 804189,7.868408203125,-1.131103515625,-7.999755859375,305.7926940917969,351.2804870605469,184.78659057617188,-17.850000381469727,-4.349999904632568,8.25,37.91676330566406,0,
 804199,7.197998046875,-2.17626953125,3.63623046875,520.030517578125,290.18292236328125,189.0548858642578,-17.850000381469727,-4.349999904632568,8.25,37.868839263916016,0,
 804209,2.479736328125,0.01025390625,5.47509765625,-999.0244140625,-347.2865905761719,429.57318115234375,-9.899999618530273,-17.399999618530273,13.050000190734863,37.72507095336914,0,
 804219,-5.360595703125,6.154296875,-7.999755859375,421.1585388183594,-770.518310546875,14.57317066192627,-7.5,-16.5,16.799999237060547,37.91676330566406,0,
 804229,-1.49267578125,-6.483154296875,4.3466796875,998.993896484375,138.75,-517.4695434570312,-13.050000190734863,-4.050000190734863,7.650000095367432,37.91676330566406,0,
 804239,1.320068359375,-3.046142578125,-2.581787109375,-284.4817199707031,174.84756469726562,-194.93902587890625,-18.299999237060547,-1.0499999523162842,7.5,37.91676330566406,0,
 804249,-0.198486328125,1.264404296875,-1.914794921875,-913.7195434570312,-26.25,-156.8292694091797,-18.299999237060547,-1.0499999523162842,7.5,37.868839263916016,0,
 804259,-0.755615234375,1.24072265625,-0.4853515625,-397.256103515625,-311.06707763671875,-88.9024429321289,-13.350000381469727,-7.800000190734863,12.75,37.91676330566406,0,
 804269,-0.810791015625,0.02490234375,-0.384033203125,504.268310546875,-99.54268646240234,92.07317352294922,-9.899999618530273,-5.849999904632568,11.550000190734863,37.77299499511719,0,
 804279,0.037109375,-1.965087890625,-0.421142578125,453.8719482421875,2.0731706619262695,53.14024353027344,-10.800000190734863,-5.25,9.449999809265137,37.96468734741211,0,
 804289,0.149658203125,-2.2021484375,-1.57421875,112.62195587158203,-90.9756088256836,38.20122146606445,-10.800000190734863,-5.25,9.449999809265137,37.96468734741211,0,
 804309,0.04931640625,0.14599609375,-0.66943359375,-123.68902587890625,-25.33536720275879,49.69512176513672,-8.550000190734863,-7.199999809265137,7.650000095367432,37.62922668457031,0,
 804319,-0.13134765625,-0.85546875,-1.26416015625,38.90243911743164,46.79878234863281,-13.384146690368652,-9.300000190734863,-7.650000095367432,9.899999618530273,37.96468734741211,0,
 804329,0.038818359375,-0.861083984375,-0.337646484375,-80.03048706054688,30.09146499633789,7.560975551605225,-10.050000190734863,-7.199999809265137,12.449999809265137,37.91676330566406,0,
 804339,0.04248046875,-0.13916015625,-1.110107421875,-165.85366821289062,24.969512939453125,18.841463088989258,-10.050000190734863,-7.199999809265137,12.449999809265137,37.77299499511719,0,
 804349,-0.2744140625,-0.34033203125,-0.765869140625,-54.63414764404297,16.79878044128418,-19.115854263305664,-9.149999618530273,-6.599999904632568,12.75,38.06053161621094,0,
 804359,0.0078125,-0.472900390625,-1.0654296875,8.32317066192627,16.707317352294922,3.0487804412841797,-9.149999618530273,-6.599999904632568,11.550000190734863,37.72507095336914,0,
 804369,-0.0126953125,-0.51513671875,-1.10205078125,-50.182926177978516,1.432926893234253,34.05487823486328,-10.199999809265137,-7.050000190734863,11.550000190734863,37.868839263916016,0,
 804379,-0.057373046875,-0.277587890625,-1.04638671875,-27.7439022064209,12.5,34.14634323120117,-10.199999809265137,-7.050000190734863,11.550000190734863,37.91676330566406,0,
 804389,0.115966796875,-0.34716796875,-1.0234375,-26.128049850463867,10.27439022064209,18.810976028442383,-10.050000190734863,-9.300000190734863,10.949999809265137,38.15637969970703,0,
 804399,0.170166015625,-0.37744140625,-0.931884765625,-29.024391174316406,8.689024925231934,12.865854263305664,-8.850000381469727,-7.650000095367432,13.199999809265137,37.62922668457031,0,
 804489,0.153076171875,-0.264404296875,-0.951904296875,12.560976028442383,-25.518293380737305,-3.2012195587158203,-8.550000190734863,-9.300000190734863,12.899999618530273,37.77299499511719,0,
 804499,0.071533203125,-0.347900390625,-1.004638671875,19.908536911010742,-33.44512176513672,-5.640244007110596,-8.399999618530273,-8.699999809265137,13.050000190734863,37.72507095336914,0,
 804509,-0.03857421875,-0.38720703125,-1.04833984375,15.82317066192627,-32.07316970825195,-9.02439022064209,-10.800000190734863,-8.100000381469727,10.949999809265137,37.72507095336914,0,
 804519,0.02685546875,-0.380615234375,-1.0185546875,23.93292808532715,-43.90243911743164,-12.286585807800293,-10.800000190734863,-8.100000381469727,10.949999809265137,38.06053161621094,0,
 804529,-0.078125,-0.545654296875,-1.298583984375,-21.158536911010742,-33.90243911743164,-13.87195110321045,-8.699999809265137,-9.0,12.75,37.72507095336914,0,
 804539,0.16259765625,-0.197998046875,-1.040771484375,-76.06707763671875,-50.70122146606445,-9.45121955871582,-6.300000190734863,-8.399999618530273,12.149999618530273,37.91676330566406,0,
 804549,-0.15478515625,-0.56689453125,-1.0205078125,13.506097793579102,-71.34146881103516,-15.82317066192627,-7.949999809265137,-9.0,12.75,37.91676330566406,0,
 804559,-0.04638671875,-0.340576171875,-1.172607421875,-35.64024353027344,-49.2378044128418,-23.59756088256836,-7.949999809265137,-9.0,12.75,37.91676330566406,0,
 804569,-0.17578125,-0.38330078125,-1.063720703125,-23.780488967895508,-60.33536911010742,-23.44512176513672,-7.199999809265137,-11.399999618530273,13.800000190734863,37.96468734741211,0,
 804579,-0.333740234375,-0.575927734375,-1.267822265625,-9.87804889678955,-61.64634323120117,-21.25,-7.050000190734863,-9.600000381469727,13.199999809265137,37.91676330566406,0,
 804589,-0.62353515625,-0.555419921875,-1.205322265625,-14.786585807800293,-66.09756469726562,-26.219512939453125,-6.75,-8.25,13.050000190734863,37.96468734741211,0,
 804599,-0.5029296875,-0.449462890625,-1.027099609375,-30.0,-41.7378044128418,-26.89024543762207,-6.0,-9.0,14.550000190734863,37.62922668457031,0,
 804609,-0.3408203125,-0.348388671875,-1.001708984375,-39.5121955871582,-25.731708526611328,-26.58536720275879,-6.0,-9.0,14.550000190734863,37.868839263916016,0,
 804619,-0.21337890625,-0.342529296875,-0.878662109375,-25.0,-15.579268455505371,-17.34756088256836,-5.699999809265137,-13.050000190734863,11.550000190734863,37.96468734741211,0,
 804629,-0.193359375,-0.244873046875,-0.49560546875,-43.963417053222656,-20.975610733032227,-2.896341562271118,-5.400000095367432,-9.600000381469727,12.899999618530273,37.96468734741211,0,
 804639,-0.38720703125,0.103759765625,-0.550537109375,-93.14024353027344,-46.55487823486328,13.567073822021484,-6.599999904632568,-12.449999809265137,15.149999618530273,37.91676330566406,0,
 804649,-0.745849609375,0.2509765625,-0.6201171875,-93.14024353027344,-68.44512176513672,29.115854263305664,-6.599999904632568,-12.449999809265137,15.149999618530273,37.77299499511719,0,
 804659,-0.672119140625,0.186767578125,-0.3916015625,-55.853660583496094,-62.53049087524414,48.59756088256836,-5.400000095367432,-12.75,14.699999809265137,37.91676330566406,0,
 804669,-1.061767578125,0.193603515625,-0.753662109375,-52.469512939453125,-54.69512176513672,67.8963394165039,-4.5,-10.949999809265137,12.300000190734863,38.06053161621094,0,
 804679,-1.25537109375,-0.260498046875,-0.968994140625,45.88414764404297,-79.57317352294922,41.158538818359375,-5.699999809265137,-13.050000190734863,14.25,37.91676330566406,0,
 804689,-0.473876953125,-0.66455078125,-0.12451171875,45.914634704589844,-42.256099700927734,39.05487823486328,-4.949999809265137,-10.649999618530273,12.300000190734863,37.868839263916016,0,
 804699,-0.732421875,-0.11669921875,-1.000732421875,-71.34146881103516,-71.95121765136719,64.51219940185547,-4.949999809265137,-10.649999618530273,12.300000190734863,37.581302642822266,0,
 804709,-0.9169921875,-0.129150390625,-0.90283203125,-38.99390411376953,-114.23780822753906,75.64024353027344,-2.549999952316284,-12.600000381469727,14.550000190734863,37.91676330566406,0,
 804719,-0.8408203125,-0.34814453125,-1.12255859375,9.542683601379395,-79.66463470458984,71.67683410644531,-1.649999976158142,-12.449999809265137,10.199999809265137,37.72507095336914,0,
 804729,-0.53759765625,-0.48828125,-1.246826171875,16.40243911743164,-57.95731735229492,61.524391174316406,-0.30000001192092896,-13.350000381469727,13.5,37.96468734741211,0,
 804739,-0.38134765625,-0.4697265625,-1.2666015625,10.243902206420898,-79.20732116699219,69.8780517578125,-0.30000001192092896,-13.350000381469727,13.5,37.96468734741211,0,
 804750,-0.37353515625,-0.6455078125,-1.58740234375,34.32926940917969,-91.37195587158203,82.86585235595703,-1.2000000476837158,-13.649999618530273,13.949999809265137,37.91676330566406,0,
 804760,0.0537109375,-0.9931640625,-1.5302734375,40.39634323120117,-34.085365295410156,72.74390411376953,0.15000000596046448,-12.449999809265137,14.399999618530273,37.77299499511719,0,
 804770,0.170166015625,-0.9072265625,-1.91845703125,-3.9939024448394775,-18.810976028442383,68.10975646972656,-2.0999999046325684,-12.75,12.899999618530273,38.06053161621094,0,
 804780,0.46337890625,-0.960205078125,-1.471923828125,13.536585807800293,11.310976028442383,60.274391174316406,-0.8999999761581421,-14.399999618530273,11.399999618530273,38.06053161621094,0,
 804790,1.127685546875,-0.944091796875,-1.19091796875,23.414634704589844,61.006099700927734,52.560977935791016,-0.8999999761581421,-14.399999618530273,11.399999618530273,37.91676330566406,0,
 804800,1.26611328125,-0.734619140625,-1.010009765625,7.1646342277526855,56.79878234863281,39.54268264770508,0.0,-14.25,12.75,37.62922668457031,0,
 804820,1.190673828125,-0.72412109375,-0.8857421875,38.871952056884766,61.25,37.774391174316406,-0.75,-11.850000381469727,9.0,37.77299499511719,0,
 804830,1.19970703125,-0.725341796875,-0.934326171875,53.963417053222656,70.8536605834961,6.189024448394775,-0.75,-11.850000381469727,9.0,37.96468734741211,0,
 804840,0.990478515625,-0.713623046875,-0.89208984375,55.853660583496094,94.42073059082031,-15.762195587158203,-2.549999952316284,-14.25,10.5,37.96468734741211,0,
 804850,0.963134765625,-0.629638671875,-0.791259765625,57.835365295410156,101.31098175048828,-29.93902587890625,-4.349999904632568,-12.449999809265137,12.149999618530273,37.96468734741211,0,
 804860,0.79736328125,-0.57275390625,-0.623046875,58.414634704589844,111.25,-37.43902587890625,-3.299999952316284,-13.800000190734863,12.300000190734863,37.96468734741211,0,
 804870,0.6513671875,-0.528564453125,-0.703369140625,65.76219940185547,117.43902587890625,-49.17683029174805,-3.0,-13.350000381469727,10.050000190734863,37.77299499511719,0,
 804880,0.568115234375,-0.575927734375,-0.576171875,54.756099700927734,124.05487823486328,-65.2743911743164,-3.0,-13.350000381469727,10.050000190734863,37.91676330566406,0,
 804890,0.533935546875,-0.4931640625,-0.421142578125,43.932926177978516,120.9756088256836,-78.93292999267578,-6.449999809265137,-13.050000190734863,10.050000190734863,37.581302642822266,0,
 804900,0.416748046875,-0.31982421875,-0.350830078125,47.3780517578125,116.4024429321289,-94.42073059082031,-6.449999809265137,-12.149999618530273,11.550000190734863,37.91676330566406,0,
 804910,0.1806640625,-0.25341796875,-0.406494140625,69.57317352294922,120.9756088256836,-115.60975646972656,-6.599999904632568,-11.550000190734863,12.149999618530273,38.06053161621094,0,
 804920,0.152587890625,-0.368896484375,-0.24609375,50.67073440551758,119.42073822021484,-136.3719482421875,-6.599999904632568,-11.550000190734863,12.149999618530273,37.96468734741211,0,
 804930,0.011474609375,-0.31787109375,-0.438232421875,45.30487823486328,114.6036605834961,-154.66464233398438,-9.899999618530273,-10.199999809265137,9.300000190734863,37.91676330566406,0,
 804940,-0.068115234375,-0.30908203125,-0.3857421875,32.07316970825195,102.89634704589844,-169.11585998535156,-8.699999809265137,-9.449999809265137,9.75,37.72507095336914,0,
 804950,-0.208740234375,-0.271728515625,-0.435546875,29.93902587890625,85.1524429321289,-173.1707305908203,-10.649999618530273,-9.0,10.5,37.91676330566406,0,
 804960,-0.48974609375,-0.281982421875,-0.672119140625,25.975610733032227,64.57317352294922,-170.09146118164062,-12.600000381469727,-7.800000190734863,10.5,38.06053161621094,0,
 804970,-0.7705078125,-0.11865234375,-0.862060546875,-5.182927131652832,45.97561264038086,-156.03659057617188,-12.600000381469727,-7.800000190734863,10.5,37.96468734741211,0,
 804980,-0.998046875,-0.002197265625,-0.65771484375,-2.9573171138763428,18.93292808532715,-126.06707763671875,-14.25,-7.650000095367432,10.949999809265137,37.77299499511719,0,
 804990,0.176025390625,0.243896484375,0.3154296875,64.54268646240234,43.29268264770508,-57.19512176513672,-15.600000381469727,-6.599999904632568,10.5,37.72507095336914,0,
 805000,0.947998046875,1.34326171875,-4.091796875,-152.19512939453125,-56.25,64.90853881835938,-14.850000381469727,-8.25,10.050000190734863,37.96468734741211,0,
 805010,1.027587890625,-0.993896484375,-0.07470703125,170.60975646972656,-11.37195110321045,74.08536529541016,-14.850000381469727,-8.25,10.050000190734863,37.96468734741211,0,
 805020,-1.036865234375,0.41796875,-3.891357421875,16.463415145874023,-145.97561645507812,123.99390411376953,-14.25,-7.650000095367432,10.649999618530273,37.96468734741211,0,
 805030,-2.5849609375,-1.385986328125,-0.75146484375,293.1707458496094,-215.8841552734375,-4.603658676147461,-13.050000190734863,-9.600000381469727,10.949999809265137,37.91676330566406,0,
 805040,-0.375,-0.859619140625,-1.35693359375,85.88414764404297,8.20121955871582,8.963415145874023,-10.5,-6.0,9.899999618530273,37.581302642822266,0,
 805050,0.62841796875,-2.295654296875,-1.77880859375,183.68902587890625,120.18292999267578,-117.56098175048828,-10.800000190734863,-4.5,9.899999618530273,37.91676330566406,0,
 805060,0.1865234375,-0.685546875,-0.51416015625,-120.64024353027344,-142.8048858642578,30.2439022064209,-10.800000190734863,-4.5,9.899999618530273,37.868839263916016,0,
 805070,-0.641357421875,0.07177734375,-0.8271484375,-181.3719482421875,-91.82926940917969,96.31097412109375,-10.800000190734863,-5.25,10.199999809265137,37.91676330566406,0,
 805080,0.204345703125,-0.138671875,-0.762939453125,-78.6280517578125,18.475610733032227,43.414634704589844,-9.300000190734863,-6.449999809265137,9.449999809265137,38.25222396850586,0,
 805090,0.165771484375,-0.76708984375,-0.979248046875,52.9878044128418,-13.47560977935791,-13.20121955871582,-10.5,-5.699999809265137,11.699999809265137,37.62922668457031,0,
 805100,0.05322265625,-0.54541015625,-0.503662109375,-8.536585807800293,-72.95732116699219,16.737804412841797,-10.5,-5.699999809265137,11.699999809265137,37.91676330566406,0,
 805110,0.17626953125,-0.404052734375,-0.76171875,-63.90243911743164,-10.609756469726562,27.926830291748047,-7.800000190734863,-4.949999809265137,10.949999809265137,37.91676330566406,0,
 805120,0.2451171875,-0.678955078125,-0.779052734375,3.6890244483947754,-2.2865853309631348,19.268293380737305,-9.149999618530273,-6.300000190734863,10.5,37.96468734741211,0,
 805130,0.136474609375,-0.091796875,-0.728271484375,-112.01219940185547,-39.45122146606445,42.28658676147461,-9.300000190734863,-7.650000095367432,8.399999618530273,37.91676330566406,0,
 805140,-0.112548828125,-0.248779296875,-0.972900390625,-38.32317352294922,-49.42073440551758,35.274391174316406,-8.399999618530273,-7.050000190734863,12.300000190734863,37.72507095336914,0,
 805150,-0.1552734375,-0.488525390625,-1.033203125,-14.420732498168945,-32.774391174316406,25.975610733032227,-8.399999618530273,-7.050000190734863,12.300000190734863,37.868839263916016,0,
 805160,-0.131103515625,-0.371337890625,-0.99853515625,-33.810977935791016,-28.414634704589844,17.621952056884766,-8.399999618530273,-7.050000190734863,13.050000190734863,37.72507095336914,0,
 805170,-0.179931640625,-0.565673828125,-1.185546875,-2.378048896789551,-21.4939022064209,12.62195110321045,-7.949999809265137,-7.050000190734863,12.300000190734863,37.96468734741211,0,
 805180,-0.263916015625,-0.84814453125,-1.045166015625,24.14634132385254,-25.70121955871582,9.268292427062988,-7.800000190734863,-8.850000381469727,12.899999618530273,37.96468734741211,0,
 805190,-0.10205078125,-0.35693359375,-1.01806640625,-60.0,-11.890244483947754,22.19512176513672,-7.800000190734863,-8.850000381469727,12.899999618530273,37.77299499511719,0,
 805200,-0.0146484375,-0.279052734375,-1.03857421875,-43.932926177978516,-6.829268455505371,23.68902587890625,-6.0,-8.25,11.25,37.96468734741211,0,
 805210,-0.01318359375,-0.326904296875,-1.03955078125,-24.78658676147461,-12.62195110321045,17.957317352294922,-7.949999809265137,-8.25,13.5,37.91676330566406,0,
 805230,-0.008056640625,-0.37353515625,-1.033935546875,-16.55487823486328,-11.585366249084473,9.02439022064209,-5.849999904632568,-8.100000381469727,10.199999809265137,37.96468734741211,0,
 805240,-0.096923828125,-0.482177734375,-0.990234375,-5.54878044128418,-17.926830291748047,7.0731706619262695,-5.849999904632568,-8.100000381469727,10.199999809265137,37.77299499511719,0,
 805250,-0.053466796875,-0.39111328125,-1.03125,-18.292682647705078,-14.512195587158203,11.09756088256836,-5.400000095367432,-10.350000381469727,13.199999809265137,37.96468734741211,0,
 805260,-0.321533203125,-0.392333984375,-1.041259765625,-15.396342277526855,-22.042682647705078,12.743903160095215,-5.25,-9.0,13.050000190734863,37.96468734741211,0,
 805270,0.1240234375,-0.50341796875,-1.067138671875,-9.664634704589844,-17.774391174316406,8.018292427062988,-5.849999904632568,-8.850000381469727,15.149999618530273,37.91676330566406,0,
 805280,0.406982421875,-0.210205078125,-0.74462890625,-2.4390244483947754,-70.09146881103516,24.390243530273438,-5.849999904632568,-8.850000381469727,15.149999618530273,37.72507095336914,0,
 805290,-0.198486328125,-0.268798828125,-1.198974609375,12.134146690368652,-36.6158561706543,14.17682933807373,-6.0,-8.699999809265137,14.550000190734863,37.77299499511719,0,
 805300,0.163330078125,-0.354248046875,-0.928466796875,-5.8231706619262695,-55.09146499633789,8.47560977935791,-3.5999999046325684,-8.850000381469727,13.199999809265137,37.91676330566406,0,
 805310,0.018310546875,-0.176513671875,-1.088134765625,28.109756469726562,-55.60975646972656,3.4146342277526855,-4.5,-9.449999809265137,15.300000190734863,37.72507095336914,0,
 805320,-0.060546875,-0.4599609375,-1.093017578125,-3.2012195587158203,-62.164634704589844,-3.9939024448394775,-4.199999809265137,-9.0,13.800000190734863,38.108455657958984,0,
 805330,-0.211669921875,-0.389404296875,-1.084228515625,-14.29878044128418,-58.567073822021484,-5.8231706619262695,-5.099999904632568,-8.850000381469727,11.699999809265137,37.62922668457031,0,
 805340,-0.128173828125,-0.282958984375,-1.070068359375,-15.792683601379395,-65.51829528808594,-7.378048896789551,-4.199999809265137,-9.0,12.75,37.72507095336914,0,
 805350,-0.109130859375,-0.267578125,-1.044677734375,-15.853658676147461,-69.45121765136719,-12.987805366516113,-3.0,-10.649999618530273,12.0,37.77299499511719,0,
 805360,-0.141357421875,-0.293212890625,-1.0419921875,-19.329269409179688,-71.58536529541016,-19.29878044128418,-2.549999952316284,-9.0,13.800000190734863,37.91676330566406,0,
 805370,-0.2080078125,-0.342529296875,-1.0732421875,-23.628049850463867,-75.82317352294922,-25.15243911743164,-2.549999952316284,-9.0,13.800000190734863,37.91676330566406,0,
 805380,-0.45654296875,-0.346435546875,-1.233642578125,-7.77439022064209,-82.25609588623047,-35.060977935791016,-3.1500000953674316,-10.050000190734863,13.199999809265137,37.72507095336914,0,
 805390,-0.935791015625,-0.390380859375,-1.414794921875,8.109756469726562,-61.76829528808594,-47.682926177978516,-2.549999952316284,-10.649999618530273,13.050000190734863,37.91676330566406,0,
 805400,-1.253173828125,-0.43408203125,-1.259765625,34.48170852661133,-27.621952056884766,-62.3780517578125,-3.1500000953674316,-8.850000381469727,13.199999809265137,37.96468734741211,0,
 805540,-0.11865234375,-0.490966796875,-0.604736328125,-4.1768293380737305,87.40853881835938,29.969512939453125,-11.550000190734863,-12.0,7.199999809265137,37.868839263916016,0,
 805550,-0.017578125,-0.497314453125,-0.44677734375,-3.262195110321045,82.13414764404297,3.353658676147461,-11.550000190734863,-12.0,7.199999809265137,38.108455657958984,0,
 805561,0.28857421875,-0.39453125,-0.41552734375,-25.274391174316406,79.96951293945312,-5.396341800689697,-12.300000190734863,-11.25,9.899999618530273,37.96468734741211,0,
 805571,0.16748046875,-0.243408203125,-0.3916015625,-32.225608825683594,38.810977935791016,-14.054878234863281,-13.649999618530273,-13.350000381469727,11.25,37.72507095336914,0,
 805581,0.070068359375,-0.280029296875,-0.3486328125,-6.707317352294922,15.243903160095215,-32.317073822021484,-12.75,-11.25,12.149999618530273,37.581302642822266,0,
 805591,-0.127685546875,-0.275146484375,-0.438720703125,-17.560976028442383,-7.317073345184326,-50.67073440551758,-12.75,-11.25,12.149999618530273,37.91676330566406,0,
 805601,-0.189208984375,-0.410888671875,-0.30029296875,-10.0,-24.969512939453125,-66.67683410644531,-12.899999618530273,-11.850000381469727,11.550000190734863,37.581302642822266,0,
 805611,-0.10009765625,-0.19873046875,-0.26953125,-49.14634323120117,-36.219512939453125,-73.3536605834961,-15.0,-11.550000190734863,11.699999809265137,38.108455657958984,0,
 805621,-0.244384765625,-0.125732421875,-0.267578125,-57.621952056884766,-65.60975646972656,-73.44512176513672,-14.25,-13.199999809265137,12.149999618530273,37.91676330566406,0,
 805631,-0.45849609375,-0.1669921875,-0.3857421875,-35.4878044128418,-86.76829528808594,-63.68902587890625,-14.25,-12.75,12.149999618530273,37.62922668457031,0,
 805641,-0.790771484375,-0.20263671875,-0.744140625,-17.408536911010742,-88.32317352294922,-62.713417053222656,-14.25,-12.75,12.149999618530273,37.91676330566406,0,
 805651,-0.45556640625,-0.29541015625,-0.30029296875,-11.920731544494629,-71.85975646972656,-62.28658676147461,-13.649999618530273,-12.149999618530273,11.550000190734863,38.108455657958984,0,
 805661,-0.4189453125,-0.044921875,-0.54736328125,-40.51829528808594,-80.76219940185547,-44.17683029174805,-14.850000381469727,-13.800000190734863,11.550000190734863,37.96468734741211,0,
 805671,-0.5615234375,-0.285888671875,-0.658447265625,2.317073106765747,-99.93902587890625,-27.926830291748047,-14.399999618530273,-13.350000381469727,10.800000190734863,37.868839263916016,0,
 805681,-0.287353515625,-0.426025390625,-0.663330078125,-1.4634146690368652,-78.75,-17.591463088989258,-14.399999618530273,-13.350000381469727,10.800000190734863,37.72507095336914,0,
 805691,-0.053955078125,-0.2216796875,-0.74609375,-34.1158561706543,-74.05487823486328,-7.987804889678955,-13.350000381469727,-13.350000381469727,11.550000190734863,37.91676330566406,0,
 805701,0.047119140625,-0.2939453125,-0.788818359375,-0.4573170840740204,-87.16463470458984,6.890244007110596,-11.699999809265137,-13.350000381469727,11.25,37.91676330566406,0,
 805711,0.13037109375,-0.43359375,-0.800048828125,13.658536911010742,-87.3780517578125,13.963415145874023,-13.350000381469727,-15.0,11.25,38.06053161621094,0,
 805721,0.25390625,-0.49951171875,-0.890380859375,1.9817073345184326,-86.92073059082031,14.57317066192627,-12.149999618530273,-12.149999618530273,13.5,38.06053161621094,0,
 805741,0.131591796875,-0.469482421875,-1.09326171875,-8.32317066192627,-102.40853881835938,5.4268293380737305,-9.449999809265137,-11.850000381469727,10.800000190734863,37.72507095336914,0,
 805751,0.085693359375,-0.455078125,-1.104736328125,-7.713414669036865,-106.67683410644531,7.9268293380737305,-9.449999809265137,-14.25,13.050000190734863,37.91676330566406,0,
 805761,0.046875,-0.436767578125,-1.029296875,-9.786585807800293,-113.71951293945312,12.957317352294922,-7.949999809265137,-13.050000190734863,10.800000190734863,38.06053161621094,0,
 805771,-0.15283203125,-0.3515625,-1.242919921875,-1.25,-114.45122528076172,13.87195110321045,-7.949999809265137,-13.050000190734863,10.800000190734863,37.72507095336914,0,
 805781,-0.331298828125,-0.37646484375,-1.246337890625,-2.4390244483947754,-96.06707763671875,15.304878234863281,-8.699999809265137,-10.949999809265137,10.800000190734863,37.77299499511719,0,
 805791,-0.10986328125,-0.46044921875,-1.15966796875,-8.506097793579102,-110.18292999267578,24.512195587158203,-7.800000190734863,-12.75,12.449999809265137,37.91676330566406,0,
 805801,-0.181884765625,-0.4052734375,-1.210693359375,-7.22560977935791,-112.62195587158203,32.13414764404297,-6.300000190734863,-12.75,12.149999618530273,37.72507095336914,0,
 805811,-0.175048828125,-0.418701171875,-1.301025390625,-5.8231706619262695,-106.006103515625,38.871952056884766,-5.25,-13.800000190734863,10.5,37.77299499511719,0,
 805821,-0.043212890625,-0.447265625,-1.30224609375,-2.9268293380737305,-103.20122528076172,45.70122146606445,-5.25,-13.800000190734863,10.5,37.868839263916016,0,
 805831,0.069091796875,-0.469970703125,-1.25390625,-3.841463565826416,-102.74390411376953,52.13414764404297,-3.0,-10.949999809265137,10.800000190734863,37.91676330566406,0,
 805841,0.129150390625,-0.42431640625,-1.2783203125,-0.4268292784690857,-100.45732116699219,53.68902587890625,-4.199999809265137,-12.149999618530273,11.550000190734863,37.91676330566406,0,
 805851,0.230224609375,-0.46337890625,-1.240234375,0.0,-99.57317352294922,52.22561264038086,-2.8499999046325684,-13.199999809265137,8.399999618530273,38.06053161621094,0,
 805861,0.338623046875,-0.474365234375,-1.25244140625,-4.29878044128418,-99.96951293945312,48.567073822021484,-2.8499999046325684,-13.199999809265137,8.399999618530273,37.77299499511719,0,
 805871,0.3818359375,-0.427001953125,-1.24169921875,2.5,-97.62195587158203,43.38414764404297,-0.75,-11.399999618530273,9.75,37.91676330566406,0,
 805891,0.106689453125,-0.553466796875,-1.5654296875,16.981708526611328,-33.17073059082031,18.963415145874023,-0.30000001192092896,-11.850000381469727,9.0,37.91676330566406,0,
 805901,0.630859375,-0.3828125,-1.235595703125,-2.9268293380737305,-28.90243911743164,18.871952056884766,-1.649999976158142,-13.199999809265137,10.199999809265137,38.108455657958984,0,
 805911,0.49072265625,-0.203125,-1.237060546875,-10.335366249084473,-24.45121955871582,17.774391174316406,-1.649999976158142,-13.199999809265137,10.199999809265137,37.77299499511719,0,
 805951,0.13427734375,-0.381103515625,-1.153564453125,12.22560977935791,34.42073440551758,-6.8597564697265625,0.44999998807907104,-12.0,8.699999809265137,37.72507095336914,0,
 805961,-0.041259765625,-0.306884765625,-1.16552734375,13.62804889678955,44.57317352294922,-7.0731706619262695,0.0,-11.399999618530273,10.050000190734863,37.91676330566406,0,
 805971,-0.38671875,-0.234375,-1.242431640625,21.219512939453125,58.17073440551758,-10.396341323852539,0.8999999761581421,-12.449999809265137,8.399999618530273,37.72507095336914,0,
 805981,-0.461181640625,-0.2978515625,-1.052001953125,42.774391174316406,91.95122528076172,-18.90243911743164,-1.7999999523162842,-11.850000381469727,9.75,38.06053161621094,0,
 805991,-0.176513671875,-0.350830078125,-0.60546875,39.29878234863281,125.45732116699219,-23.231708526611328,-0.30000001192092896,-10.199999809265137,8.25,37.96468734741211,0,
 806001,0.015625,-0.13916015625,-0.231201171875,-5.030488014221191,129.35975646972656,-10.97560977935791,-0.30000001192092896,-10.199999809265137,8.25,37.96468734741211,0,
 806011,-0.047607421875,0.16259765625,-0.246337890625,-43.99390411376953,114.84756469726562,9.695121765136719,-2.0999999046325684,-10.350000381469727,10.649999618530273,37.72507095336914,0,
 806021,-0.30517578125,0.230712890625,-0.263916015625,-9.237805366516113,97.56097412109375,15.030488014221191,-2.0999999046325684,-10.800000190734863,9.449999809265137,37.91676330566406,0,
 806031,-0.516357421875,0.0,-0.18603515625,53.414634704589844,100.2743911743164,3.445122003555298,-1.7999999523162842,-10.199999809265137,9.0,37.96468734741211,0,
 806041,-0.322021484375,-0.08984375,0.06787109375,47.89634323120117,111.06707763671875,-6.615853786468506,-1.7999999523162842,-10.199999809265137,9.0,37.96468734741211,0,
 806051,-0.356689453125,0.162841796875,-0.123046875,0.030487805604934692,101.61585235595703,-9.908536911010742,-1.0499999523162842,-10.649999618530273,7.800000190734863,37.72507095336914,0,
 806061,-0.505126953125,0.13330078125,-0.236328125,24.878049850463867,84.7256088256836,-19.329269409179688,-4.949999809265137,-8.699999809265137,9.0,37.91676330566406,0,
 806071,-0.744140625,-0.055419921875,-0.60791015625,70.57926940917969,84.6036605834961,-32.469512939453125,-5.25,-8.25,9.75,37.72507095336914,0,
 806081,0.226318359375,-0.246826171875,-0.682373046875,55.0,89.7256088256836,-51.40243911743164,-5.849999904632568,-8.100000381469727,10.199999809265137,37.91676330566406,0,
 806091,1.50341796875,-0.229248046875,-1.59619140625,-152.19512939453125,168.01829528808594,22.378049850463867,-5.849999904632568,-8.100000381469727,10.199999809265137,37.91676330566406,0,
 806101,-1.55322265625,-1.12548828125,-5.427978515625,277.68292236328125,-146.98170471191406,16.890243530273438,-5.400000095367432,-7.650000095367432,10.949999809265137,37.96468734741211,0,
 806111,-2.34765625,-2.743408203125,-0.414306640625,301.18902587890625,-91.73780822753906,31.64634132385254,-5.099999904632568,-7.199999809265137,9.899999618530273,38.06053161621094,0,
 806121,-0.187255859375,-2.46728515625,-1.463134765625,27.073171615600586,22.89634132385254,-52.774391174316406,-4.199999809265137,-7.050000190734863,8.550000190734863,37.72507095336914,0,
 806131,1.155029296875,-0.337890625,-0.002197265625,-286.9207458496094,43.44512176513672,-5.54878044128418,-4.199999809265137,-7.050000190734863,8.550000190734863,37.91676330566406,0,
 806141,1.515625,1.119873046875,-0.790283203125,-507.71343994140625,-44.78658676147461,128.41464233398438,-4.199999809265137,-9.449999809265137,12.0,37.91676330566406,0,
 806151,0.806884765625,1.179931640625,0.1748046875,-273.1097717285156,-185.94512939453125,123.20122528076172,-3.5999999046325684,-10.050000190734863,11.699999809265137,37.91676330566406,0,
 806161,1.155517578125,0.233154296875,0.560302734375,15.15243911743164,-212.53048706054688,126.61585998535156,-2.4000000953674316,-13.949999809265137,13.649999618530273,37.96468734741211,0,
 806171,2.012451171875,-0.65869140625,0.46484375,92.256103515625,-218.59756469726562,187.256103515625,-0.15000000596046448,-13.949999809265137,10.949999809265137,37.91676330566406,0,
 806181,1.329833984375,-1.200927734375,-0.00537109375,38.353660583496094,-341.006103515625,216.5548858642578,-0.15000000596046448,-13.949999809265137,10.949999809265137,37.91676330566406,0,
 806191,-4.1640625,-1.259033203125,-4.63671875,-56.6158561706543,-429.2378234863281,76.70732116699219,4.349999904632568,-15.149999618530273,12.899999618530273,37.868839263916016,0,
 806201,-2.3134765625,-1.1220703125,-0.125244140625,-108.71951293945312,23.68902587890625,-16.707317352294922,8.100000381469727,-15.149999618530273,8.699999809265137,37.868839263916016,0,
 806221,0.01416015625,0.960205078125,-2.272216796875,317.5,-312.43902587890625,6.8597564697265625,11.399999618530273,-14.550000190734863,10.800000190734863,37.77299499511719,0,
 806231,-1.4873046875,-0.15771484375,-1.591796875,258.75,-331.7378234863281,176.40245056152344,12.0,-12.75,8.399999618530273,37.91676330566406,0,
 806241,-0.972900390625,-0.95751953125,-0.047607421875,36.432926177978516,-163.10975646972656,80.03048706054688,13.050000190734863,-11.25,4.949999809265137,37.72507095336914,0,
 806251,-1.0966796875,-0.533203125,-0.905029296875,-117.3780517578125,-76.37195587158203,57.317073822021484,13.050000190734863,-12.449999809265137,4.650000095367432,37.91676330566406,0,
 806261,-0.195556640625,-0.272216796875,-1.026611328125,-86.70732116699219,-98.04878234863281,83.96341705322266,13.050000190734863,-12.75,2.700000047683716,37.62922668457031,0,
 806271,-0.20703125,0.066650390625,-1.18408203125,-72.07317352294922,-180.4268341064453,37.43902587890625,13.050000190734863,-12.75,2.700000047683716,37.72507095336914,0,
 806281,-0.94580078125,0.092041015625,-1.06689453125,44.63414764404297,-172.1341552734375,48.963417053222656,15.600000381469727,-14.550000190734863,5.25,37.96468734741211,0,
 806291,-0.854248046875,-0.201171875,-0.336181640625,44.93902587890625,-120.7317123413086,18.90243911743164,17.700000762939453,-15.600000381469727,3.9000000953674316,37.868839263916016,0,
 806301,-0.836181640625,0.046875,-0.724853515625,-85.09146881103516,-103.38414764404297,5.670732021331787,20.100000381469727,-15.300000190734863,3.299999952316284,37.91676330566406,0,
 806311,-0.77294921875,0.148681640625,-0.390869140625,105.82317352294922,-90.0,-4.939024448394775,20.100000381469727,-15.300000190734863,3.299999952316284,37.91676330566406,0,
 806321,-0.82470703125,-0.5322265625,-0.701416015625,103.99390411376953,-103.14024353027344,10.030488014221191,20.399999618530273,-15.899999618530273,3.1500000953674316,37.868839263916016,0,
 806331,-0.647216796875,-0.8095703125,-0.296875,-129.02439880371094,-106.95122528076172,24.878049850463867,20.549999237060547,-16.200000762939453,3.299999952316284,38.06053161621094,0,
 806351,-0.81103515625,0.193115234375,-0.385498046875,62.43902587890625,-65.64024353027344,-10.884146690368652,19.950000762939453,-16.350000381469727,2.4000000953674316,37.868839263916016,0,
 806361,-0.89794921875,-0.44921875,-0.582275390625,98.84146881103516,-77.53048706054688,-4.359755992889404,19.950000762939453,-16.350000381469727,2.4000000953674316,37.581302642822266,0,
 806371,-0.94775390625,-0.3779296875,-0.568115234375,8.353658676147461,-57.89634323120117,6.25,20.700000762939453,-14.399999618530273,0.44999998807907104,37.77299499511719,0,
 806382,-0.746826171875,-0.2890625,-0.641357421875,-6.128048896789551,-25.914634704589844,21.768293380737305,20.700000762939453,-15.149999618530273,-0.15000000596046448,38.06053161621094,0,
 806392,-0.6962890625,-0.231201171875,-0.6650390625,-7.439024448394775,-29.268293380737305,23.5060977935791,22.049999237060547,-16.200000762939453,-0.75,37.91676330566406,0,
 806402,-0.78173828125,-0.16796875,-0.74951171875,-6.402439117431641,-33.75,22.439023971557617,22.049999237060547,-16.200000762939453,-0.75,38.06053161621094,0,
 806412,-0.730224609375,-0.2919921875,-0.764404296875,21.0060977935791,-31.920732498168945,20.762195587158203,21.450000762939453,-16.350000381469727,1.2000000476837158,37.77299499511719,0,
 806422,-0.7763671875,-0.212158203125,-0.75634765625,-5.213414669036865,-41.006099700927734,25.030488967895508,22.799999237060547,-16.200000762939453,-0.30000001192092896,37.91676330566406,0,
 806432,-0.744140625,-0.2060546875,-0.687255859375,-1.402438998222351,-44.29878234863281,20.670732498168945,25.5,-17.399999618530273,0.0,37.96468734741211,0,
 806442,-0.725341796875,-0.1796875,-0.71875,-6.158536911010742,-44.14634323120117,17.225610733032227,23.100000381469727,-16.350000381469727,-0.15000000596046448,37.91676330566406,0,
 806452,-0.75537109375,-0.091796875,-0.673095703125,-19.969512939453125,-49.085365295410156,12.591464042663574,23.100000381469727,-16.350000381469727,-0.15000000596046448,37.77299499511719,0,
 806562,-3.205810546875,-1.305908203125,-0.849853515625,150.2134246826172,55.57926940917969,-111.9817123413086,24.149999618530273,-14.399999618530273,-6.150000095367432,37.72507095336914,0,
 806572,-2.392822265625,-1.062744140625,-1.309326171875,-28.68902587890625,300.3963623046875,-144.26829528808594,23.850000381469727,-15.149999618530273,-4.199999809265137,37.91676330566406,0,
 806582,-1.8271484375,-0.357421875,-0.815185546875,-134.4207305908203,369.2378234863281,-121.5243911743164,23.850000381469727,-15.149999618530273,-4.199999809265137,37.91676330566406,0,
 806592,-1.128173828125,0.215087890625,-0.406005859375,-159.90853881835938,386.70733642578125,-71.95121765136719,20.399999618530273,-15.899999618530273,1.2000000476837158,37.77299499511719,0,
 806602,-1.01025390625,0.6787109375,-0.137451171875,-238.41464233398438,476.3719482421875,-4.847560882568359,18.450000762939453,-15.899999618530273,2.700000047683716,37.91676330566406,0,
 806612,-0.805908203125,0.80712890625,-0.193603515625,-180.0,516.9207153320312,12.103658676147461,14.850000381469727,-16.5,6.75,37.72507095336914,0,
 806622,-0.554443359375,0.183837890625,0.010986328125,40.914634704589844,502.31707763671875,11.09756088256836,12.899999618530273,-16.200000762939453,7.5,37.96468734741211,0,
 806632,-0.2724609375,-0.276611328125,0.2470703125,100.30487823486328,455.82318115234375,13.59756088256836,12.899999618530273,-16.200000762939453,7.5,37.868839263916016,0,
 806642,0.14599609375,-0.114990234375,0.475341796875,-44.45122146606445,439.1158752441406,40.45731735229492,6.300000190734863,-15.899999618530273,11.399999618530273,37.96468734741211,0,
 806652,0.306640625,0.27880859375,0.48095703125,-12.987805366516113,315.57928466796875,67.59146118164062,5.849999904632568,-15.899999618530273,13.199999809265137,37.72507095336914,0,
 806662,0.3525390625,0.222900390625,0.798828125,118.07926940917969,216.5853729248047,23.780488967895508,2.0999999046325684,-15.899999618530273,11.399999618530273,37.96468734741211,0,
 806672,-0.091796875,-0.01171875,0.35400390625,170.79269409179688,164.39024353027344,-14.57317066192627,2.0999999046325684,-15.899999618530273,11.399999618530273,37.868839263916016,0,
 806692,-0.493408203125,-0.237548828125,0.543212890625,49.26829528808594,144.02439880371094,-67.86585235595703,-1.649999976158142,-15.600000381469727,14.699999809265137,37.91676330566406,0,
 806702,-0.58837890625,-0.19091796875,0.6845703125,34.48170852661133,152.9268341064453,-84.90853881835938,-2.549999952316284,-15.75,15.0,37.91676330566406,0,
 806712,-0.586181640625,-0.052734375,0.431396484375,27.560976028442383,119.96951293945312,-98.84146881103516,-3.75,-14.550000190734863,15.0,37.77299499511719,0,
 806722,-0.851806640625,0.153076171875,-0.05517578125,52.835365295410156,81.9817123413086,-118.20122528076172,-3.75,-14.550000190734863,15.0,38.06053161621094,0,
 806732,-1.0703125,0.17822265625,-0.239501953125,67.7743911743164,59.84756088256836,-130.73170471191406,-4.949999809265137,-13.350000381469727,14.550000190734863,38.06053161621094,0,
 806742,-1.165771484375,0.134521484375,-0.181640625,-13.018293380737305,36.09756088256836,-113.93292999267578,-6.599999904632568,-11.25,12.149999618530273,37.77299499511719,0,
 806752,-1.15625,0.28857421875,-0.42041015625,127.16463470458984,-9.84756088256836,-80.8536605834961,-4.949999809265137,-12.600000381469727,12.0,37.72507095336914,0,
 806762,-0.23779296875,0.272705078125,-1.372802734375,253.65853881835938,451.1585388183594,107.71341705322266,-4.949999809265137,-12.600000381469727,12.0,37.96468734741211,0,
 806772,7.999755859375,-0.6806640625,-7.999755859375,-324.20733642578125,144.3292694091797,399.9695129394531,-6.599999904632568,-12.75,8.399999618530273,37.96468734741211,0,
 806782,3.307373046875,-0.9033203125,1.95166015625,53.932926177978516,33.04878234863281,556.768310546875,-5.849999904632568,-14.850000381469727,12.149999618530273,38.108455657958984,0,
 806792,4.959716796875,-2.318115234375,6.383056640625,99.29878234863281,-878.9024658203125,4.908536911010742,-4.349999904632568,-16.350000381469727,13.649999618530273,37.91676330566406,0,
 806802,-6.405029296875,-1.250244140625,-7.999755859375,951.4024658203125,-336.6768493652344,-513.7195434570312,-0.8999999761581421,-13.949999809265137,12.449999809265137,37.62922668457031,0,
 806812,-2.28076171875,-5.23828125,5.352294921875,-674.4207763671875,358.9634094238281,-280.57928466796875,-0.8999999761581421,-13.949999809265137,12.449999809265137,37.868839263916016,0,
 806822,1.100830078125,3.890869140625,0.52099609375,-999.0244140625,114.45122528076172,-181.73780822753906,-3.9000000953674316,-6.900000095367432,11.399999618530273,37.91676330566406,0,
 806832,-0.5087890625,0.4150390625,-0.07080078125,314.32928466796875,-360.0914611816406,35.15243911743164,-4.949999809265137,-10.949999809265137,14.550000190734863,38.06053161621094,0,
 806842,-0.2998046875,-0.677734375,-0.972900390625,637.28662109375,-25.365854263305664,120.36585998535156,-1.7999999523162842,-9.0,12.75,37.77299499511719,0,
 806852,1.2021484375,-1.552978515625,0.153076171875,115.45732116699219,-5.121951103210449,109.6036605834961,-1.7999999523162842,-9.0,12.75,37.77299499511719,0,
 806872,0.32421875,-0.715576171875,-0.21728515625,-314.9695129394531,-182.53048706054688,223.53659057617188,1.2000000476837158,-10.800000190734863,9.149999618530273,37.96468734741211,0,
 806882,1.2841796875,-0.556396484375,-0.470947265625,-190.94512939453125,-199.2987823486328,194.23780822753906,1.5,-16.5,13.800000190734863,37.96468734741211,0,
 806892,0.640625,-1.10205078125,-0.5400390625,-81.46341705322266,-247.8353729248047,51.92073440551758,4.949999809265137,-15.300000190734863,14.550000190734863,37.77299499511719,0,
 806902,-0.40283203125,-0.7216796875,-1.287109375,-139.57318115234375,-307.8658752441406,-81.09756469726562,4.949999809265137,-15.300000190734863,14.550000190734863,37.77299499511719,0,
 806922,-1.552978515625,0.923583984375,-1.305419921875,-152.40853881835938,-219.69512939453125,-69.32926940917969,9.600000381469727,-14.850000381469727,12.149999618530273,37.91676330566406,0,
 806932,-1.75439453125,0.80810546875,-1.4384765625,-353.6280517578125,-132.77439880371094,-77.86585235595703,11.25,-14.399999618530273,10.949999809265137,37.91676330566406,0,
 806942,-1.65673828125,-0.080078125,-0.893798828125,357.8963623046875,-314.268310546875,-43.506099700927734,11.25,-14.399999618530273,10.949999809265137,37.77299499511719,0,
 806952,-1.22900390625,-0.6806640625,-0.520751953125,241.52439880371094,-181.64634704589844,90.0,10.649999618530273,-12.600000381469727,8.25,37.77299499511719,0,
 806962,-0.732421875,-0.506103515625,-0.912109375,-16.64634132385254,-72.86585235595703,64.45121765136719,10.800000190734863,-10.050000190734863,5.699999809265137,37.72507095336914,0,
 806972,-0.775390625,-0.6259765625,-1.318603515625,10.914634704589844,-50.121952056884766,89.4817123413086,11.25,-7.199999809265137,3.450000047683716,37.91676330566406,0,
 806982,-0.746826171875,-0.17431640625,-0.629150390625,-128.32318115234375,-42.65243911743164,90.64024353027344,10.949999809265137,-10.949999809265137,6.75,37.91676330566406,0,
 806992,-0.818359375,0.67138671875,-0.903564453125,-164.93902587890625,-45.335365295410156,48.07926940917969,10.949999809265137,-10.949999809265137,6.75,38.06053161621094,0,
 807002,-0.475830078125,0.267333984375,-0.683349609375,98.29268646240234,-60.914634704589844,11.981707572937012,12.75,-14.850000381469727,8.399999618530273,37.62922668457031,0,
 807012,-0.6455078125,-0.24462890625,-0.812255859375,238.75,-68.17073059082031,-19.45121955871582,14.399999618530273,-14.25,6.300000190734863,37.77299499511719,0,
 807022,-0.990966796875,-0.585205078125,-0.418701171875,106.34146881103516,-31.371952056884766,-25.15243911743164,15.449999809265137,-12.0,6.150000095367432,37.91676330566406,0,
 807032,-0.63916015625,-0.5791015625,-0.964111328125,-34.2378044128418,36.18902587890625,9.29878044128418,15.449999809265137,-12.0,6.150000095367432,37.91676330566406,0,
 807042,0.019775390625,-0.88623046875,-0.857177734375,41.09756088256836,34.05487823486328,2.6524391174316406,14.699999809265137,-14.399999618530273,7.199999809265137,37.96468734741211,0,
 807052,-0.656982421875,-0.345458984375,-0.72216796875,-37.65243911743164,-78.17073059082031,9.603658676147461,15.449999809265137,-13.649999618530273,7.199999809265137,37.77299499511719,0,
 807062,-0.83740234375,-0.213134765625,-0.6337890625,-55.82317352294922,-60.213417053222656,13.140244483947754,16.350000381469727,-15.0,6.0,37.96468734741211,0,
 807072,-0.662353515625,-0.225341796875,-0.604736328125,3.445122003555298,-17.713415145874023,16.067073822021484,15.0,-13.199999809265137,6.900000095367432,37.91676330566406,0,
 807082,-0.72998046875,-0.269287109375,-0.650146484375,-5.27439022064209,-18.475610733032227,-0.4878048896789551,15.0,-13.199999809265137,6.900000095367432,37.96468734741211,0,
 807092,-0.67626953125,-0.287841796875,-0.650390625,8.262195587158203,-16.463415145874023,11.737805366516113,16.350000381469727,-13.350000381469727,6.75,37.868839263916016,0,
 807102,-0.76708984375,-0.3388671875,-0.593017578125,-4.786585330963135,-11.768293380737305,11.585366249084473,18.450000762939453,-13.949999809265137,6.150000095367432,37.96468734741211,0,
 807112,-0.57666015625,-0.14404296875,-0.679931640625,-24.63414764404297,23.810976028442383,15.762195587158203,17.700000762939453,-13.649999618530273,6.150000095367432,37.72507095336914,0,
 807122,-0.585693359375,-0.10302734375,-0.77734375,-5.304878234863281,21.859756469726562,8.079268455505371,17.700000762939453,-13.649999618530273,6.150000095367432,37.91676330566406,0,
 807132,-0.525390625,-0.142578125,-0.82861328125,8.292682647705078,8.414634704589844,2.8353660106658936,15.0,-13.949999809265137,6.900000095367432,37.91676330566406,0,
 807142,-0.58447265625,-0.223388671875,-0.7880859375,2.5609755516052246,11.707317352294922,1.920731782913208,17.700000762939453,-13.949999809265137,6.150000095367432,37.72507095336914,0,
 807152,-0.604248046875,-0.164306640625,-0.8876953125,7.378048896789551,10.15243911743164,-3.658536672592163,16.350000381469727,-15.0,6.75,37.96468734741211,0,
 807162,-0.561279296875,-0.30810546875,-0.840576171875,-9.329268455505371,6.036585330963135,-0.4878048896789551,16.950000762939453,-15.149999618530273,7.650000095367432,37.96468734741211,0,
 807172,-0.60302734375,-0.20703125,-0.8505859375,-7.743902683258057,5.030488014221191,-2.804877996444702,16.5,-15.899999618530273,6.900000095367432,37.96468734741211,0,
 807182,-0.571533203125,-0.161376953125,-0.817626953125,8.445121765136719,1.5243902206420898,-7.012195110321045,17.700000762939453,-15.899999618530273,4.199999809265137,37.77299499511719,0,
 807192,-0.604736328125,-0.23388671875,-0.819580078125,5.4268293380737305,0.7621951103210449,-8.32317066192627,15.600000381469727,-15.0,7.5,37.62922668457031,0,
 807203,-0.58935546875,-0.21044921875,-0.8076171875,13.75,-2.103658676147461,-8.689024925231934,17.25,-15.899999618530273,7.199999809265137,37.868839263916016,0,
 807213,-0.552001953125,-0.294677734375,-0.74365234375,10.42682933807373,0.792682945728302,-4.634146213531494,17.25,-15.899999618530273,7.199999809265137,37.77299499511719,0,
 807223,-0.519287109375,-0.37109375,-0.86865234375,2.317073106765747,-5.030488014221191,-0.18292683362960815,17.700000762939453,-13.949999809265137,6.900000095367432,38.06053161621094,0,
 807233,-0.543701171875,-0.344970703125,-0.853271484375,0.7317073345184326,-6.95121955871582,2.6524391174316406,16.799999237060547,-13.350000381469727,6.300000190734863,37.91676330566406,0,
 807243,-0.52197265625,-0.3330078125,-0.8173828125,-3.3841464519500732,-10.15243911743164,4.512195110321045,16.350000381469727,-15.0,6.300000190734863,37.581302642822266,0,
 807253,-0.5048828125,-0.300048828125,-0.90283203125,-0.060975611209869385,-18.9939022064209,6.432927131652832,15.899999618530273,-14.550000190734863,7.800000190734863,37.96468734741211,0,
 807263,-0.56494140625,-0.277587890625,-0.900390625,1.402438998222351,-23.140243530273438,6.067073345184326,16.799999237060547,-13.350000381469727,6.300000190734863,37.96468734741211,0,
 807273,-0.566162109375,-0.30078125,-0.916748046875,5.0,-29.481708526611328,7.042683124542236,16.5,-13.949999809265137,5.400000095367432,37.868839263916016,0,
 807283,-0.57421875,-0.3125,-0.93212890625,8.20121955871582,-36.128047943115234,7.77439022064209,17.25,-15.899999618530273,4.199999809265137,37.868839263916016,0,
 807293,-0.5537109375,-0.370361328125,-0.9248046875,9.84756088256836,-41.92073440551758,9.72560977935791,16.950000762939453,-15.899999618530273,7.199999809265137,37.72507095336914,0,
 807303,-0.552978515625,-0.43017578125,-0.92431640625,7.317073345184326,-49.14634323120117,13.59756088256836,16.950000762939453,-15.899999618530273,7.199999809265137,37.77299499511719,0,
 807313,-0.572265625,-0.506103515625,-0.906494140625,-0.3048780560493469,-52.621952056884766,18.44512176513672,16.799999237060547,-15.0,6.0,37.91676330566406,0,
 807323,-0.570556640625,-0.406494140625,-0.9375,-19.664634704589844,-58.84146499633789,23.38414764404297,17.100000381469727,-15.75,5.550000190734863,37.91676330566406,0,
 807333,-0.7138671875,-0.22705078125,-0.9892578125,-25.213415145874023,-66.18902587890625,24.878049850463867,18.600000381469727,-16.200000762939453,6.300000190734863,37.91676330566406,0,
 807343,-1.08349609375,-0.224853515625,-0.664794921875,6.067073345184326,-78.78048706054688,14.908536911010742,17.25,-15.899999618530273,4.650000095367432,37.581302642822266,0,
 807353,-1.974609375,-0.05712890625,-0.3115234375,27.34756088256836,-84.4817123413086,1.8597561120986938,18.600000381469727,-14.550000190734863,4.800000190734863,37.91676330566406,0,
 807363,-4.288818359375,0.1748046875,-2.077880859375,-1.5243902206420898,-139.23780822753906,-26.859756469726562,18.899999618530273,-14.850000381469727,3.9000000953674316,37.96468734741211,0,
 807373,-3.197998046875,-1.2373046875,-0.045654296875,161.61585998535156,97.16463470458984,-83.96341705322266,20.700000762939453,-12.75,3.1500000953674316,37.91676330566406,0,
 807383,-1.168212890625,-1.423583984375,-1.388671875,102.43902587890625,347.2865905761719,-104.90853881835938,21.149999618530273,-10.800000190734863,0.44999998807907104,37.96468734741211,0,
 807393,-0.8349609375,-1.02978515625,-1.082275390625,-99.96951293945312,254.35975646972656,-103.32317352294922,21.149999618530273,-10.800000190734863,0.44999998807907104,37.77299499511719,0,
 807403,-1.115966796875,0.274658203125,-0.427490234375,-227.9268341064453,213.01829528808594,46.70731735229492,13.350000381469727,-13.800000190734863,5.550000190734863,37.868839263916016,0,
 807413,-0.94287109375,0.82568359375,-0.170654296875,-241.49391174316406,331.3719482421875,37.89634323120117,13.649999618530273,-14.25,7.5,37.96468734741211,0,
 807423,-0.034912109375,0.581787109375,-0.1796875,-109.39024353027344,431.2804870605469,-22.469512939453125,11.399999618530273,-14.550000190734863,9.0,37.91676330566406,0,
 807433,0.51025390625,0.088134765625,-0.08544921875,85.67073059082031,366.6463623046875,-29.664634704589844,9.149999618530273,-15.300000190734863,11.25,37.96468734741211,0,
 807443,0.226318359375,-0.30322265625,0.26708984375,141.3719482421875,250.12196350097656,-19.237804412841797,6.75,-14.550000190734863,12.300000190734863,37.72507095336914,0,
 807453,0.106689453125,-0.302001953125,0.48583984375,24.573171615600586,237.22561645507812,-19.817073822021484,5.699999809265137,-13.800000190734863,10.800000190734863,37.96468734741211,0,
 807463,0.156982421875,0.252197265625,0.307861328125,-85.30487823486328,237.1341552734375,2.3475611209869385,4.650000095367432,-13.199999809265137,12.149999618530273,37.868839263916016,0,
 807483,0.126708984375,0.264404296875,0.633056640625,93.78048706054688,138.14024353027344,-26.25,1.0499999523162842,-15.300000190734863,12.300000190734863,37.72507095336914,0,
 807583,-3.27197265625,-0.429931640625,-7.999755859375,868.292724609375,-286.06707763671875,-277.1341552734375,-1.7999999523162842,-16.200000762939453,12.75,37.72507095336914,0,
 807593,-3.157958984375,-4.9921875,4.52783203125,-654.0244140625,193.9634246826172,-195.39634704589844,0.44999998807907104,-8.100000381469727,7.199999809265137,37.72507095336914,0,
 807603,-0.270751953125,0.076416015625,-1.94384765625,-999.0244140625,179.51219177246094,-125.18292999267578,-3.5999999046325684,-7.199999809265137,7.199999809265137,37.96468734741211,0,
 807613,0.954345703125,3.287109375,-1.67333984375,99.08536529541016,-274.9695129394531,4.878048896789551,-3.5999999046325684,-7.199999809265137,7.199999809265137,37.72507095336914,0,
 807623,1.022216796875,1.261962890625,0.958740234375,578.0487670898438,-117.62195587158203,131.006103515625,-3.299999952316284,-9.449999809265137,13.800000190734863,37.91676330566406,0,
 807633,-0.064208984375,-0.196533203125,-1.231689453125,317.07318115234375,-84.08536529541016,60.45731735229492,-3.1500000953674316,-7.650000095367432,9.899999618530273,37.581302642822266,0,
 807643,0.16552734375,-1.41845703125,-0.32763671875,80.42683410644531,-217.22561645507812,75.33536529541016,-3.1500000953674316,-6.900000095367432,8.399999618530273,37.72507095336914,0,
 807653,1.016357421875,-1.9873046875,0.636962890625,-49.54268264770508,-162.9573211669922,167.53048706054688,-0.8999999761581421,-6.900000095367432,9.449999809265137,38.06053161621094,0,
 807663,0.07958984375,-1.2958984375,-0.237060546875,-151.5548858642578,-223.99391174316406,164.2987823486328,-0.8999999761581421,-6.900000095367432,9.449999809265137,37.91676330566406,0,
 807683,-2.026611328125,-0.53759765625,-2.03759765625,71.79878234863281,-60.54878234863281,-145.24391174316406,8.399999618530273,-12.600000381469727,10.800000190734863,37.91676330566406,0,
 807693,-2.56640625,0.19287109375,-1.51220703125,-118.32317352294922,116.70732116699219,-176.40245056152344,6.599999904632568,-12.449999809265137,5.699999809265137,37.91676330566406,0,
 807703,-0.077392578125,-0.17041015625,-0.241455078125,-162.46951293945312,27.28658676147461,-25.48780632019043,6.599999904632568,-12.449999809265137,5.699999809265137,37.868839263916016,0,
 807713,0.4150390625,-0.05517578125,-1.86279296875,-87.80487823486328,-172.10366821289062,72.5,5.400000095367432,-8.850000381469727,9.899999618530273,37.868839263916016,0,
 807723,-0.06787109375,-0.25732421875,-0.491943359375,-79.69512176513672,-164.69512939453125,162.04269409179688,6.300000190734863,-10.350000381469727,9.449999809265137,38.108455657958984,0,
 807733,-0.082275390625,-0.02294921875,-1.4267578125,-13.353658676147461,-155.3048858642578,157.6219482421875,5.849999904632568,-10.800000190734863,8.699999809265137,37.77299499511719,0,
 807743,-0.3125,-0.486083984375,-1.244873046875,-28.567073822021484,-131.89024353027344,83.38414764404297,5.699999809265137,-11.399999618530273,9.0,37.96468734741211,0,
 807753,-0.6064453125,-0.25048828125,-1.162109375,-69.54268646240234,-146.5548858642578,76.37195587158203,5.699999809265137,-11.399999618530273,9.0,37.77299499511719,0,
 807763,-0.719482421875,-0.267822265625,-0.85400390625,-26.371952056884766,-124.8780517578125,46.219512939453125,8.550000190734863,-13.199999809265137,8.699999809265137,37.96468734741211,0,
 807773,-0.60986328125,0.26416015625,-1.103759765625,20.487804412841797,-130.7012176513672,4.878048896789551,8.550000190734863,-14.850000381469727,9.449999809265137,37.96468734741211,0,
 807783,-1.00732421875,0.912109375,-1.220703125,-99.08536529541016,-115.60975646972656,14.969512939453125,12.0,-14.850000381469727,9.149999618530273,37.72507095336914,0,
 807793,-0.548828125,-0.656982421875,-0.5341796875,175.0,-84.8780517578125,-24.14634132385254,12.0,-14.850000381469727,9.149999618530273,37.96468734741211,0,
 807803,-0.2060546875,-1.935302734375,-1.416015625,367.83538818359375,-46.280487060546875,-10.182927131652832,12.300000190734863,-14.850000381469727,6.900000095367432,37.91676330566406,0,
 807813,-1.4287109375,-0.186767578125,-0.956298828125,-126.70732116699219,-180.64024353027344,24.481708526611328,14.699999809265137,-14.399999618530273,6.449999809265137,37.868839263916016,0,
 807823,-0.949462890625,0.31396484375,-0.427490234375,-198.90245056152344,-111.92073059082031,15.42682933807373,15.600000381469727,-14.25,5.550000190734863,37.96468734741211,0,
 807833,-0.702880859375,-0.09228515625,-0.770751953125,49.42073440551758,-24.23780632019043,45.54878234863281,14.699999809265137,-15.600000381469727,5.699999809265137,37.62922668457031,0,
 807843,-0.490234375,-0.662353515625,-0.744384765625,53.6280517578125,-14.695122718811035,12.164634704589844,14.699999809265137,-15.600000381469727,5.699999809265137,37.91676330566406,0,
 807853,-0.70361328125,-0.30517578125,-0.608154296875,-33.99390411376953,-63.84146499633789,14.695122718811035,14.850000381469727,-14.25,6.0,37.77299499511719,0,
 807863,-0.73876953125,-0.08642578125,-0.5224609375,-45.213417053222656,-41.6158561706543,11.67682933807373,16.200000762939453,-13.199999809265137,6.449999809265137,37.91676330566406,0,
 807873,-0.582763671875,-0.285400390625,-0.681396484375,-0.9451219439506531,-1.585365891456604,1.6768293380737305,15.75,-13.199999809265137,5.699999809265137,38.15637969970703,0,
 807883,-0.54150390625,-0.439208984375,-0.913818359375,17.5,14.481707572937012,6.5853657722473145,15.75,-13.199999809265137,5.699999809265137,37.91676330566406,0,
 807893,-0.627197265625,-0.195556640625,-0.66064453125,-7.804878234863281,-20.731708526611328,16.737804412841797,14.850000381469727,-12.600000381469727,4.800000190734863,37.77299499511719,0,
 807903,-0.65869140625,-0.219482421875,-0.7783203125,3.75,-12.77439022064209,6.25,14.399999618530273,-15.300000190734863,5.550000190734863,38.06053161621094,0,
 807913,-0.61328125,-0.262451171875,-0.758056640625,6.79878044128418,-3.262195110321045,8.018292427062988,16.5,-15.149999618530273,5.699999809265137,37.77299499511719,0,
 807923,-0.61669921875,-0.235107421875,-0.755859375,-12.408536911010742,1.8902438879013062,6.097560882568359,15.899999618530273,-15.0,4.800000190734863,37.868839263916016,0,
 807933,-0.5830078125,-0.1484375,-0.8369140625,-17.591463088989258,9.72560977935791,2.1646342277526855,15.899999618530273,-15.0,4.800000190734863,37.581302642822266,0,
 807943,-0.61181640625,-0.252685546875,-0.7587890625,2.682926893234253,2.5609755516052246,-4.329268455505371,17.25,-15.899999618530273,6.150000095367432,37.96468734741211,0,
 807953,-0.569091796875,-0.270751953125,-0.797119140625,3.262195110321045,4.146341323852539,-4.939024448394775,15.75,-16.350000381469727,4.949999809265137,38.06053161621094,0,
 807963,-0.586669921875,-0.3193359375,-0.804443359375,5.304878234863281,4.207317352294922,-3.658536672592163,16.200000762939453,-13.949999809265137,5.400000095367432,38.06053161621094,0,
 807973,-0.578369140625,-0.28515625,-0.812744140625,-2.2560975551605225,7.012195110321045,-1.920731782913208,16.200000762939453,-13.949999809265137,5.400000095367432,38.06053161621094,0,
 807993,-0.530029296875,-0.28466796875,-0.84130859375,-2.8353660106658936,8.719511985778809,-0.6707317233085632,16.200000762939453,-15.899999618530273,5.400000095367432,37.77299499511719,0,
 808004,-0.5498046875,-0.26318359375,-0.838623046875,-5.152439117431641,6.52439022064209,-0.4573170840740204,16.5,-15.899999618530273,3.450000047683716,37.77299499511719,0,
 808014,-0.537841796875,-0.277587890625,-0.84912109375,-3.170731782913208,5.5182929039001465,-0.4268292784690857,15.449999809265137,-16.350000381469727,6.150000095367432,37.96468734741211,0,
 808024,-0.519775390625,-0.256103515625,-0.858154296875,4.2682929039001465,-4.146341323852539,0.8841463327407837,15.449999809265137,-16.350000381469727,6.150000095367432,37.72507095336914,0,
 808034,-0.52880859375,-0.302490234375,-0.85400390625,1.8597561120986938,-7.9268293380737305,2.2560975551605225,16.200000762939453,-14.850000381469727,5.699999809265137,37.91676330566406,0,
 808044,-0.5380859375,-0.281982421875,-0.83154296875,1.3414634466171265,-8.993902206420898,2.9268293380737305,16.200000762939453,-15.600000381469727,5.699999809265137,38.108455657958984,0,
 808054,-0.475830078125,-0.271484375,-0.87548828125,-0.18292683362960815,-15.42682933807373,4.756097793579102,18.899999618530273,-14.850000381469727,6.900000095367432,37.91676330566406,0,
 808064,-0.478271484375,-0.265869140625,-0.89501953125,5.457317352294922,-23.871952056884766,6.189024448394775,18.899999618530273,-14.850000381469727,6.900000095367432,37.91676330566406,0,
 808074,-0.485107421875,-0.3037109375,-0.957275390625,5.945122241973877,-31.524391174316406,8.04878044128418,16.350000381469727,-15.300000190734863,6.75,37.868839263916016,0,
 808084,-0.497802734375,-0.319091796875,-0.974853515625,12.987805366516113,-40.335365295410156,9.329268455505371,15.899999618530273,-16.200000762939453,6.0,37.96468734741211,0,
 808124,-0.62060546875,-0.295166015625,-1.0732421875,6.006097793579102,-75.36585235595703,13.384146690368652,16.350000381469727,-15.0,5.550000190734863,37.62922668457031,0,
 808134,-0.788330078125,-0.2822265625,-0.97509765625,36.79878234863281,-81.43292999267578,-5.97560977935791,17.850000381469727,-15.75,4.050000190734863,37.91676330566406,0,
 808144,-1.06201171875,-0.313720703125,-0.83203125,35.94512176513672,-83.44512176513672,-27.774391174316406,17.700000762939453,-14.399999618530273,4.650000095367432,37.91676330566406,0,
 808154,-1.9873046875,-0.131591796875,-0.35498046875,-5.5182929039001465,-145.48780822753906,-60.94512176513672,17.700000762939453,-14.399999618530273,4.650000095367432,37.91676330566406,0,
 808164,-4.387939453125,-0.008544921875,-2.08544921875,136.4634246826172,116.31098175048828,-94.14634704589844,17.850000381469727,-15.75,3.299999952316284,38.06053161621094,0,
 808174,-1.365234375,-0.994873046875,0.390869140625,21.95121955871582,227.07318115234375,-99.84756469726562,17.850000381469727,-13.050000190734863,2.25,37.62922668457031,0,
 808184,-0.85693359375,-0.429931640625,-1.03955078125,-154.1768341064453,74.35975646972656,-79.29878234863281,15.899999618530273,-12.600000381469727,2.700000047683716,37.91676330566406,0,
 808194,-1.254150390625,0.400146484375,-0.572265625,-166.98170471191406,107.28659057617188,35.15243911743164,15.899999618530273,-12.600000381469727,3.75,37.91676330566406,0,
 808204,-0.441162109375,0.58349609375,-0.525146484375,-123.38414764404297,280.9756164550781,-5.27439022064209,15.899999618530273,-12.600000381469727,3.75,37.91676330566406,0,
 808214,0.107177734375,0.114013671875,-0.722900390625,38.719512939453125,335.4878234863281,-64.29878234863281,13.649999618530273,-14.25,6.0,37.96468734741211,0,
 808224,0.0126953125,-0.5126953125,-0.27490234375,216.03659057617188,264.8475646972656,-42.65243911743164,10.050000190734863,-13.199999809265137,5.400000095367432,37.62922668457031,0,
 808234,0.162353515625,-0.67822265625,0.376708984375,206.5548858642578,246.6768341064453,-36.371952056884766,10.050000190734863,-11.25,6.449999809265137,37.77299499511719,0,
 808244,0.171875,-0.449462890625,0.5498046875,57.80487823486328,269.7865905761719,-48.04878234863281,10.050000190734863,-11.25,6.449999809265137,37.96468734741211,0,
 808254,0.08984375,-0.2294921875,0.105224609375,-21.03658676147461,275.9146423339844,-35.182926177978516,8.550000190734863,-11.550000190734863,6.150000095367432,38.06053161621094,0,
 808264,0.33740234375,-0.23095703125,0.45068359375,67.16463470458984,263.506103515625,-35.0,3.9000000953674316,-11.25,9.899999618530273,37.91676330566406,0,
 808274,-0.2060546875,0.089599609375,0.09326171875,49.1158561706543,196.1280517578125,-80.09146881103516,3.0,-11.399999618530273,9.300000190734863,37.62922668457031,0,
 808284,-0.535888671875,0.170166015625,0.158935546875,29.725610733032227,139.48170471191406,-128.10975646972656,3.0,-11.399999618530273,9.300000190734863,37.91676330566406,0,
 808294,-0.755859375,0.344970703125,0.26513671875,6.554878234863281,137.19512939453125,-114.6036605834961,3.0,-11.399999618530273,9.300000190734863,37.91676330566406,0,
 808304,-0.87158203125,0.431884765625,-0.180419921875,-13.079268455505371,137.1341552734375,-97.83536529541016,-2.0999999046325684,-8.399999618530273,7.949999809265137,37.72507095336914,0,
 808314,-0.953857421875,0.124267578125,-0.4501953125,73.59756469726562,129.756103515625,-113.65853881835938,-3.299999952316284,-5.400000095367432,8.25,37.77299499511719,0,
 808324,-0.77783203125,-0.40380859375,-0.992431640625,37.92683029174805,69.29878234863281,-144.93902587890625,-3.299999952316284,-5.400000095367432,8.25,37.581302642822266,0,
 808334,3.972412109375,-2.751708984375,-7.999755859375,281.18902587890625,402.3780517578125,-5.579268455505371,-3.299999952316284,-5.400000095367432,8.25,37.91676330566406,0,
 808344,2.5341796875,-3.20263671875,1.035888671875,183.65853881835938,166.06707763671875,38.628047943115234,-3.9000000953674316,-4.050000190734863,8.699999809265137,37.96468734741211,0,
 808354,1.248291015625,0.829345703125,-0.814453125,-621.7987670898438,-258.3841552734375,297.07318115234375,-0.15000000596046448,-11.550000190734863,11.699999809265137,37.91676330566406,0,
 808364,-4.72021484375,0.6474609375,-4.814453125,199.0548858642578,-230.0,19.390243530273438,-1.649999976158142,-8.399999618530273,7.949999809265137,37.77299499511719,0,
 808374,-1.79443359375,-2.6025390625,1.861328125,396.43292236328125,-86.49390411376953,-313.993896484375,-1.649999976158142,-8.399999618530273,7.949999809265137,37.77299499511719,0,
 808384,1.124267578125,0.85986328125,-3.01953125,-639.4207763671875,304.3902587890625,-1.8902438879013062,-1.649999976158142,-8.399999618530273,7.949999809265137,37.91676330566406,0,
 808404,-0.31689453125,1.294921875,-1.391357421875,81.79878234863281,-192.59146118164062,-12.62195110321045,-4.5,-10.649999618530273,8.550000190734863,37.77299499511719,0,
 808414,0.152099609375,-0.64892578125,-0.333251953125,483.1707458496094,-18.90243911743164,77.59146881103516,-4.5,-10.649999618530273,8.550000190734863,38.06053161621094,0,
 808424,0.368896484375,-1.635986328125,-0.391357421875,421.1585388183594,-20.518293380737305,67.68292999267578,-4.5,-10.649999618530273,8.550000190734863,37.72507095336914,0,
 808434,0.002685546875,-1.557373046875,-0.154052734375,66.31097412109375,-79.05487823486328,17.378049850463867,-4.949999809265137,-6.300000190734863,5.550000190734863,38.108455657958984,0,
 808444,0.5205078125,-0.552734375,0.1611328125,-139.35975646972656,-64.23780822753906,28.170732498168945,-0.44999998807907104,-7.199999809265137,9.449999809265137,38.108455657958984,0,
 808464,1.541259765625,-0.46826171875,0.214599609375,-184.96951293945312,-53.567073822021484,88.20122528076172,-2.25,-10.649999618530273,10.050000190734863,37.77299499511719,0,
 808474,1.6337890625,-0.37060546875,-0.768310546875,-67.07317352294922,-277.9268493652344,20.518293380737305,1.7999999523162842,-13.050000190734863,10.050000190734863,37.91676330566406,0,
 808484,0.248779296875,-0.389892578125,-0.01123046875,-112.28659057617188,-290.1524353027344,41.158538818359375,3.9000000953674316,-11.550000190734863,9.899999618530273,37.96468734741211,0,
 808494,-0.216796875,-0.400146484375,-1.028076171875,0.7012194991111755,-322.43902587890625,59.08536911010742,5.400000095367432,-13.949999809265137,8.699999809265137,37.96468734741211,0,
 808504,-1.168701171875,-0.42919921875,-1.33740234375,29.725610733032227,-358.93292236328125,66.06707763671875,5.400000095367432,-13.949999809265137,8.699999809265137,37.868839263916016,0,
 808514,-2.463134765625,-0.0927734375,-2.356201171875,-79.7256088256836,-181.34146118164062,12.22560977935791,9.600000381469727,-13.949999809265137,8.699999809265137,37.77299499511719,0,
 808524,-1.768798828125,-0.46826171875,-0.61083984375,-56.09756088256836,-117.07317352294922,37.34756088256836,9.449999809265137,-8.699999809265137,8.550000190734863,37.91676330566406,0,
 808534,-1.314208984375,-0.189208984375,-1.738037109375,-60.3658561706543,-85.7317123413086,94.39024353027344,10.050000190734863,-10.050000190734863,8.699999809265137,37.96468734741211,0,
 808544,-0.623779296875,-0.066650390625,-0.836181640625,6.890244007110596,-89.29878234863281,102.83536529541016,10.5,-10.350000381469727,6.900000095367432,37.91676330566406,0,
 808554,-0.802978515625,-0.426025390625,-0.805908203125,-22.28658676147461,-10.518293380737305,67.16463470458984,10.5,-10.350000381469727,6.900000095367432,37.91676330566406,0,
 808564,-0.64453125,-0.455322265625,-1.169921875,-102.86585235595703,6.95121955871582,48.658538818359375,10.050000190734863,-10.800000190734863,6.449999809265137,37.77299499511719,0,
 808624,-0.548583984375,-0.470703125,-0.839599609375,98.81097412109375,-48.963417053222656,-11.920731544494629,14.399999618530273,-13.050000190734863,5.25,37.91676330566406,0,
 808634,-0.368896484375,-0.89697265625,-0.803955078125,-24.60365867614746,-92.56097412109375,-0.5487805008888245,14.850000381469727,-13.350000381469727,6.75,37.91676330566406,0,
 808644,-0.825439453125,-0.02197265625,-0.714599609375,-80.60975646972656,-61.524391174316406,-4.542683124542236,14.850000381469727,-13.350000381469727,6.75,37.91676330566406,0,
 808664,-0.803466796875,-0.38818359375,-0.7314453125,45.24390411376953,-34.42073440551758,-5.70121955871582,15.149999618530273,-10.649999618530273,5.550000190734863,37.77299499511719,0,
 808674,-0.8095703125,-0.43701171875,-0.610595703125,15.640244483947754,-20.487804412841797,-2.1646342277526855,15.600000381469727,-12.600000381469727,4.050000190734863,37.91676330566406,0,
 808684,-0.7236328125,-0.46826171875,-0.691650390625,3.841463565826416,12.042683601379395,-0.030487805604934692,15.600000381469727,-12.600000381469727,4.050000190734863,37.96468734741211,0,
 808694,-0.57275390625,-0.31787109375,-0.763427734375,-22.19512176513672,27.012195587158203,5.54878044128418,13.350000381469727,-11.850000381469727,5.550000190734863,37.96468734741211,0,
