timestamp,accl_x,accl_y,accl_z,gyro_x,gyro_y,gyro_z,mag_x,mag_y,mag_z,temp,emg,
 781271,-0.28466796875,-0.284423828125,-0.9560546875,-1.3719512224197388,-0.3353658616542816,-0.060975611209869385,1.7999999523162842,-13.800000190734863,11.25,38.06053161621094,0,
 781281,-0.29833984375,-0.295166015625,-0.95703125,-0.9451219439506531,0.5182926654815674,-0.4573170840740204,1.7999999523162842,-10.649999618530273,11.25,37.72507095336914,0,
 781291,-0.283203125,-0.30224609375,-0.95361328125,-1.3414634466171265,0.9146341681480408,-0.5182926654815674,1.5,-12.149999618530273,13.5,37.91676330566406,0,
 781301,-0.25439453125,-0.291015625,-0.943115234375,-1.6158536672592163,0.8536585569381714,0.0,2.0999999046325684,-12.0,13.649999618530273,37.96468734741211,0,
 781371,-0.285400390625,-0.2890625,-0.958984375,-2.012195110321045,-3.75,1.1585365533828735,4.199999809265137,-11.850000381469727,9.75,37.91676330566406,0,
 781381,-0.30859375,-0.298095703125,-0.9609375,-1.25,-2.987804889678955,0.15243902802467346,2.25,-12.149999618530273,13.050000190734863,38.06053161621094,0,
 781391,-0.309814453125,-0.287841796875,-0.9599609375,-1.6768293380737305,-2.5304877758026123,0.15243902802467346,1.0499999523162842,-12.600000381469727,13.050000190734863,38.06053161621094,0,
 781401,-0.2919921875,-0.282958984375,-0.96923828125,-1.6158536672592163,-1.3109756708145142,0.396341472864151,3.1500000953674316,-12.449999809265137,10.649999618530273,37.96468734741211,0,
 781411,-0.282470703125,-0.281005859375,-0.95556640625,-1.585365891456604,-0.5487805008888245,0.18292683362960815,3.1500000953674316,-12.449999809265137,10.649999618530273,37.91676330566406,0,
 781421,-0.275146484375,-0.28515625,-0.9580078125,-1.2804877758026123,-0.4573170840740204,0.24390244483947754,3.0,-13.350000381469727,12.0,38.108455657958984,0,
 781431,-0.2822265625,-0.287109375,-0.953125,-0.5487805008888245,-0.792682945728302,0.3048780560493469,3.0,-14.550000190734863,13.5,37.62922668457031,0,
 781441,-0.288818359375,-0.284423828125,-0.954345703125,-1.3719512224197388,-0.7012194991111755,0.0,3.1500000953674316,-12.75,12.449999809265137,37.77299499511719,0,
 781451,-0.287841796875,-0.28564453125,-0.9580078125,-0.6707317233085632,-0.4878048896789551,-0.030487805604934692,3.1500000953674316,-12.75,12.449999809265137,38.108455657958984,0,
 781461,-0.29541015625,-0.2822265625,-0.958740234375,-0.8536585569381714,0.27439025044441223,0.0,2.549999952316284,-10.949999809265137,12.75,38.06053161621094,0,
 781471,-0.28125,-0.287109375,-0.9501953125,-0.5487805008888245,0.8231707215309143,0.060975611209869385,2.25,-11.399999618530273,12.300000190734863,38.06053161621094,0,
 781481,-0.27099609375,-0.283203125,-0.951171875,-0.8841463327407837,0.4878048896789551,0.12195122241973877,2.0999999046325684,-13.949999809265137,11.699999809265137,37.91676330566406,0,
 781491,-0.28173828125,-0.28125,-0.952880859375,-0.9146341681480408,0.3658536672592163,-0.030487805604934692,0.44999998807907104,-11.550000190734863,13.649999618530273,38.06053161621094,0,
 781511,-0.297607421875,-0.277587890625,-0.956787109375,-0.4268292784690857,0.3658536672592163,-0.4268292784690857,2.4000000953674316,-13.949999809265137,12.449999809265137,38.108455657958984,0,
 781521,-0.2802734375,-0.284912109375,-0.95166015625,0.030487805604934692,0.9756097793579102,0.12195122241973877,0.75,-12.600000381469727,13.050000190734863,37.91676330566406,0,
 781531,-0.27490234375,-0.282470703125,-0.95166015625,-0.5487805008888245,1.1585365533828735,0.18292683362960815,3.1500000953674316,-13.649999618530273,13.199999809265137,37.72507095336914,0,
 781541,-0.280517578125,-0.27783203125,-0.94677734375,-0.4878048896789551,0.7317073345184326,-0.060975611209869385,3.1500000953674316,-13.649999618530273,13.199999809265137,37.72507095336914,0,
 781551,-0.271240234375,-0.28515625,-0.953369140625,-0.396341472864151,0.7317073345184326,0.24390244483947754,2.25,-12.600000381469727,12.300000190734863,37.77299499511719,0,
 781561,-0.30224609375,-0.28466796875,-0.966064453125,0.5792682766914368,1.402438998222351,-0.060975611209869385,1.0499999523162842,-13.350000381469727,12.0,38.15637969970703,0,
 781571,-0.29248046875,-0.293701171875,-0.9501953125,0.4268292784690857,1.3719512224197388,-0.3658536672592163,0.44999998807907104,-10.800000190734863,12.899999618530273,37.72507095336914,0,
 781581,-0.275390625,-0.291015625,-0.94873046875,-0.6707317233085632,1.0670732259750366,0.15243902802467346,0.44999998807907104,-12.75,9.899999618530273,37.91676330566406,0,
 781591,-0.253662109375,-0.2822265625,-0.947265625,-0.24390244483947754,0.27439025044441223,0.24390244483947754,3.0,-13.050000190734863,13.800000190734863,38.06053161621094,0,
 781601,-0.265625,-0.27734375,-0.948486328125,-0.21341463923454285,-0.396341472864151,0.09146341681480408,1.2000000476837158,-12.0,11.399999618530273,37.96468734741211,0,
 781611,-0.26416015625,-0.28076171875,-0.946533203125,0.18292683362960815,-1.0060975551605225,0.6402438879013062,2.0999999046325684,-13.199999809265137,12.449999809265137,37.91676330566406,0,
 781621,-0.269287109375,-0.2861328125,-0.949951171875,0.396341472864151,-1.402438998222351,0.6707317233085632,2.0999999046325684,-14.399999618530273,11.699999809265137,37.96468734741211,0,
 781631,-0.269775390625,-0.284423828125,-0.949951171875,0.396341472864151,-1.7987805604934692,0.792682945728302,2.0999999046325684,-14.399999618530273,11.699999809265137,38.06053161621094,0,
 781641,-0.28125,-0.2919921875,-0.9501953125,0.4573170840740204,-2.1646342277526855,0.6707317233085632,2.0999999046325684,-12.75,13.199999809265137,38.06053161621094,0,
 781651,-0.308349609375,-0.29296875,-0.96630859375,-0.396341472864151,-0.3048780560493469,0.18292683362960815,2.4000000953674316,-11.25,12.149999618530273,38.06053161621094,0,
 781661,-0.285400390625,-0.2880859375,-0.956298828125,-0.060975611209869385,-1.2195122241973877,0.4573170840740204,1.5,-13.350000381469727,12.300000190734863,37.91676330566406,0,
 781671,-0.277099609375,-0.277587890625,-0.95654296875,0.12195122241973877,-1.3414634466171265,0.6097561120986938,1.5,-13.350000381469727,12.300000190734863,37.91676330566406,0,
 781681,-0.27197265625,-0.281005859375,-0.951171875,0.4878048896789551,-1.737804889678955,0.7621951103210449,2.549999952316284,-12.149999618530273,8.25,37.77299499511719,0,
 781691,-0.265625,-0.282958984375,-0.949462890625,0.6402438879013062,-2.682926893234253,0.8231707215309143,3.299999952316284,-12.149999618530273,11.25,38.06053161621094,0,
 781701,-0.275146484375,-0.27490234375,-0.958740234375,1.3414634466171265,-3.47560977935791,1.097561001777649,3.9000000953674316,-11.550000190734863,11.399999618530273,37.96468734741211,0,
 781711,-0.288818359375,-0.272216796875,-0.97509765625,2.22560977935791,-3.932926893234253,1.1585365533828735,2.4000000953674316,-11.25,12.449999809265137,38.15637969970703,0,
 781721,-0.334228515625,-0.30908203125,-1.005615234375,4.817073345184326,-4.329268455505371,1.2804877758026123,2.4000000953674316,-11.25,12.449999809265137,37.77299499511719,0,
 781731,-0.35205078125,-0.322265625,-1.0263671875,4.2682929039001465,-4.817073345184326,1.25,2.4000000953674316,-13.649999618530273,12.149999618530273,37.868839263916016,0,
 781741,-0.36181640625,-0.328369140625,-1.005615234375,4.054878234863281,-4.542683124542236,0.8231707215309143,2.4000000953674316,-11.550000190734863,11.399999618530273,38.108455657958984,0,
 781751,-0.2724609375,-0.351318359375,-0.988525390625,6.036585330963135,-2.7439024448394775,6.707317352294922,2.0999999046325684,-10.800000190734863,12.149999618530273,38.06053161621094,0,
 781761,-0.407958984375,-0.368896484375,-0.90576171875,1.432926893234253,-10.182927131652832,15.27439022064209,2.0999999046325684,-10.800000190734863,12.149999618530273,37.96468734741211,0,
 781771,-0.492919921875,0.064208984375,-0.89697265625,-33.84146499633789,-22.591463088989258,35.213417053222656,1.7999999523162842,-12.600000381469727,12.300000190734863,37.77299499511719,0,
 781781,-0.804931640625,0.145263671875,-0.9658203125,-35.57926940917969,-43.84146499633789,53.07926940917969,3.5999999046325684,-11.25,9.449999809265137,37.96468734741211,0,
 781791,-0.69970703125,-0.400390625,-0.970947265625,98.17073059082031,-45.182926177978516,58.01829528808594,3.1500000953674316,-13.949999809265137,11.399999618530273,37.96468734741211,0,
 781801,-0.571533203125,-0.635009765625,-0.952880859375,94.93902587890625,-48.44512176513672,60.64024353027344,4.349999904632568,-12.0,10.199999809265137,38.06053161621094,0,
 781811,-0.62939453125,-0.358154296875,-1.0380859375,22.713415145874023,-68.87195587158203,64.84756469726562,4.349999904632568,-12.0,10.199999809265137,37.91676330566406,0,
 781821,-0.647216796875,-0.513916015625,-0.99658203125,47.530487060546875,-83.3536605834961,66.03659057617188,4.199999809265137,-12.149999618530273,10.5,37.91676330566406,0,
 781831,-0.643798828125,-0.51953125,-1.020263671875,28.5060977935791,-84.29878234863281,62.59146499633789,6.300000190734863,-13.199999809265137,11.399999618530273,38.15637969970703,0,
 781841,-0.525146484375,-0.392333984375,-1.05615234375,-2.6524391174316406,-80.57926940917969,55.274391174316406,7.199999809265137,-13.350000381469727,10.800000190734863,37.96468734741211,0,
 781851,-0.44970703125,-0.4833984375,-1.016357421875,12.164634704589844,-91.49390411376953,49.05487823486328,7.199999809265137,-13.350000381469727,10.800000190734863,37.91676330566406,0,
 781871,-0.357666015625,-0.400634765625,-1.0244140625,3.3231709003448486,-99.96951293945312,32.59146499633789,8.699999809265137,-12.600000381469727,9.300000190734863,37.72507095336914,0,
 781881,-0.289306640625,-0.37890625,-0.985107421875,-1.6463414430618286,-100.9756088256836,26.371952056884766,7.349999904632568,-12.449999809265137,9.149999618530273,38.15637969970703,0,
 781891,-0.104248046875,-0.361328125,-0.939697265625,-13.20121955871582,-100.36585235595703,21.64634132385254,6.75,-13.800000190734863,5.550000190734863,37.91676330566406,0,
 781901,0.0361328125,-0.40234375,-0.900390625,-12.530488014221191,-102.56098175048828,20.823171615600586,6.75,-13.800000190734863,5.550000190734863,37.96468734741211,0,
 781911,0.26416015625,-0.272705078125,-0.88720703125,-38.353660583496094,-94.42073059082031,18.90243911743164,9.899999618530273,-13.800000190734863,7.800000190734863,38.06053161621094,0,
 781921,0.76171875,-0.21826171875,-0.6884765625,-47.530487060546875,-81.92073059082031,17.19512176513672,8.550000190734863,-14.399999618530273,7.949999809265137,37.91676330566406,0,
 781931,1.47802734375,-0.1982421875,-0.34619140625,-75.45732116699219,-75.91463470458984,22.042682647705078,11.550000190734863,-16.350000381469727,5.699999809265137,38.06053161621094,0,
 781941,2.466796875,-0.1513671875,0.126220703125,-141.76829528808594,-92.43902587890625,44.085365295410156,11.550000190734863,-16.350000381469727,5.699999809265137,37.91676330566406,0,
 781951,3.22265625,0.236083984375,0.041015625,-237.01220703125,-175.5792694091797,96.5243911743164,13.050000190734863,-19.200000762939453,8.699999809265137,37.91676330566406,0,
 781961,2.91552734375,0.530517578125,-0.239501953125,-173.71951293945312,-310.243896484375,117.31707763671875,13.050000190734863,-21.450000762939453,7.949999809265137,38.06053161621094,0,
 781971,1.319091796875,0.050537109375,-1.08935546875,-10.670731544494629,-408.9939270019531,54.26829528808594,14.100000381469727,-20.549999237060547,7.5,37.77299499511719,0,
 781981,0.396484375,-1.064697265625,-1.331298828125,145.82318115234375,-339.1158752441406,-45.57926940917969,16.350000381469727,-20.850000381469727,6.0,38.15637969970703,0,
 781991,-8.0,-2.369384765625,-4.18798828125,91.4024429321289,-346.7378234863281,-110.54878234863281,16.350000381469727,-20.850000381469727,6.0,37.77299499511719,0,
 782001,-5.020263671875,-1.63134765625,8.0,-999.0244140625,-747.0731811523438,-493.96343994140625,21.149999618530273,-15.600000381469727,0.15000000596046448,37.96468734741211,0,
 782011,0.41796875,3.13037109375,-0.427001953125,998.993896484375,-307.0426940917969,-173.9329376220703,19.950000762939453,-14.850000381469727,6.150000095367432,37.868839263916016,0,
 782021,-1.301513671875,-0.618896484375,-1.233642578125,998.993896484375,-96.46341705322266,233.3841552734375,15.899999618530273,-10.199999809265137,0.75,37.96468734741211,0,
 782031,-0.78564453125,-4.112548828125,0.1318359375,-367.95733642578125,226.5853729248047,121.70732116699219,15.899999618530273,-10.199999809265137,0.75,38.06053161621094,0,
 782042,0.385498046875,-1.142578125,-1.719970703125,-692.1951293945312,-115.33536529541016,20.2439022064209,11.699999809265137,-14.25,-0.75,38.06053161621094,0,
 782052,-0.117919921875,0.590576171875,-1.322998046875,-344.4207458496094,-190.51829528808594,122.7743911743164,12.75,-17.549999237060547,3.450000047683716,38.06053161621094,0,
 782062,-1.288330078125,1.79248046875,-0.422119140625,191.006103515625,-37.469512939453125,47.5,16.5,-21.899999618530273,1.9500000476837158,37.91676330566406,0,
 782072,-0.8642578125,1.46728515625,-1.37451171875,859.1158447265625,123.84146881103516,-101.92073059082031,20.100000381469727,-18.600000381469727,1.7999999523162842,37.96468734741211,0,
 782082,-1.878662109375,-1.927734375,-2.2978515625,349.6341552734375,234.93902587890625,-97.1036605834961,20.100000381469727,-18.600000381469727,1.7999999523162842,37.96468734741211,0,
 782092,1.466552734375,-2.694091796875,0.70849609375,-224.11585998535156,0.12195122241973877,-20.274391174316406,17.549999237060547,-13.800000190734863,-5.25,37.96468734741211,0,
 782102,0.031982421875,-0.537109375,-2.28076171875,-79.78659057617188,28.35365867614746,-46.158538818359375,19.649999618530273,-13.649999618530273,0.15000000596046448,38.15637969970703,0,
 782112,-0.287841796875,-0.260498046875,-1.265869140625,-18.871952056884766,132.28659057617188,-26.219512939453125,18.450000762939453,-13.649999618530273,-0.15000000596046448,37.91676330566406,0,
 782122,0.04345703125,-0.038818359375,-1.345703125,-124.78659057617188,160.0,-37.103660583496094,18.450000762939453,-13.649999618530273,-0.15000000596046448,37.96468734741211,0,
 782132,-0.19091796875,0.390380859375,-0.927001953125,-92.31707763671875,196.4634246826172,-31.829269409179688,18.299999237060547,-15.0,3.75,37.96468734741211,0,
 782142,0.120849609375,0.490478515625,-0.7041015625,46.524391174316406,216.5548858642578,-9.481707572937012,17.700000762939453,-14.850000381469727,2.700000047683716,37.96468734741211,0,
 782152,-0.139892578125,0.12255859375,-0.65185546875,-21.73780632019043,223.9329376220703,23.018293380737305,16.350000381469727,-15.0,6.0,37.96468734741211,0,
 782162,0.209228515625,-0.1787109375,0.404296875,-252.04269409179688,-104.81707763671875,37.225608825683594,15.600000381469727,-13.050000190734863,5.550000190734863,37.72507095336914,0,
 782172,-1.35107421875,-1.420654296875,8.0,-805.8841552734375,-473.6280517578125,-25.54878044128418,15.600000381469727,-13.050000190734863,5.550000190734863,37.91676330566406,0,
 782182,-1.731201171875,0.165771484375,-0.072509765625,-281.493896484375,132.34756469726562,-297.5914611816406,15.449999809265137,-17.549999237060547,8.399999618530273,38.06053161621094,0,
 782192,4.843017578125,-1.135009765625,4.31640625,735.9451293945312,426.4634094238281,176.73780822753906,13.5,-12.75,2.4000000953674316,38.108455657958984,0,
 782202,-1.260498046875,-0.056884765625,-7.25439453125,-70.57926940917969,-97.34756469726562,255.64024353027344,10.199999809265137,-7.050000190734863,4.800000190734863,38.06053161621094,0,
 782212,-1.87939453125,-3.75390625,5.476806640625,345.0304870605469,-438.2926940917969,-159.756103515625,10.199999809265137,-7.050000190734863,4.800000190734863,37.96468734741211,0,
 782222,2.27587890625,0.437255859375,1.786865234375,-328.20123291015625,486.4939270019531,151.76829528808594,16.350000381469727,-14.550000190734863,6.0,37.91676330566406,0,
 782232,-0.55029296875,1.222412109375,-4.45458984375,113.14024353027344,128.56707763671875,80.42683410644531,19.799999237060547,-16.950000762939453,8.550000190734863,37.96468734741211,0,
 782242,-0.65087890625,-3.163330078125,1.979736328125,916.6768798828125,-106.70732116699219,-39.26829528808594,18.899999618530273,-14.850000381469727,8.699999809265137,38.15637969970703,0,
 782252,-0.831298828125,-1.626708984375,-1.150390625,-285.3353576660156,150.06097412109375,-66.73780822753906,16.200000762939453,-12.75,4.949999809265137,37.96468734741211,0,
 782262,0.02294921875,0.7451171875,-1.18359375,-734.268310546875,92.5,94.11585235595703,16.200000762939453,-12.75,4.949999809265137,37.91676330566406,0,
 782272,-0.52197265625,1.37890625,-0.6494140625,-581.73779296875,-10.12195110321045,99.0243911743164,16.799999237060547,-19.350000381469727,10.800000190734863,38.15637969970703,0,
 782282,-0.631103515625,1.037841796875,-0.91259765625,-77.86585235595703,-49.17683029174805,-10.396341323852539,16.350000381469727,-20.100000381469727,10.050000190734863,37.96468734741211,0,
 782292,-0.42626953125,0.061767578125,-0.905517578125,273.3536682128906,-46.006099700927734,-15.884146690368652,15.600000381469727,-16.950000762939453,7.050000190734863,37.91676330566406,0,
 782302,-0.674072265625,-0.42431640625,-0.8369140625,287.8963623046875,-65.45732116699219,-25.70121955871582,15.600000381469727,-16.950000762939453,7.050000190734863,38.06053161621094,0,
 782312,-0.6572265625,-0.5810546875,-0.76806640625,119.69512176513672,-34.45122146606445,-40.274391174316406,15.75,-14.399999618530273,7.199999809265137,37.96468734741211,0,
 782322,-0.6513671875,-0.140380859375,-0.82177734375,-3.353658676147461,-36.82926940917969,-29.481708526611328,17.549999237060547,-17.399999618530273,8.25,37.77299499511719,0,
 782332,-0.667724609375,-0.0322265625,-0.667724609375,68.87195587158203,-57.3780517578125,-31.40243911743164,18.0,-15.600000381469727,6.900000095367432,38.108455657958984,0,
 782342,-0.7119140625,-0.385009765625,-0.730224609375,166.006103515625,-61.463417053222656,-44.5121955871582,18.299999237060547,-15.0,6.300000190734863,38.06053161621094,0,
 782352,-0.828125,-0.8212890625,-0.302490234375,125.91463470458984,-62.89634323120117,-10.914634704589844,16.799999237060547,-13.350000381469727,6.300000190734863,37.96468734741211,0,
 782362,-0.873291015625,-0.344970703125,-0.312255859375,-70.70121765136719,-6.79878044128418,19.908536911010742,18.0,-15.899999618530273,5.400000095367432,38.06053161621094,0,
 782372,-0.649658203125,-0.07373046875,-0.817138671875,-149.02439880371094,52.34756088256836,3.841463565826416,18.450000762939453,-14.399999618530273,7.199999809265137,37.77299499511719,0,
 782382,-0.60107421875,-0.041748046875,-0.7421875,-70.21341705322266,19.512195587158203,1.0060975551605225,17.25,-15.600000381469727,6.900000095367432,38.06053161621094,0,
 782392,-0.795654296875,-0.260009765625,-0.67431640625,26.310976028442383,-12.286585807800293,2.9268293380737305,17.25,-15.600000381469727,6.900000095367432,37.91676330566406,0,
 782402,-0.629638671875,-0.32958984375,-0.778564453125,13.536585807800293,4.695122241973877,2.2560975551605225,18.0,-17.100000381469727,7.199999809265137,37.868839263916016,0,
 782412,-0.68994140625,-0.119384765625,-0.79150390625,-17.865854263305664,-1.2804877758026123,2.6524391174316406,18.600000381469727,-16.5,6.75,37.77299499511719,0,
 782422,-0.64404296875,-0.21044921875,-0.822998046875,13.170731544494629,-1.2195122241973877,2.9573171138763428,17.700000762939453,-14.850000381469727,7.199999809265137,37.96468734741211,0,
 782432,-0.61328125,-0.209716796875,-0.87548828125,16.4939022064209,-6.402439117431641,2.408536672592163,17.700000762939453,-14.850000381469727,7.199999809265137,37.91676330566406,0,
 782442,-0.62744140625,-0.24072265625,-0.827392578125,15.335366249084473,-13.75,3.2012195587158203,18.450000762939453,-13.649999618530273,6.900000095367432,37.96468734741211,0,
 782452,-0.623046875,-0.29638671875,-0.849609375,15.97560977935791,-17.926830291748047,2.987804889678955,18.0,-15.600000381469727,7.650000095367432,37.96468734741211,0,
 782462,-0.606201171875,-0.287353515625,-0.86376953125,0.792682945728302,-21.03658676147461,5.243902683258057,17.850000381469727,-15.300000190734863,5.550000190734863,37.868839263916016,0,
 782472,-0.608642578125,-0.242919921875,-0.888916015625,-2.9573171138763428,-36.158538818359375,7.408536911010742,19.350000381469727,-14.550000190734863,7.050000190734863,38.06053161621094,0,
 782482,-0.645263671875,-0.26611328125,-0.869873046875,-2.987804889678955,-43.90243911743164,6.737804889678955,19.350000381469727,-14.550000190734863,7.050000190734863,37.96468734741211,0,
 782492,-0.7353515625,-0.2646484375,-0.78369140625,1.4939024448394775,-43.506099700927734,3.75,19.950000762939453,-15.149999618530273,6.449999809265137,37.91676330566406,0,
 782502,-0.867431640625,-0.22216796875,-0.712890625,7.195122241973877,-39.756099700927734,-8.384146690368652,18.0,-15.149999618530273,3.1500000953674316,37.91676330566406,0,
 782512,-1.000244140625,-0.219482421875,-0.528076171875,1.7682926654815674,-27.621952056884766,-15.70121955871582,19.950000762939453,-15.600000381469727,4.650000095367432,37.91676330566406,0,
 782522,-1.29296875,-0.15869140625,-0.282470703125,-64.08536529541016,-54.39024353027344,-36.79878234863281,19.950000762939453,-15.600000381469727,4.650000095367432,37.91676330566406,0,
 782532,-2.297119140625,0.180908203125,-0.283935546875,-16.09756088256836,-36.310977935791016,-73.20121765136719,19.350000381469727,-15.300000190734863,5.550000190734863,37.868839263916016,0,
 782552,-1.465576171875,-0.591796875,-0.099365234375,100.1524429321289,143.71951293945312,-28.323171615600586,16.200000762939453,-13.649999618530273,4.949999809265137,37.62922668457031,0,
 782562,-0.976806640625,-0.778564453125,-0.728271484375,-102.80487823486328,34.93902587890625,44.35975646972656,15.75,-13.199999809265137,4.199999809265137,37.96468734741211,0,
 782572,-1.1435546875,-0.26904296875,-0.24755859375,-224.90853881835938,59.54268264770508,101.9817123413086,15.75,-13.199999809265137,4.199999809265137,38.108455657958984,0,
 782592,-0.99267578125,0.782470703125,-0.443603515625,34.1158561706543,85.2743911743164,62.560977935791016,15.449999809265137,-15.600000381469727,6.900000095367432,37.96468734741211,0,
 782602,-0.796875,0.342041015625,-0.502685546875,171.98170471191406,33.353660583496094,76.61585235595703,15.449999809265137,-13.949999809265137,4.199999809265137,37.868839263916016,0,
 782612,-0.93017578125,-0.04345703125,-0.536865234375,129.23780822753906,46.64634323120117,73.38414764404297,15.449999809265137,-13.949999809265137,4.199999809265137,37.91676330566406,0,
 782622,-0.821533203125,-0.222412109375,-0.484130859375,39.14634323120117,66.43292999267578,79.29878234863281,13.649999618530273,-15.300000190734863,4.800000190734863,38.15637969970703,0,
 782632,-0.390380859375,0.039794921875,-0.65771484375,28.567073822021484,59.42073440551758,88.17073059082031,15.149999618530273,-16.200000762939453,5.25,38.06053161621094,0,
 782642,-0.302734375,-0.083251953125,-0.555908203125,87.68292999267578,26.89024543762207,89.81707763671875,13.800000190734863,-18.0,7.650000095367432,37.91676330566406,0,
 782652,-0.133056640625,-0.236083984375,-0.573974609375,115.79268646240234,4.02439022064209,89.08536529541016,18.899999618530273,-18.0,4.199999809265137,37.77299499511719,0,
 782662,0.083984375,-0.420166015625,-0.51123046875,123.4756088256836,-13.536585807800293,90.67073059082031,18.899999618530273,-18.0,4.199999809265137,38.25222396850586,0,
 782672,0.0322265625,-0.48583984375,-0.5986328125,61.006099700927734,-20.15243911743164,84.75609588623047,15.0,-18.299999237060547,4.650000095367432,37.91676330566406,0,
 782682,0.16259765625,-0.4990234375,-0.47119140625,-5.457317352294922,-43.04878234863281,62.13414764404297,15.600000381469727,-17.399999618530273,5.550000190734863,38.06053161621094,0,
 782692,0.3955078125,-0.40673828125,-0.305908203125,-65.57926940917969,-40.79268264770508,59.78658676147461,14.399999618530273,-17.700000762939453,7.050000190734863,38.15637969970703,0,
 782702,0.780517578125,-0.164306640625,-0.19677734375,-122.86585998535156,-61.09756088256836,57.835365295410156,14.399999618530273,-17.700000762939453,7.050000190734863,37.96468734741211,0,
 782712,1.02392578125,0.115234375,-0.145751953125,-129.96951293945312,-136.4329376220703,30.426830291748047,15.899999618530273,-18.899999618530273,1.0499999523162842,37.91676330566406,0,
 782722,0.515869140625,0.188232421875,-0.138671875,-66.9817123413086,-233.65853881835938,5.3353657722473145,16.799999237060547,-20.100000381469727,4.800000190734863,38.06053161621094,0,
 782732,0.17822265625,-0.072021484375,-0.2421875,28.658536911010742,-285.2743835449219,-8.658536911010742,18.450000762939453,-21.149999618530273,3.1500000953674316,37.96468734741211,0,
 782742,-0.18603515625,-0.263671875,-0.353271484375,54.93902587890625,-333.81097412109375,-14.908536911010742,19.649999618530273,-18.75,-1.9500000476837158,38.25222396850586,0,
 782752,-1.351806640625,0.154541015625,-2.3359375,44.32926940917969,-390.2134094238281,-14.57317066192627,19.649999618530273,-18.75,-1.9500000476837158,37.91676330566406,0,
 782762,-8.0,-0.990234375,-5.220947265625,486.4939270019531,-335.33538818359375,-165.15243530273438,20.399999618530273,-20.700000762939453,-6.150000095367432,38.108455657958984,0,
 782772,4.35595703125,-1.628662109375,5.279541015625,26.463415145874023,455.9756164550781,-180.82318115234375,20.700000762939453,-17.100000381469727,-5.699999809265137,38.108455657958984,0,
 782782,1.183837890625,0.96142578125,-7.6826171875,-166.49391174316406,273.68902587890625,83.41463470458984,20.700000762939453,-15.600000381469727,-0.44999998807907104,38.06053161621094,0,
 782792,-2.52099609375,-3.837158203125,2.451171875,542.0731811523438,-492.07318115234375,21.615854263305664,20.700000762939453,-15.600000381469727,-0.44999998807907104,37.91676330566406,0,
 782802,-1.59326171875,0.32666015625,-0.476318359375,-266.1280517578125,-22.774391174316406,231.4329376220703,19.049999237060547,-19.350000381469727,-5.550000190734863,37.91676330566406,0,
 782812,-1.559814453125,0.5234375,-1.40869140625,-452.83538818359375,151.76829528808594,17.621952056884766,18.899999618530273,-16.799999237060547,-5.699999809265137,37.91676330566406,0,
 782822,-1.24365234375,-0.5634765625,-1.15234375,81.06707763671875,12.987805366516113,-80.30487823486328,18.600000381469727,-18.600000381469727,-4.5,37.96468734741211,0,
 782832,-0.035888671875,-1.0615234375,-0.42236328125,301.0975646972656,35.914634704589844,-33.506099700927734,19.950000762939453,-15.899999618530273,-3.1500000953674316,37.96468734741211,0,
 782843,0.275146484375,-1.220947265625,-1.844482421875,-44.42073440551758,51.310977935791016,-105.60975646972656,19.950000762939453,-15.899999618530273,-3.1500000953674316,38.06053161621094,0,
 782853,0.02734375,-0.978759765625,-1.131103515625,-28.658536911010742,-74.20732116699219,-20.85365867614746,19.950000762939453,-15.149999618530273,-3.9000000953674316,37.72507095336914,0,
 782863,0.86376953125,-0.33544921875,-1.52685546875,-35.3658561706543,35.88414764404297,51.6158561706543,19.799999237060547,-16.200000762939453,-4.5,38.108455657958984,0,
 782873,0.88525390625,-0.36083984375,-1.505859375,-32.713417053222656,45.182926177978516,-39.14634323120117,21.450000762939453,-15.899999618530273,-3.1500000953674316,38.06053161621094,0,
 782883,1.959716796875,-0.172607421875,-1.49560546875,15.640244483947754,109.81707763671875,-15.579268455505371,21.450000762939453,-15.899999618530273,-3.1500000953674316,37.96468734741211,0,
 782893,2.55224609375,0.0205078125,-1.75830078125,-70.51829528808594,149.0548858642578,-72.80487823486328,20.399999618530273,-17.549999237060547,-1.2000000476837158,38.06053161621094,0,
 782903,0.828369140625,0.26953125,-1.593017578125,-114.14634704589844,52.713417053222656,-52.34756088256836,18.899999618530273,-18.299999237060547,-2.4000000953674316,37.91676330566406,0,
 782913,0.108642578125,-0.10205078125,-1.503662109375,53.2621955871582,126.82926940917969,-39.45122146606445,18.899999618530273,-20.25,-1.9500000476837158,37.96468734741211,0,
 782923,0.946044921875,-0.52783203125,-1.032958984375,-47.34756088256836,52.5,-46.067073822021484,18.899999618530273,-17.549999237060547,1.2000000476837158,37.96468734741211,0,
 782933,0.117919921875,-0.022216796875,-0.936767578125,8.231707572937012,-5.030488014221191,-41.67683029174805,18.899999618530273,-17.549999237060547,1.2000000476837158,37.96468734741211,0,
 782943,-0.86083984375,-0.11083984375,-0.978271484375,147.22561645507812,-34.84756088256836,-60.213417053222656,21.149999618530273,-16.350000381469727,1.9500000476837158,37.91676330566406,0,
 782953,-5.56689453125,-1.1376953125,-0.735107421875,-315.3963623046875,-261.95123291015625,-80.09146881103516,21.75,-15.300000190734863,1.5,37.72507095336914,0,
 782963,-6.665771484375,-1.882080078125,8.0,-999.0244140625,-492.83538818359375,-95.18292999267578,20.399999618530273,-12.75,0.44999998807907104,38.108455657958984,0,
 782973,-8.0,3.3388671875,8.0,-795.3963623046875,214.2073211669922,-562.1036987304688,20.399999618530273,-12.75,0.44999998807907104,37.96468734741211,0,
 782993,1.195556640625,-3.704833984375,0.7783203125,391.95123291015625,128.53659057617188,322.8658752441406,11.550000190734863,-6.0,0.44999998807907104,37.72507095336914,0,
 783003,1.351806640625,-3.50390625,-1.62548828125,-999.0244140625,2.0426828861236572,269.268310546875,10.649999618530273,-4.349999904632568,1.5,37.96468734741211,0,
 783013,0.48876953125,1.060302734375,-1.933837890625,-672.042724609375,49.54268264770508,81.09756469726562,16.350000381469727,-12.600000381469727,5.25,37.91676330566406,0,
 783023,-0.325927734375,3.613525390625,-1.1259765625,678.4451293945312,-295.9756164550781,128.8719482421875,16.350000381469727,-12.600000381469727,5.25,38.06053161621094,0,
 783033,-1.346923828125,1.517822265625,-0.06982421875,998.993896484375,55.3658561706543,1.1890244483947754,21.149999618530273,-20.25,6.900000095367432,38.108455657958984,0,
 783043,-1.20654296875,-3.8408203125,2.226318359375,-327.5304870605469,648.8414916992188,-287.5914611816406,19.799999237060547,-15.75,3.75,37.72507095336914,0,
 783053,2.23828125,-2.149169921875,-4.814697265625,-996.6463623046875,-148.506103515625,-28.323171615600586,17.850000381469727,-15.0,6.75,37.72507095336914,0,
 783063,0.272705078125,0.7890625,0.3271484375,-352.5304870605469,-228.84146118164062,47.59146499633789,17.850000381469727,-15.0,6.75,38.06053161621094,0,
 783073,-1.813232421875,2.37548828125,-1.30419921875,313.3841552734375,-58.2621955871582,15.396342277526855,18.899999618530273,-22.350000381469727,8.699999809265137,37.96468734741211,0,
 783083,-0.73583984375,0.302001953125,0.263671875,429.9695129394531,7.77439022064209,-0.9146341681480408,19.049999237060547,-19.799999237060547,7.5,38.06053161621094,0,
 783113,-0.933349609375,0.17138671875,-0.604736328125,-97.256103515625,-43.84146499633789,-17.987804412841797,18.299999237060547,-15.0,4.5,37.868839263916016,0,
 783123,-0.7021484375,-0.0703125,-0.619384765625,62.469512939453125,-12.682927131652832,-22.439023971557617,17.850000381469727,-17.700000762939453,6.0,37.96468734741211,0,
 783133,-0.783203125,-0.468505859375,-0.7216796875,148.99391174316406,-5.152439117431641,-30.85365867614746,19.649999618530273,-15.149999618530273,4.949999809265137,38.15637969970703,0,
 783143,-0.57421875,-0.586181640625,-0.58837890625,87.98780822753906,-2.0426828861236572,-30.09146499633789,20.100000381469727,-14.550000190734863,4.5,37.72507095336914,0,
 783153,-0.879638671875,-0.507568359375,-0.396728515625,-0.6402438879013062,-22.7439022064209,-2.682926893234253,20.100000381469727,-14.550000190734863,4.5,37.91676330566406,0,
 783163,-0.72607421875,-0.3740234375,-0.607421875,-68.10975646972656,30.0,13.170731544494629,19.350000381469727,-14.25,4.5,37.91676330566406,0,
 783173,-0.655517578125,-0.147216796875,-0.835693359375,-92.59146881103516,38.17073440551758,21.371952056884766,20.399999618530273,-14.399999618530273,1.9500000476837158,37.72507095336914,0,
 783183,-0.67431640625,-0.037353515625,-0.654296875,-64.51219940185547,1.737804889678955,3.932926893234253,19.950000762939453,-16.799999237060547,0.8999999761581421,38.108455657958984,0,
 783203,-0.6533203125,-0.28564453125,-0.766357421875,38.17073440551758,3.9634146690368652,1.25,17.549999237060547,-15.75,3.299999952316284,37.91676330566406,0,
 783213,-0.624267578125,-0.19091796875,-0.8046875,-1.0365853309631348,8.506097793579102,1.9817073345184326,18.600000381469727,-16.5,6.300000190734863,38.108455657958984,0,
 783223,-0.60986328125,-0.1240234375,-0.87158203125,-1.2804877758026123,2.7134146690368652,2.804877996444702,20.700000762939453,-17.549999237060547,3.450000047683716,37.96468734741211,0,
 783233,-0.604248046875,-0.1962890625,-0.880126953125,13.658536911010742,-3.2012195587158203,1.8597561120986938,19.200000762939453,-15.149999618530273,4.650000095367432,37.96468734741211,0,
 783253,-0.64599609375,-0.1865234375,-0.89013671875,6.310975551605225,-18.38414764404297,-1.4634146690368652,20.399999618530273,-15.149999618530273,5.699999809265137,37.96468734741211,0,
 783263,-0.643310546875,-0.240478515625,-0.892822265625,7.1646342277526855,-24.63414764404297,-1.920731782913208,19.049999237060547,-16.5,4.050000190734863,37.96468734741211,0,
 783273,-0.6396484375,-0.17919921875,-0.892578125,-3.4146342277526855,-36.310977935791016,-1.8597561120986938,19.350000381469727,-16.200000762939453,3.299999952316284,38.06053161621094,0,
 783283,-0.64404296875,-0.257568359375,-0.84814453125,16.219512939453125,-47.682926177978516,-1.3414634466171265,19.350000381469727,-15.75,5.550000190734863,37.96468734741211,0,
 783313,-1.1982421875,-0.251708984375,-0.412841796875,8.109756469726562,-64.57317352294922,-17.83536720275879,19.799999237060547,-16.950000762939453,3.299999952316284,38.06053161621094,0,
 783323,-1.6044921875,-0.18408203125,0.212890625,-29.14634132385254,-62.13414764404297,-31.40243911743164,21.0,-16.950000762939453,2.25,37.91676330566406,0,
 783333,-2.1884765625,0.107666015625,0.3447265625,-82.3780517578125,-84.17683410644531,-47.65243911743164,21.0,-16.950000762939453,2.25,37.96468734741211,0,
 783343,-3.21484375,0.113037109375,0.204833984375,-127.34756469726562,-18.475610733032227,-82.6524429321289,21.0,-15.300000190734863,2.25,37.72507095336914,0,
 783353,-2.05615234375,-0.791259765625,-0.00732421875,100.09146881103516,143.41464233398438,-143.2926788330078,18.600000381469727,-14.25,3.75,37.96468734741211,0,
 783363,-1.28173828125,-0.89697265625,-0.339111328125,56.6158561706543,171.52439880371094,-85.1524429321289,18.899999618530273,-11.550000190734863,1.9500000476837158,38.108455657958984,0,
 783373,-1.656005859375,-0.359619140625,-0.5166015625,-175.27439880371094,41.310977935791016,14.146341323852539,17.700000762939453,-11.550000190734863,3.1500000953674316,37.868839263916016,0,
 783383,-1.65234375,0.474853515625,-0.08642578125,-295.243896484375,145.91464233398438,121.73780822753906,17.700000762939453,-11.550000190734863,3.1500000953674316,38.108455657958984,0,
 783393,-1.275634765625,0.914306640625,-0.126220703125,-137.10366821289062,180.73170471191406,95.82317352294922,16.200000762939453,-15.149999618530273,6.150000095367432,37.77299499511719,0,
 783403,-0.555419921875,0.821533203125,-0.650146484375,77.98780822753906,83.26219940185547,130.5792694091797,15.600000381469727,-16.200000762939453,8.25,37.96468734741211,0,
 783523,3.716552734375,0.33984375,-7.999755859375,292.01220703125,-317.6219482421875,-60.274391174316406,18.600000381469727,-13.800000190734863,0.75,38.06053161621094,0,
 783533,-1.871826171875,-3.111083984375,3.02197265625,-33.32316970825195,-163.56707763671875,73.78048706054688,17.549999237060547,-15.300000190734863,1.7999999523162842,37.96468734741211,0,
 783543,-1.510009765625,-0.84375,-2.46728515625,-231.1280517578125,125.54878234863281,58.658538818359375,17.549999237060547,-13.800000190734863,-0.30000001192092896,38.108455657958984,0,
 783553,-0.541259765625,0.249755859375,-1.6796875,-167.43902587890625,-115.70122528076172,69.96951293945312,17.549999237060547,-13.800000190734863,-0.30000001192092896,38.06053161621094,0,
 783563,-1.30126953125,0.42919921875,-0.52978515625,-18.04878044128418,-160.4573211669922,153.10975646972656,19.649999618530273,-18.299999237060547,1.649999976158142,38.15637969970703,0,
 783573,-1.385986328125,0.203125,-0.68896484375,43.10975646972656,-112.256103515625,71.92073059082031,21.75,-18.899999618530273,1.5,37.91676330566406,0,
 783583,-1.59765625,-1.57080078125,-0.626708984375,273.26220703125,-77.19512176513672,-26.371952056884766,21.450000762939453,-17.549999237060547,-0.8999999761581421,37.91676330566406,0,
 783593,-0.4296875,-3.19140625,-1.475341796875,401.9817199707031,-88.93292999267578,-98.14024353027344,21.299999237060547,-16.5,-1.5,37.77299499511719,0,
 783603,1.54248046875,-1.417724609375,-1.59619140625,-160.85366821289062,-32.92683029174805,-94.23780822753906,21.299999237060547,-16.5,-1.5,37.91676330566406,0,
 783613,0.92919921875,0.5390625,-2.139892578125,-358.5365905761719,-14.817073822021484,-53.29268264770508,20.700000762939453,-17.100000381469727,-3.1500000953674316,38.06053161621094,0,
 783623,1.936279296875,0.643798828125,-2.151123046875,-162.9268341064453,55.24390411376953,-29.60365867614746,19.799999237060547,-17.399999618530273,-2.549999952316284,38.15637969970703,0,
 783634,3.444091796875,0.558837890625,-2.226318359375,-75.06097412109375,192.74391174316406,19.207317352294922,19.950000762939453,-19.200000762939453,-0.8999999761581421,37.91676330566406,0,
 783644,2.072998046875,0.969482421875,-2.060546875,-134.02439880371094,176.09756469726562,-2.9573171138763428,19.950000762939453,-19.200000762939453,-0.8999999761581421,37.868839263916016,0,
 783654,0.133056640625,0.386962890625,-1.894287109375,30.670732498168945,144.26829528808594,-3.170731782913208,18.899999618530273,-21.899999618530273,1.2000000476837158,37.91676330566406,0,
 783664,0.23095703125,-0.675048828125,-1.182373046875,153.10975646972656,250.76220703125,-5.5182929039001465,17.549999237060547,-20.850000381469727,2.25,37.91676330566406,0,
 783674,-0.128173828125,-0.491943359375,-0.7255859375,34.725608825683594,184.66464233398438,-7.134146690368652,19.649999618530273,-18.0,3.1500000953674316,37.96468734741211,0,
 783684,-5.675537109375,-4.693115234375,8.0,-111.006103515625,1.8597561120986938,-24.542682647705078,20.549999237060547,-17.700000762939453,4.800000190734863,37.96468734741211,0,
 783694,-8.0,7.270263671875,8.0,-999.0244140625,-739.8475952148438,-88.68902587890625,20.549999237060547,-17.700000762939453,4.800000190734863,37.91676330566406,0,
 783724,0.126708984375,-2.1416015625,-2.29150390625,-510.8841552734375,396.8597717285156,220.39634704589844,10.800000190734863,-0.44999998807907104,-3.450000047683716,37.96468734741211,0,
 783734,-1.532958984375,2.214599609375,-1.414794921875,-999.0244140625,-125.1524429321289,323.07928466796875,10.800000190734863,-0.44999998807907104,-3.450000047683716,37.77299499511719,0,
 783744,0.8720703125,2.24609375,-0.64404296875,-255.64024353027344,183.26219177246094,388.993896484375,18.299999237060547,-23.25,7.5,37.96468734741211,0,
 783754,1.16552734375,-0.311767578125,0.0625,998.993896484375,50.3658561706543,73.01829528808594,19.200000762939453,-23.100000381469727,7.650000095367432,38.108455657958984,0,
 783764,-1.2294921875,-4.57080078125,-0.73583984375,401.1280517578125,111.46341705322266,-126.70732116699219,21.299999237060547,-18.899999618530273,5.25,38.06053161621094,0,
 783774,0.62109375,-1.100830078125,-1.799560546875,-500.57928466796875,303.2317199707031,-149.39024353027344,17.100000381469727,-16.950000762939453,6.0,38.06053161621094,0,
 783784,-0.321533203125,1.3564453125,-0.62548828125,-914.268310546875,-38.14024353027344,53.29268264770508,17.100000381469727,-16.950000762939453,6.0,37.77299499511719,0,
 783804,-0.61865234375,0.167724609375,-0.81298828125,318.32318115234375,1.8292683362960815,-53.932926177978516,17.850000381469727,-20.850000381469727,10.5,37.868839263916016,0,
 783814,0.098388671875,-0.357666015625,-1.228759765625,423.93292236328125,-54.603660583496094,-4.695122241973877,17.100000381469727,-18.600000381469727,9.75,37.72507095336914,0,
 783824,-0.578857421875,-0.839599609375,-0.67822265625,222.86585998535156,-126.21951293945312,-36.006099700927734,17.100000381469727,-18.600000381469727,9.75,37.581302642822266,0,
 783834,-0.625732421875,-0.3955078125,-0.73681640625,-35.94512176513672,-91.85975646972656,-19.024391174316406,19.350000381469727,-16.200000762939453,3.0,37.77299499511719,0,
 783844,-0.582763671875,0.18603515625,-0.826904296875,38.90243911743164,-48.810977935791016,-12.896341323852539,18.899999618530273,-16.799999237060547,8.399999618530273,37.91676330566406,0,
 783854,-0.686279296875,-0.173095703125,-0.703369140625,32.103660583496094,-36.463417053222656,-13.658536911010742,17.850000381469727,-17.399999618530273,7.050000190734863,37.96468734741211,0,
 783864,-0.7177734375,-0.253173828125,-0.8134765625,19.115854263305664,-42.22561264038086,-2.6219513416290283,18.450000762939453,-17.549999237060547,6.449999809265137,37.96468734741211,0,
 783874,-0.721435546875,-0.232666015625,-0.7099609375,-2.7134146690368652,-27.43902587890625,-3.567073345184326,18.450000762939453,-17.549999237060547,6.449999809265137,37.62922668457031,0,
 783884,-0.748291015625,-0.271728515625,-0.657470703125,-47.43902587890625,-16.64634132385254,1.2195122241973877,20.700000762939453,-18.75,8.399999618530273,38.25222396850586,0,
 783894,-0.70068359375,-0.12109375,-0.692138671875,-71.5243911743164,-22.926830291748047,1.5548781156539917,19.950000762939453,-19.200000762939453,6.900000095367432,37.96468734741211,0,
 783904,-0.80126953125,-0.0048828125,-0.6689453125,-46.92073440551758,-18.780488967895508,-15.060976028442383,20.399999618530273,-18.299999237060547,6.449999809265137,38.06053161621094,0,
 783914,-0.631591796875,0.0380859375,-0.70458984375,12.560976028442383,-33.32316970825195,-21.859756469726562,20.399999618530273,-18.299999237060547,6.449999809265137,38.25222396850586,0,
 783924,-0.746826171875,-0.115966796875,-0.736572265625,29.05487823486328,-38.567073822021484,-21.707317352294922,20.399999618530273,-19.200000762939453,6.449999809265137,37.868839263916016,0,
 783934,-0.73486328125,-0.23583984375,-0.71044921875,13.932927131652832,-34.603660583496094,-18.38414764404297,20.100000381469727,-14.550000190734863,3.0,38.06053161621094,0,
 783944,-0.775390625,-0.19921875,-0.73193359375,5.4268293380737305,-23.38414764404297,-13.170731544494629,21.299999237060547,-18.149999618530273,5.550000190734863,37.96468734741211,0,
 783954,-0.700927734375,-0.1796875,-0.7314453125,6.463414669036865,-22.2560977935791,-11.37195110321045,20.399999618530273,-16.350000381469727,5.699999809265137,38.06053161621094,0,
 783964,-0.730224609375,-0.221435546875,-0.695068359375,1.7987805604934692,-16.09756088256836,-8.536585807800293,20.399999618530273,-16.350000381469727,5.699999809265137,37.96468734741211,0,
 783974,-0.736083984375,-0.232421875,-0.68701171875,-5.4268293380737305,-13.658536911010742,-7.682927131652832,20.399999618530273,-18.0,4.949999809265137,37.96468734741211,0,
 783984,-0.759521484375,-0.23876953125,-0.723876953125,-15.030488014221191,-15.670732498168945,-3.5975611209869385,21.149999618530273,-17.100000381469727,6.150000095367432,37.96468734741211,0,
 783994,-0.7939453125,-0.22509765625,-0.674560546875,-19.78658676147461,-15.609756469726562,-3.445122003555298,21.149999618530273,-17.549999237060547,4.650000095367432,37.77299499511719,0,
 784004,-1.05810546875,-0.1611328125,-0.42236328125,-20.091463088989258,-10.42682933807373,-10.182927131652832,21.149999618530273,-17.549999237060547,4.650000095367432,38.25222396850586,0,
 784014,-1.2861328125,-0.011962890625,-0.396484375,-19.725610733032227,-12.256097793579102,-12.896341323852539,20.100000381469727,-16.5,5.25,38.108455657958984,0,
 784024,-1.5703125,0.303955078125,-0.20751953125,-37.530487060546875,-19.420732498168945,-14.634146690368652,19.950000762939453,-18.0,6.150000095367432,37.72507095336914,0,
 784034,-1.861328125,0.47509765625,0.0673828125,-49.085365295410156,-10.0,-0.12195122241973877,20.399999618530273,-15.899999618530273,4.949999809265137,38.06053161621094,0,
 784044,-3.327392578125,-0.0595703125,-0.550048828125,140.73170471191406,30.426830291748047,-18.170732498168945,19.049999237060547,-18.149999618530273,3.299999952316284,37.96468734741211,0,
 784054,-2.13720703125,-1.3447265625,0.3974609375,267.19512939453125,209.756103515625,-55.64024353027344,19.049999237060547,-18.149999618530273,3.299999952316284,37.77299499511719,0,
 784064,-1.245361328125,-0.960205078125,-0.625732421875,58.2621955871582,298.56707763671875,0.7317073345184326,18.600000381469727,-15.0,4.050000190734863,38.06053161621094,0,
 784074,-1.3134765625,-0.46044921875,-0.27685546875,-151.52439880371094,144.69512939453125,64.05487823486328,16.200000762939453,-12.449999809265137,6.150000095367432,37.72507095336914,0,
 784084,-0.990478515625,0.38818359375,0.148681640625,-203.23170471191406,120.03048706054688,184.756103515625,16.5,-13.649999618530273,6.449999809265137,37.96468734741211,0,
 784094,-0.842529296875,0.9814453125,0.00732421875,-222.10366821289062,158.29269409179688,167.31707763671875,16.5,-13.649999618530273,6.449999809265137,37.96468734741211,0,
 784104,-0.260498046875,0.6748046875,-0.1611328125,-68.29268646240234,159.51219177246094,97.07317352294922,13.800000190734863,-16.350000381469727,9.449999809265137,38.15637969970703,0,
 784114,0.03466796875,0.0341796875,-0.330322265625,112.43902587890625,75.03048706054688,91.03659057617188,13.050000190734863,-18.75,8.399999618530273,37.96468734741211,0,
 784124,-0.047607421875,-0.172119140625,-0.18359375,88.32317352294922,-24.05487823486328,92.34756469726562,13.5,-17.549999237060547,9.899999618530273,38.06053161621094,0,
 784134,-0.26123046875,0.004638671875,-0.31201171875,-5.487804889678955,-50.853660583496094,79.66463470458984,12.899999618530273,-17.700000762939453,9.75,37.91676330566406,0,
 784144,-0.210205078125,-0.045166015625,-0.451416015625,18.658536911010742,-61.6158561706543,65.9756088256836,12.899999618530273,-17.700000762939453,9.75,38.108455657958984,0,
 784154,0.236083984375,-0.24365234375,-0.114013671875,55.54878234863281,-106.1280517578125,42.560977935791016,14.399999618530273,-18.149999618530273,9.300000190734863,37.96468734741211,0,
 784164,1.038330078125,-0.230712890625,0.29052734375,60.7621955871582,-166.6768341064453,18.04878044128418,15.149999618530273,-20.100000381469727,7.5,37.91676330566406,0,
 784174,0.80712890625,-0.118408203125,0.167236328125,8.59756088256836,-257.6219482421875,11.707317352294922,16.5,-20.700000762939453,6.150000095367432,37.77299499511719,0,
 784184,0.7275390625,-0.1923828125,-0.201904296875,74.39024353027344,-374.9085388183594,17.13414764404297,16.5,-20.700000762939453,6.150000095367432,37.91676330566406,0,
 784194,0.02734375,-0.118896484375,-0.336669921875,71.5243911743164,-416.70733642578125,-15.609756469726562,19.200000762939453,-20.25,4.199999809265137,38.06053161621094,0,
 784204,-8.0,0.7626953125,-7.999755859375,-11.615854263305664,-424.7865905761719,-117.98780822753906,19.950000762939453,-19.5,0.15000000596046448,38.06053161621094,0,
 784234,-1.008544921875,-2.2119140625,1.153076171875,376.1585388183594,-304.8475646972656,-13.292683601379395,21.450000762939453,-18.75,1.649999976158142,37.96468734741211,0,
 784244,-2.87841796875,-0.678955078125,-0.415771484375,-206.21951293945312,-245.5792694091797,-39.817073822021484,20.399999618530273,-18.299999237060547,-3.9000000953674316,37.77299499511719,0,
 784254,-1.458740234375,0.583984375,-0.7099609375,-357.1341552734375,-43.29268264770508,77.07317352294922,20.100000381469727,-20.100000381469727,-2.549999952316284,37.91676330566406,0,
 784264,-0.30859375,0.64013671875,-1.7890625,-122.74390411376953,47.164634704589844,77.19512176513672,20.100000381469727,-20.100000381469727,-2.549999952316284,38.06053161621094,0,
 784274,-0.66357421875,-0.44775390625,-0.78173828125,114.84756469726562,-129.756103515625,1.0670732259750366,20.100000381469727,-20.100000381469727,-2.549999952316284,38.06053161621094,0,
 784284,-1.07470703125,-0.316162109375,-0.948486328125,64.81707763671875,-197.98780822753906,-12.37804889678955,23.549999237060547,-18.149999618530273,-3.75,37.96468734741211,0,
 784294,-0.08056640625,-0.64990234375,-1.218505859375,350.2743835449219,-26.03658676147461,-64.26829528808594,22.049999237060547,-16.200000762939453,-4.650000095367432,38.06053161621094,0,
 784304,-1.169677734375,-2.434326171875,-2.466796875,-82.07317352294922,22.560976028442383,-148.81097412109375,22.200000762939453,-17.549999237060547,-5.699999809265137,37.91676330566406,0,
 784314,1.074462890625,-1.910888671875,-0.9423828125,-285.7317199707031,101.15853881835938,-70.76219940185547,22.200000762939453,-17.549999237060547,-5.699999809265137,37.581302642822266,0,
 784324,1.341552734375,0.3603515625,-3.056396484375,-8.109756469726562,131.43292236328125,-173.81097412109375,22.200000762939453,-17.549999237060547,-5.699999809265137,37.96468734741211,0,
 784334,1.37890625,-0.77783203125,-2.30078125,-179.2987823486328,241.64634704589844,-172.8353729248047,20.549999237060547,-19.950000762939453,-3.1500000953674316,37.91676330566406,0,
 784344,1.543212890625,-0.090087890625,-1.744140625,-368.9634094238281,303.3841552734375,-69.32926940917969,18.899999618530273,-17.549999237060547,-0.15000000596046448,38.06053161621094,0,
 784354,1.992919921875,1.2802734375,-1.694091796875,-329.4817199707031,197.86585998535156,8.719511985778809,18.899999618530273,-17.549999237060547,-0.15000000596046448,38.15637969970703,0,
 784364,0.40283203125,1.922119140625,-1.20751953125,175.2134246826172,167.256103515625,-2.682926893234253,18.899999618530273,-17.549999237060547,-0.15000000596046448,37.77299499511719,0,
 784374,-1.397216796875,0.737060546875,-1.32861328125,433.6280517578125,231.7987823486328,-11.615854263305664,18.0,-21.450000762939453,1.649999976158142,38.06053161621094,0,
 784384,-1.003662109375,-1.072998046875,-0.25830078125,342.4695129394531,162.9573211669922,6.067073345184326,16.799999237060547,-15.0,1.7999999523162842,38.15637969970703,0,
 784394,-4.2734375,-5.823974609375,8.0,-999.0244140625,-849.9695434570312,-110.06098175048828,20.700000762939453,-19.950000762939453,9.149999618530273,37.77299499511719,0,
 784404,-8.0,5.478271484375,8.0,-983.9329223632812,-819.6646728515625,-998.993896484375,20.700000762939453,-19.950000762939453,9.149999618530273,37.868839263916016,0,
 784414,-7.456787109375,1.468017578125,5.782470703125,998.993896484375,999.0244140625,-75.42683410644531,20.700000762939453,-19.950000762939453,9.149999618530273,37.91676330566406,0,
 784424,5.658935546875,-7.999755859375,1.997314453125,-247.9573211669922,465.1524353027344,391.493896484375,10.649999618530273,-1.0499999523162842,-0.75,38.06053161621094,0,
 784545,-0.831787109375,-0.145263671875,-0.648193359375,-131.09756469726562,-66.06707763671875,13.59756088256836,20.100000381469727,-15.75,4.800000190734863,37.91676330566406,0,
 784555,-0.776123046875,0.275634765625,-0.638671875,-87.40853881835938,-8.262195587158203,34.725608825683594,18.0,-16.350000381469727,6.900000095367432,37.91676330566406,0,
 784575,-0.730712890625,-0.234375,-0.742431640625,52.164634704589844,41.18902587890625,-30.79268455505371,19.200000762939453,-17.100000381469727,7.199999809265137,38.25222396850586,0,
 784585,-0.677734375,-0.30078125,-0.828125,35.79268264770508,39.84756088256836,-16.43292808532715,19.200000762939453,-17.100000381469727,7.199999809265137,37.96468734741211,0,
 784595,-0.5322265625,-0.459716796875,-0.922607421875,27.469512939453125,28.5060977935791,-7.469512462615967,19.350000381469727,-17.700000762939453,6.75,38.108455657958984,0,
 784605,-0.589111328125,-0.229736328125,-0.720458984375,-24.878049850463867,-12.286585807800293,12.957317352294922,19.049999237060547,-18.899999618530273,7.5,38.06053161621094,0,
 784615,-0.750244140625,-0.096435546875,-0.675048828125,-73.68902587890625,-24.481708526611328,13.689024925231934,19.649999618530273,-17.549999237060547,7.650000095367432,37.72507095336914,0,
 784625,-0.666748046875,0.138671875,-0.817626953125,-42.89634323120117,5.9146342277526855,18.262195587158203,19.649999618530273,-17.549999237060547,7.650000095367432,37.96468734741211,0,
 784635,-0.576416015625,-0.108642578125,-0.871337890625,20.457317352294922,3.079268455505371,-17.34756088256836,19.649999618530273,-18.0,7.650000095367432,37.91676330566406,0,
 784645,-0.677734375,-0.265869140625,-0.881103515625,51.18902587890625,-26.03658676147461,-14.542683601379395,17.25,-19.200000762939453,4.949999809265137,37.96468734741211,0,
 784655,-0.74072265625,-0.38623046875,-0.742431640625,35.24390411376953,-29.878049850463867,-11.79878044128418,21.0,-15.300000190734863,7.5,38.06053161621094,0,
 784665,-0.713623046875,-0.270263671875,-0.797119140625,-2.9268293380737305,-14.908536911010742,-1.2195122241973877,17.850000381469727,-16.5,6.75,37.77299499511719,0,
 784675,-0.88232421875,-0.260009765625,-0.716064453125,-2.7439024448394775,-21.25,0.7317073345184326,17.850000381469727,-16.5,6.75,37.96468734741211,0,
 784685,-1.260498046875,-0.165771484375,-0.564453125,-9.085366249084473,-24.725610733032227,-5.030488014221191,18.899999618530273,-16.799999237060547,6.900000095367432,37.96468734741211,0,
 784695,-1.634033203125,0.022216796875,-0.133544921875,-19.939023971557617,-39.42073440551758,-14.054878234863281,18.899999618530273,-14.850000381469727,6.150000095367432,37.96468734741211,0,
 784705,-2.067626953125,0.376953125,0.181396484375,-32.560977935791016,-27.83536720275879,-29.84756088256836,19.350000381469727,-16.200000762939453,5.550000190734863,37.96468734741211,0,
 784715,-2.213134765625,0.62109375,0.124755859375,-46.463417053222656,-6.920732021331787,-42.713417053222656,19.350000381469727,-16.200000762939453,5.550000190734863,37.72507095336914,0,
 784725,-3.230224609375,-0.581298828125,-0.319580078125,265.8841552734375,84.54268646240234,-66.09756469726562,16.950000762939453,-12.0,4.650000095367432,37.91676330566406,0,
 784735,-1.56640625,-2.05126953125,0.177978515625,397.1646423339844,274.0243835449219,-102.68292999267578,14.100000381469727,-9.0,3.75,38.06053161621094,0,
 784745,-1.126708984375,-1.534423828125,-0.8447265625,-374.7865905761719,20.060976028442383,102.6524429321289,16.350000381469727,-11.850000381469727,4.5,38.06053161621094,0,
 784755,-1.111328125,-0.028564453125,-0.178466796875,-415.70123291015625,19.14634132385254,219.23780822753906,13.800000190734863,-14.850000381469727,6.449999809265137,37.77299499511719,0,
 784765,-1.116943359375,1.096435546875,0.362548828125,-261.31097412109375,117.6524429321289,179.69512939453125,13.800000190734863,-14.850000381469727,6.449999809265137,38.108455657958984,0,
 784775,-0.74072265625,1.5556640625,0.104248046875,52.256099700927734,135.51829528808594,97.19512176513672,12.75,-16.799999237060547,9.899999618530273,38.108455657958984,0,
 784785,-0.28466796875,0.6064453125,-0.33447265625,192.1341552734375,27.225610733032227,98.506103515625,13.050000190734863,-17.549999237060547,9.449999809265137,37.91676330566406,0,
 784795,-0.12109375,-0.22314453125,-0.313720703125,58.871952056884766,-61.09756088256836,131.03659057617188,12.0,-15.600000381469727,9.149999618530273,38.06053161621094,0,
 784805,0.183349609375,-0.30615234375,0.2099609375,-96.5243911743164,-80.7317123413086,124.756103515625,12.0,-15.600000381469727,9.149999618530273,37.96468734741211,0,
 784815,0.265380859375,0.2392578125,0.047119140625,-37.530487060546875,-145.36585998535156,93.44512176513672,14.25,-18.75,7.199999809265137,37.91676330566406,0,
 784825,0.4814453125,0.248291015625,0.051025390625,122.46951293945312,-252.77439880371094,59.817073822021484,15.0,-20.700000762939453,6.449999809265137,37.96468734741211,0,
 784835,0.27783203125,-0.085693359375,-0.041748046875,133.71951293945312,-327.3780517578125,0.3048780560493469,17.549999237060547,-21.299999237060547,6.75,38.06053161621094,0,
 784855,-0.101806640625,-0.37109375,0.004150390625,63.29268264770508,-356.2195129394531,-58.68902587890625,18.450000762939453,-20.700000762939453,0.8999999761581421,37.91676330566406,0,
 784865,0.365478515625,-0.49365234375,0.283935546875,-63.20122146606445,-355.2743835449219,-41.95122146606445,21.0,-20.100000381469727,-2.25,37.91676330566406,0,
 784875,-8.0,0.939697265625,-7.999755859375,102.92683410644531,350.4268493652344,-95.76219940185547,21.75,-18.600000381469727,-1.7999999523162842,37.96468734741211,0,
 784885,1.098876953125,-1.720458984375,2.67724609375,47.103660583496094,384.0244140625,137.43902587890625,18.600000381469727,-16.950000762939453,0.30000001192092896,37.91676330566406,0,
 784895,5.9091796875,-1.115478515625,-7.999755859375,213.78048706054688,-225.97561645507812,91.31097412109375,18.600000381469727,-16.950000762939453,0.30000001192092896,37.96468734741211,0,
 784905,0.001708984375,-2.053466796875,1.191162109375,-202.98780822753906,-186.006103515625,31.89024543762207,18.600000381469727,-19.350000381469727,-2.25,37.72507095336914,0,
 784915,-1.454345703125,0.0478515625,-0.49267578125,-158.32318115234375,23.59756088256836,36.03658676147461,20.700000762939453,-17.549999237060547,-2.4000000953674316,37.96468734741211,0,
 784925,-0.296630859375,0.580322265625,-1.764404296875,-199.1768341064453,-12.77439022064209,26.341463088989258,19.200000762939453,-19.5,-3.1500000953674316,38.25222396850586,0,
 784935,-0.483642578125,0.42333984375,-0.898681640625,-47.22561264038086,-169.51219177246094,41.89024353027344,19.200000762939453,-19.5,-3.1500000953674316,38.108455657958984,0,
 784945,-1.635986328125,-0.116455078125,-0.95458984375,85.0,-198.9634246826172,17.926830291748047,21.450000762939453,-17.549999237060547,-2.4000000953674316,38.06053161621094,0,
 784955,-1.00537109375,-0.313720703125,-0.626953125,115.45732116699219,-163.9634246826172,41.98170852661133,23.25,-17.700000762939453,-7.5,37.77299499511719,0,
 784965,0.0703125,-0.697998046875,-0.83984375,137.19512939453125,-93.41463470458984,46.40243911743164,23.399999618530273,-17.100000381469727,-6.150000095367432,38.108455657958984,0,
 784975,0.076904296875,-1.251220703125,-2.437744140625,165.48780822753906,20.70121955871582,20.792682647705078,23.549999237060547,-18.600000381469727,-7.050000190734863,38.108455657958984,0,
 784985,0.4404296875,-1.679443359375,-1.87744140625,85.94512176513672,46.371952056884766,-103.17073059082031,23.549999237060547,-18.600000381469727,-7.050000190734863,37.96468734741211,0,
 784995,1.534912109375,-0.4462890625,-2.009033203125,-157.6829376220703,95.79268646240234,-17.530488967895508,24.0,-21.75,-4.800000190734863,38.06053161621094,0,
 785005,1.388427734375,-1.45703125,-2.83056640625,66.31097412109375,207.10366821289062,-133.71951293945312,24.149999618530273,-19.950000762939453,-4.650000095367432,37.91676330566406,0,
 785015,1.281494140625,-0.864501953125,-1.07177734375,-152.43902587890625,195.64024353027344,-208.6280517578125,19.799999237060547,-21.299999237060547,-3.0,37.91676330566406,0,
 785025,1.28271484375,0.6328125,-1.661865234375,-367.56097412109375,289.268310546875,-69.63414764404297,19.799999237060547,-21.299999237060547,-3.0,38.06053161621094,0,
 785035,0.427978515625,1.24951171875,-1.227783203125,-361.58538818359375,190.91464233398438,-36.006099700927734,21.299999237060547,-20.850000381469727,2.549999952316284,37.91676330566406,0,
 785045,-1.041748046875,0.627197265625,-1.36328125,3.5975611209869385,149.2073211669922,-59.817073822021484,21.299999237060547,-20.549999237060547,3.75,38.108455657958984,0,
 785055,-0.90185546875,-0.794921875,-0.75,328.5975646972656,201.64634704589844,-69.0243911743164,21.450000762939453,-18.299999237060547,0.8999999761581421,37.72507095336914,0,
 785065,-0.778564453125,-1.1201171875,-0.096435546875,269.8780517578125,184.93902587890625,-70.9756088256836,19.950000762939453,-16.350000381469727,4.650000095367432,38.108455657958984,0,
 785075,-5.837646484375,-1.674560546875,4.339111328125,-36.98170852661133,45.39634323120117,-131.8292694091797,19.950000762939453,-16.350000381469727,4.650000095367432,38.06053161621094,0,
 785085,-6.28857421875,-0.44091796875,8.0,-999.0244140625,-998.993896484375,-375.6097717285156,22.200000762939453,-15.600000381469727,6.449999809265137,38.15637969970703,0,
 785095,-8.0,8.0,-7.999755859375,-999.0244140625,-837.8963623046875,-947.28662109375,19.649999618530273,-15.149999618530273,2.700000047683716,37.96468734741211,0,
 785105,1.72705078125,-6.612060546875,2.003662109375,998.993896484375,999.0244140625,269.756103515625,9.449999809265137,0.0,-3.299999952316284,37.72507095336914,0,
 785115,1.902587890625,-4.47509765625,0.540283203125,368.5365905761719,40.060977935791016,229.51220703125,9.449999809265137,0.0,-3.299999952316284,37.77299499511719,0,
 785125,1.382080078125,2.556396484375,-3.78466796875,-999.0244140625,-160.27439880371094,349.1768493652344,15.0,-18.299999237060547,9.449999809265137,38.108455657958984,0,
 785135,-0.430419921875,3.624755859375,1.690673828125,-750.76220703125,-45.54878234863281,224.02439880371094,21.450000762939453,-24.299999237060547,10.199999809265137,37.96468734741211,0,
 785145,-1.634765625,2.45263671875,-1.368408203125,582.2256469726562,-396.9817199707031,31.49390411376953,22.200000762939453,-21.899999618530273,7.949999809265137,37.96468734741211,0,
 785155,-1.595703125,-2.41259765625,2.91650390625,998.993896484375,-114.32926940917969,-1.5548781156539917,22.5,-16.200000762939453,0.30000001192092896,37.868839263916016,0,
 785165,-0.297119140625,-2.83935546875,-2.23193359375,217.22561645507812,632.042724609375,-269.756103515625,22.5,-16.200000762939453,0.30000001192092896,37.91676330566406,0,
 785175,1.51953125,0.04052734375,-1.504638671875,-703.506103515625,151.28048706054688,-167.6219482421875,18.899999618530273,-17.549999237060547,8.399999618530273,37.96468734741211,0,
 785185,-0.410400390625,0.674560546875,-0.041748046875,-540.2744140625,-263.75,67.68292999267578,18.899999618530273,-19.200000762939453,8.699999809265137,38.06053161621094,0,
 785195,-1.996826171875,1.13916015625,-0.627197265625,-20.365854263305664,-185.27439880371094,51.03658676147461,19.049999237060547,-19.799999237060547,7.050000190734863,38.06053161621094,0,
 785205,-0.822265625,0.15966796875,-0.57421875,293.0487976074219,-29.969512939453125,-58.20122146606445,19.049999237060547,-19.799999237060547,7.050000190734863,37.91676330566406,0,
 785215,-0.5478515625,-0.625732421875,-0.82470703125,163.53659057617188,-59.17683029174805,-19.207317352294922,19.049999237060547,-14.25,5.550000190734863,37.91676330566406,0,
 785225,-0.9111328125,-0.9931640625,-0.637939453125,-84.05487823486328,-39.1158561706543,7.530488014221191,20.100000381469727,-14.550000190734863,3.299999952316284,38.06053161621094,0,
 785236,-0.794189453125,-0.188232421875,-0.580810546875,-77.28659057617188,-6.6768293380737305,16.067073822021484,19.799999237060547,-16.200000762939453,3.75,37.96468734741211,0,
 785246,-0.89892578125,0.242919921875,-0.592529296875,33.04878234863281,21.43292808532715,-13.719512939453125,21.0,-16.200000762939453,6.0,37.91676330566406,0,
 785256,-0.80859375,-0.134521484375,-0.581787109375,44.42073440551758,48.01829528808594,-22.317073822021484,21.0,-16.200000762939453,6.0,37.868839263916016,0,
 785266,-0.66552734375,-0.299560546875,-0.71728515625,17.5,39.817073822021484,-10.396341323852539,19.799999237060547,-16.200000762939453,4.800000190734863,38.108455657958984,0,
 785276,-0.61767578125,-0.214599609375,-0.821533203125,4.207317352294922,20.94512176513672,-7.5,20.100000381469727,-16.5,6.0,37.77299499511719,0,
 785286,-0.614013671875,-0.25,-0.75830078125,4.054878234863281,13.140244483947754,0.3658536672592163,19.200000762939453,-15.899999618530273,7.199999809265137,37.96468734741211,0,
 785296,-0.546875,-0.271728515625,-0.930419921875,-14.512195587158203,-15.457317352294922,10.335366249084473,19.200000762939453,-15.899999618530273,7.199999809265137,37.77299499511719,0,
 785306,-0.58935546875,-0.10595703125,-0.848876953125,-15.884146690368652,-38.29268264770508,-3.3841464519500732,20.549999237060547,-15.300000190734863,7.050000190734863,37.96468734741211,0,
 785316,-0.7158203125,-0.08154296875,-0.751708984375,19.14634132385254,-23.35365867614746,-5.731707572937012,21.299999237060547,-17.399999618530273,5.550000190734863,37.77299499511719,0,
 785326,-0.74658203125,-0.239013671875,-0.715087890625,4.0853657722473145,-3.353658676147461,-5.609755992889404,20.700000762939453,-16.350000381469727,4.199999809265137,38.06053161621094,0,
 785336,-0.637939453125,-0.208984375,-0.83349609375,-0.060975611209869385,-18.414634704589844,-6.95121955871582,21.75,-16.200000762939453,6.0,38.06053161621094,0,
 785366,-1.08984375,-0.189697265625,-0.711669921875,-2.7134146690368652,-49.45122146606445,-22.13414764404297,19.950000762939453,-17.100000381469727,1.649999976158142,37.91676330566406,0,
 785376,-1.85400390625,0.19775390625,0.165771484375,-49.085365295410156,-50.97561264038086,-34.908538818359375,20.700000762939453,-12.75,4.650000095367432,37.91676330566406,0,
 785386,-2.05078125,0.46337890625,0.27197265625,-60.30487823486328,-18.140243530273438,-62.3780517578125,20.700000762939453,-12.75,4.650000095367432,38.06053161621094,0,
 785396,-2.569091796875,-0.0615234375,0.147216796875,61.158538818359375,70.8536605834961,-96.92073059082031,18.600000381469727,-13.050000190734863,4.800000190734863,37.96468734741211,0,
 785406,-2.251953125,-1.73193359375,-0.01171875,308.7195129394531,149.69512939453125,-155.51829528808594,16.350000381469727,-10.199999809265137,3.75,37.91676330566406,0,
 785416,-1.196533203125,-1.77001953125,0.1015625,109.96951293945312,235.03048706054688,-88.14024353027344,16.350000381469727,-7.5,1.7999999523162842,38.06053161621094,0,
 785426,-1.6220703125,-0.397216796875,-0.290283203125,-306.1280517578125,57.68292999267578,8.47560977935791,14.399999618530273,-9.449999809265137,4.800000190734863,38.108455657958984,0,
 785436,-1.4375,0.888671875,0.556396484375,-483.5365905761719,8.932927131652832,143.8719482421875,14.399999618530273,-9.449999809265137,4.800000190734863,38.108455657958984,0,
 785446,-1.3017578125,1.9921875,0.763916015625,-442.7439270019531,102.56098175048828,205.82318115234375,15.600000381469727,-16.5,8.25,37.62922668457031,0,
 785456,-0.469482421875,1.51416015625,0.187255859375,-102.46951293945312,163.99391174316406,155.03048706054688,14.699999809265137,-16.350000381469727,9.149999618530273,37.91676330566406,0,
 785576,-0.65283203125,-0.729248046875,-0.903076171875,-257.95733642578125,-65.18292999267578,2.865853786468506,18.600000381469727,-20.100000381469727,-1.5,37.91676330566406,0,
 785586,-1.724365234375,-0.00146484375,-0.59619140625,-455.7926940917969,-64.20732116699219,-29.024391174316406,20.549999237060547,-19.350000381469727,0.0,37.96468734741211,0,
 785596,-0.932373046875,0.979248046875,-0.611328125,-480.57928466796875,-178.6280517578125,28.59756088256836,21.299999237060547,-20.100000381469727,-1.5,37.96468734741211,0,
 785606,-1.570556640625,1.05810546875,-0.758056640625,0.15243902802467346,-65.51829528808594,-22.68292808532715,21.0,-19.799999237060547,-0.30000001192092896,37.91676330566406,0,
 785616,-0.966064453125,-0.2509765625,-1.01611328125,288.4146423339844,-156.89024353027344,-31.158536911010742,21.0,-19.799999237060547,-0.30000001192092896,37.96468734741211,0,
 785626,0.172607421875,-1.3212890625,-1.251953125,420.3963623046875,-140.91464233398438,37.19512176513672,19.950000762939453,-15.899999618530273,-6.150000095367432,38.06053161621094,0,
 785636,-0.05078125,-2.958984375,-1.775390625,413.5975646972656,13.810976028442383,-33.29268264770508,19.950000762939453,-16.350000381469727,-5.699999809265137,38.15637969970703,0,
 785646,0.858642578125,-1.807861328125,-1.714111328125,-190.5792694091797,20.487804412841797,-140.4268341064453,21.75,-19.350000381469727,-4.800000190734863,38.06053161621094,0,
 785656,1.224853515625,-0.025634765625,-2.371826171875,-258.07928466796875,88.07926940917969,-8.32317066192627,21.75,-19.350000381469727,-4.800000190734863,37.91676330566406,0,
 785666,1.45751953125,0.36279296875,-3.407470703125,80.91463470458984,290.76220703125,-185.24391174316406,18.600000381469727,-17.700000762939453,-3.299999952316284,38.15637969970703,0,
 785676,1.263916015625,-1.05615234375,-1.229736328125,-249.60366821289062,321.5243835449219,-179.96951293945312,17.700000762939453,-19.200000762939453,-0.15000000596046448,38.25222396850586,0,
 785686,1.338134765625,-0.298583984375,-0.707763671875,-480.2439270019531,296.06707763671875,-19.60365867614746,18.899999618530273,-18.0,3.1500000953674316,37.96468734741211,0,
 785696,0.578857421875,1.1572265625,-1.0830078125,-319.8780517578125,106.21951293945312,26.829269409179688,17.850000381469727,-20.100000381469727,5.25,37.868839263916016,0,
 785706,-0.875732421875,1.78759765625,-0.75048828125,197.07318115234375,81.28048706054688,12.65243911743164,17.850000381469727,-20.100000381469727,5.25,37.91676330566406,0,
 785716,-1.561767578125,0.19921875,0.337890625,427.2256164550781,118.53659057617188,-13.506097793579102,17.850000381469727,-18.600000381469727,6.75,37.96468734741211,0,
 785726,-5.3095703125,0.07861328125,-0.92626953125,57.04268264770508,-185.09146118164062,-162.19512939453125,17.549999237060547,-16.5,6.0,37.91676330566406,0,
 785776,0.185546875,-2.90380859375,-0.634765625,-503.8414611816406,-85.79268646240234,380.9146423339844,12.0,-11.25,4.199999809265137,38.06053161621094,0,
 785786,0.95556640625,-0.225341796875,-2.156982421875,-470.57928466796875,-88.38414764404297,164.26829528808594,14.850000381469727,-16.200000762939453,10.050000190734863,38.06053161621094,0,
 785796,0.358642578125,1.939208984375,-1.126953125,67.86585235595703,-356.2195129394531,-93.78048706054688,14.850000381469727,-16.200000762939453,10.050000190734863,37.96468734741211,0,
 785806,-0.652587890625,1.2314453125,-0.499267578125,626.1890258789062,-246.06707763671875,-6.341463565826416,21.299999237060547,-21.299999237060547,6.300000190734863,37.91676330566406,0,
 785816,-2.306396484375,-0.0537109375,0.526611328125,381.6463623046875,271.8597717285156,-98.75,23.549999237060547,-17.399999618530273,4.5,38.108455657958984,0,
 785826,-0.08935546875,-0.76318359375,-3.007568359375,-225.97561645507812,477.9878234863281,-127.28659057617188,20.549999237060547,-16.5,5.550000190734863,38.108455657958984,0,
 785836,0.91845703125,0.294189453125,-0.881103515625,-304.0243835449219,48.68902587890625,-17.378049850463867,20.549999237060547,-16.5,5.550000190734863,37.77299499511719,0,
 785846,-0.783203125,0.369384765625,-0.6142578125,-93.53659057617188,-269.1158447265625,-21.128049850463867,17.700000762939453,-17.549999237060547,8.399999618530273,37.96468734741211,0,
 785856,-1.6708984375,-0.159912109375,-0.414794921875,119.32926940917969,-177.46951293945312,-32.682926177978516,19.649999618530273,-15.600000381469727,6.900000095367432,37.91676330566406,0,
 785866,-0.817626953125,-0.559814453125,-0.184326171875,140.76219177246094,-79.93902587890625,-7.560975551605225,19.350000381469727,-15.0,4.050000190734863,37.96468734741211,0,
 785876,-0.66943359375,-0.4453125,-0.816162109375,18.292682647705078,29.176830291748047,-15.70121955871582,19.350000381469727,-16.5,1.5,37.91676330566406,0,
 785886,-0.537353515625,-0.268798828125,-0.8154296875,-48.44512176513672,4.115853786468506,-2.0426828861236572,19.350000381469727,-16.5,1.5,37.96468734741211,0,
 785896,-0.880615234375,-0.1533203125,-0.633056640625,-8.384146690368652,-25.0,25.18292808532715,19.200000762939453,-15.600000381469727,4.650000095367432,37.91676330566406,0,
 785906,-0.8125,-0.12890625,-0.5,-5.945122241973877,-2.195122003555298,-0.4878048896789551,19.950000762939453,-15.149999618530273,4.949999809265137,37.91676330566406,0,
 785916,-0.747314453125,-0.256103515625,-0.627197265625,17.865854263305664,37.28658676147461,-6.6768293380737305,19.799999237060547,-17.399999618530273,6.300000190734863,37.96468734741211,0,
 785926,-0.7080078125,-0.306884765625,-0.7373046875,11.12804889678955,55.70122146606445,-4.786585330963135,19.799999237060547,-17.399999618530273,6.300000190734863,37.96468734741211,0,
 785936,-0.6171875,-0.2978515625,-0.83935546875,-6.646341800689697,49.14634323120117,3.3841464519500732,19.649999618530273,-15.899999618530273,5.699999809265137,37.581302642822266,0,
 785976,-0.615234375,-0.1201171875,-0.82666015625,-8.47560977935791,35.82316970825195,7.591463565826416,20.399999618530273,-17.549999237060547,5.400000095367432,38.15637969970703,0,
 785986,-0.562744140625,-0.130126953125,-0.903564453125,-3.932926893234253,27.65243911743164,3.6890244483947754,19.049999237060547,-17.700000762939453,6.0,37.77299499511719,0,
 785996,-0.630126953125,-0.160888671875,-0.857177734375,0.6707317233085632,7.286585330963135,4.359755992889404,20.399999618530273,-17.549999237060547,7.199999809265137,37.91676330566406,0,
 786006,-0.6201171875,-0.14697265625,-0.8408203125,-3.567073345184326,1.4939024448394775,5.0,18.600000381469727,-16.5,6.75,37.91676330566406,0,
 786016,-0.635498046875,-0.13818359375,-0.802734375,-3.445122003555298,-3.8719513416290283,5.853658676147461,18.600000381469727,-16.5,6.75,37.91676330566406,0,
 786026,-0.646484375,-0.118408203125,-0.782470703125,-3.8719513416290283,-6.8597564697265625,4.969512462615967,19.350000381469727,-16.950000762939453,4.5,37.62922668457031,0,
 786036,-0.656982421875,-0.134765625,-0.7578125,0.792682945728302,-5.762195110321045,3.47560977935791,20.100000381469727,-18.149999618530273,6.0,37.96468734741211,0,
 786056,-0.59716796875,-0.155029296875,-0.787109375,4.02439022064209,-13.62804889678955,1.432926893234253,20.549999237060547,-15.0,7.050000190734863,37.91676330566406,0,
 786067,-0.5966796875,-0.0986328125,-0.779052734375,-0.6097561120986938,-23.90243911743164,1.6158536672592163,20.549999237060547,-15.0,7.050000190734863,38.06053161621094,0,
 786077,-0.597900390625,-0.11376953125,-0.89013671875,2.865853786468506,-26.524391174316406,1.1280487775802612,18.899999618530273,-13.649999618530273,4.199999809265137,37.96468734741211,0,
 786087,-0.60107421875,-0.122314453125,-0.852783203125,4.115853786468506,-31.25,-0.3353658616542816,18.600000381469727,-18.899999618530273,4.5,37.77299499511719,0,
 786097,-0.67138671875,-0.16357421875,-0.867431640625,7.621951580047607,-41.82926940917969,-2.378048896789551,20.100000381469727,-15.75,6.300000190734863,38.06053161621094,0,
 786107,-0.664794921875,-0.252685546875,-0.930419921875,16.95121955871582,-42.13414764404297,-2.987804889678955,20.100000381469727,-15.75,6.300000190734863,38.06053161621094,0,
 786117,-0.659912109375,-0.27734375,-0.96630859375,13.109756469726562,-73.81097412109375,-2.6524391174316406,20.700000762939453,-18.0,6.150000095367432,38.06053161621094,0,
 786127,-0.81103515625,-0.25634765625,-0.768310546875,28.780488967895508,-87.71341705322266,-12.469512939453125,20.700000762939453,-17.100000381469727,4.650000095367432,37.77299499511719,0,
 786137,-1.124755859375,-0.286865234375,-0.562744140625,13.87195110321045,-78.81097412109375,-35.45731735229492,21.149999618530273,-17.100000381469727,3.450000047683716,38.06053161621094,0,
 786147,-1.63916015625,-0.160400390625,-0.156982421875,-73.59756469726562,-115.54878234863281,-66.28048706054688,21.0,-17.399999618530273,3.75,37.96468734741211,0,
 786157,-2.440673828125,0.12890625,0.921875,-138.78048706054688,-192.7134246826172,-134.60366821289062,21.0,-17.399999618530273,3.75,37.868839263916016,0,
 786167,-2.72998046875,-0.131591796875,2.125732421875,109.23780822753906,-25.94512176513672,-177.6219482421875,21.149999618530273,-13.649999618530273,1.9500000476837158,38.06053161621094,0,
 786177,-3.28564453125,-0.36572265625,0.474365234375,42.256099700927734,89.20732116699219,-146.64634704589844,19.799999237060547,-11.399999618530273,0.0,37.91676330566406,0,
 786187,-1.4638671875,-0.515869140625,0.564697265625,-262.8658447265625,-153.506103515625,-28.04878044128418,19.200000762939453,-12.449999809265137,-1.9500000476837158,37.91676330566406,0,
 786197,-2.35205078125,0.05029296875,0.303466796875,-314.51220703125,-184.51220703125,157.86585998535156,19.200000762939453,-12.449999809265137,-1.9500000476837158,37.96468734741211,0,
 786207,-2.33837890625,1.225341796875,0.54833984375,-138.84146118164062,-4.02439022064209,178.99391174316406,17.549999237060547,-12.149999618530273,0.75,38.108455657958984,0,
 786217,-1.32763671875,1.28173828125,0.18603515625,36.64634323120117,-10.304878234863281,142.6219482421875,17.549999237060547,-12.149999618530273,2.25,38.06053161621094,0,
 786227,-0.656982421875,0.564697265625,-0.1630859375,61.67683029174805,-60.274391174316406,157.34756469726562,18.0,-14.399999618530273,0.44999998807907104,37.72507095336914,0,
 786237,-0.20263671875,0.280029296875,-0.07958984375,72.92683410644531,-86.03659057617188,150.24391174316406,19.799999237060547,-15.300000190734863,0.75,38.06053161621094,0,
 786247,0.306640625,0.401611328125,0.20556640625,89.20732116699219,-102.80487823486328,115.18292999267578,19.200000762939453,-17.549999237060547,0.15000000596046448,37.91676330566406,0,
 786257,1.099609375,0.210205078125,0.671142578125,99.32926940917969,-65.9756088256836,112.5,20.549999237060547,-17.700000762939453,-0.75,37.91676330566406,0,
 786287,1.405029296875,-2.0068359375,1.478515625,260.3658447265625,256.006103515625,-82.1036605834961,21.75,-21.299999237060547,-5.550000190734863,37.868839263916016,0,
 786297,4.431640625,-4.404296875,-7.999755859375,176.49391174316406,342.95733642578125,11.189024925231934,22.049999237060547,-19.350000381469727,-2.25,37.77299499511719,0,
 786307,0.58935546875,-2.178466796875,1.216796875,49.78658676147461,11.40243911743164,-107.3780517578125,20.700000762939453,-19.5,-4.650000095367432,37.77299499511719,0,
 786317,-2.78125,0.078369140625,-2.31884765625,-463.1097717285156,-11.219511985778809,-206.15853881835938,21.0,-17.700000762939453,-1.7999999523162842,37.91676330566406,0,
 786327,-1.44921875,-0.08349609375,-0.058349609375,-295.1524353027344,-110.1524429321289,24.60365867614746,21.0,-17.700000762939453,-1.7999999523162842,37.581302642822266,0,
 786337,-0.1259765625,0.3173828125,-2.322509765625,135.27439880371094,120.42683410644531,165.60975646972656,20.100000381469727,-18.600000381469727,-1.0499999523162842,37.91676330566406,0,
 786347,-0.058837890625,-1.153564453125,-1.196533203125,199.35975646972656,-51.79878234863281,-3.0487804412841797,19.350000381469727,-17.399999618530273,-2.549999952316284,38.108455657958984,0,
 786357,-1.38525390625,-0.836181640625,-1.790283203125,-19.817073822021484,-228.53659057617188,34.63414764404297,21.149999618530273,-17.100000381469727,-3.450000047683716,38.108455657958984,0,
 786367,-0.961181640625,-0.1875,-0.8271484375,-6.615853786468506,-195.7012176513672,96.5243911743164,21.0,-17.700000762939453,-5.550000190734863,38.06053161621094,0,
 786377,-1.33203125,0.439697265625,-1.164794921875,-59.08536911010742,-168.35366821289062,69.7256088256836,21.0,-17.700000762939453,-5.550000190734863,37.581302642822266,0,
 786387,-1.01806640625,0.000244140625,-0.27392578125,33.506099700927734,-164.6341552734375,37.8658561706543,26.100000381469727,-19.5,-9.899999618530273,38.06053161621094,0,
 786397,-1.24072265625,-0.6796875,-1.80419921875,206.18902587890625,-42.65243911743164,18.018293380737305,23.399999618530273,-19.5,-6.449999809265137,38.06053161621094,0,
 786407,-0.07470703125,-2.192138671875,-1.45849609375,210.39634704589844,55.914634704589844,-153.90243530273438,24.149999618530273,-19.5,-7.949999809265137,38.06053161621094,0,
 786417,1.279541015625,-1.106689453125,-2.107177734375,-118.32317352294922,154.3292694091797,-135.24391174316406,24.149999618530273,-19.5,-7.949999809265137,37.96468734741211,0,
 786427,-0.06787109375,-0.16455078125,-1.52880859375,-179.81707763671875,53.871952056884766,-62.560977935791016,23.100000381469727,-20.25,-6.150000095367432,37.72507095336914,0,
 786437,0.490966796875,0.21142578125,-1.407958984375,-143.81097412109375,206.61585998535156,-22.34756088256836,22.799999237060547,-19.799999237060547,-4.5,38.06053161621094,0,
 786447,1.4892578125,0.644287109375,-1.07470703125,-210.73170471191406,325.3658752441406,4.207317352294922,21.149999618530273,-19.5,-1.649999976158142,37.96468734741211,0,
 786457,2.424560546875,0.949462890625,0.021484375,-237.19512939453125,304.8475646972656,38.32317352294922,21.149999618530273,-20.700000762939453,1.649999976158142,38.06053161621094,0,
 786487,-0.467041015625,-1.31787109375,-0.71875,459.32928466796875,110.60975646972656,30.0,18.899999618530273,-22.350000381469727,0.8999999761581421,37.96468734741211,0,
 786497,-0.42138671875,-2.93798828125,0.587890625,376.9817199707031,50.060977935791016,-141.9207305908203,18.600000381469727,-20.549999237060547,0.75,38.06053161621094,0,
 786507,-0.6572265625,-1.1083984375,0.362548828125,-222.3780517578125,-8.87195110321045,-192.7134246826172,18.600000381469727,-20.549999237060547,0.75,37.91676330566406,0,
 786517,-7.936767578125,0.975830078125,-4.64111328125,-346.18902587890625,-361.70733642578125,-313.5365905761719,22.5,-16.950000762939453,3.0,38.06053161621094,0,
 786527,-8.0,4.54638671875,8.0,-999.0244140625,110.45732116699219,-249.84756469726562,22.049999237060547,-17.700000762939453,4.5,38.25222396850586,0,
 786537,-2.968505859375,4.174560546875,-7.999755859375,-16.25,-19.817073822021484,-287.256103515625,18.899999618530273,-13.649999618530273,2.4000000953674316,38.108455657958984,0,
 786547,0.733642578125,-3.5546875,0.281982421875,774.4512329101562,478.32318115234375,-112.04268646240234,11.399999618530273,-5.099999904632568,1.0499999523162842,38.06053161621094,0,
 786557,0.510009765625,-4.101806640625,-4.0498046875,553.018310546875,555.76220703125,89.26829528808594,11.399999618530273,-5.099999904632568,1.0499999523162842,38.06053161621094,0,
 786567,1.264404296875,-0.087646484375,-1.313720703125,-763.7195434570312,-179.11585998535156,389.7865905761719,12.300000190734863,-14.399999618530273,7.650000095367432,38.06053161621094,0,
 786577,0.036865234375,1.397216796875,-0.426025390625,13.963415145874023,-275.1219482421875,-8.59756088256836,17.700000762939453,-20.25,8.699999809265137,38.06053161621094,0,
 786587,-2.081298828125,2.083740234375,-0.7060546875,687.5,-99.42073059082031,78.87195587158203,22.049999237060547,-21.75,7.800000190734863,37.91676330566406,0,
 786597,-1.418212890625,-0.44580078125,1.486572265625,373.44512939453125,467.256103515625,-75.70121765136719,22.049999237060547,-21.75,7.800000190734863,37.96468734741211,0,
 786607,-0.6875,-2.078125,-2.02734375,-409.5426940917969,266.006103515625,-80.82317352294922,19.049999237060547,-15.75,6.300000190734863,37.91676330566406,0,
 786617,1.141845703125,-0.202880859375,-2.227783203125,-455.7317199707031,-148.2926788330078,22.012195587158203,17.549999237060547,-16.200000762939453,7.800000190734863,37.77299499511719,0,
 786627,-0.348876953125,0.9599609375,-0.4423828125,3.2012195587158203,-201.06707763671875,-48.38414764404297,18.0,-18.299999237060547,7.650000095367432,38.06053161621094,0,
 786637,-1.106201171875,0.724609375,-0.8037109375,288.6280517578125,-128.9634246826172,-37.92683029174805,19.799999237060547,-17.399999618530273,6.75,37.96468734741211,0,
 786647,-1.0537109375,-0.414306640625,-0.150634765625,192.256103515625,-31.128049850463867,-15.304878234863281,19.799999237060547,-17.399999618530273,6.75,38.06053161621094,0,
 786657,-0.681640625,-0.85009765625,-0.266357421875,-77.07317352294922,17.865854263305664,-11.25,18.600000381469727,-14.25,6.0,38.15637969970703,0,
 786667,-0.490234375,-0.33447265625,-0.86181640625,-71.18902587890625,-13.75,25.64024543762207,19.049999237060547,-15.0,4.050000190734863,37.868839263916016,0,
 786677,-0.616943359375,0.122802734375,-0.73828125,20.457317352294922,-39.93902587890625,7.560975551605225,19.799999237060547,-16.950000762939453,5.25,37.77299499511719,0,
 786687,-0.8896484375,-0.064208984375,-0.577392578125,29.60365867614746,-9.512195587158203,-13.658536911010742,19.799999237060547,-16.950000762939453,5.25,37.96468734741211,0,
 786697,-0.848876953125,-0.284423828125,-0.450927734375,14.695122718811035,34.32926940917969,-4.054878234863281,21.299999237060547,-15.75,2.25,37.91676330566406,0,
 786707,-0.756103515625,-0.16796875,-0.60986328125,7.9268293380737305,46.7378044128418,-7.256097793579102,20.549999237060547,-15.75,5.550000190734863,37.91676330566406,0,
 786717,-0.732177734375,-0.231201171875,-0.677978515625,-5.396341800689697,42.713417053222656,-5.091463565826416,19.049999237060547,-15.75,6.0,37.72507095336914,0,
 786727,-0.60107421875,-0.271728515625,-0.783447265625,-23.75,7.408536911010742,7.621951580047607,20.700000762939453,-18.0,6.900000095367432,37.96468734741211,0,
 786737,-0.663330078125,-0.147705078125,-0.80615234375,-16.036584854125977,-5.396341800689697,4.512195110321045,20.700000762939453,-18.0,6.900000095367432,38.108455657958984,0,
 786747,-0.695068359375,-0.191650390625,-0.767578125,1.920731782913208,24.69512176513672,-1.2804877758026123,21.299999237060547,-15.300000190734863,5.550000190734863,37.91676330566406,0,
 786757,-0.58056640625,-0.207763671875,-0.875244140625,7.865853786468506,31.03658676147461,-0.7012194991111755,21.0,-17.399999618530273,6.0,38.06053161621094,0,
 786767,-0.612548828125,-0.265380859375,-0.883544921875,3.170731782913208,12.469512939453125,-2.195122003555298,19.649999618530273,-16.799999237060547,6.900000095367432,37.868839263916016,0,
 786777,-0.654296875,-0.18408203125,-0.79296875,-6.158536911010742,-1.402438998222351,7.286585330963135,19.649999618530273,-16.799999237060547,6.900000095367432,37.91676330566406,0,
 786787,-0.618408203125,-0.130859375,-0.798095703125,-9.695121765136719,-0.060975611209869385,8.963415145874023,19.350000381469727,-18.149999618530273,6.0,37.77299499511719,0,
 786797,-0.58056640625,-0.089111328125,-0.849853515625,-6.615853786468506,-1.585365891456604,9.085366249084473,21.450000762939453,-15.899999618530273,4.650000095367432,37.96468734741211,0,
 786807,-0.651123046875,-0.042724609375,-0.812255859375,-4.481707572937012,-11.219511985778809,5.884146690368652,21.0,-17.700000762939453,6.0,37.91676330566406,0,
 786817,-0.701416015625,-0.1083984375,-0.761962890625,9.329268455505371,-17.560976028442383,2.5,20.100000381469727,-17.399999618530273,5.25,38.06053161621094,0,
 786827,-0.669921875,-0.04931640625,-0.792236328125,1.1890244483947754,-15.304878234863281,-0.15243902802467346,20.100000381469727,-17.399999618530273,5.25,37.868839263916016,0,
 786837,-0.7021484375,-0.138671875,-0.734130859375,11.006097793579102,-20.975610733032227,-3.932926893234253,20.100000381469727,-16.200000762939453,5.550000190734863,38.06053161621094,0,
 786847,-0.723876953125,-0.117431640625,-0.70849609375,4.2682929039001465,-19.573171615600586,-5.213414669036865,21.149999618530273,-17.100000381469727,6.449999809265137,37.868839263916016,0,
 786857,-0.67919921875,-0.181396484375,-0.718994140625,11.09756088256836,-10.731707572937012,-7.1646342277526855,21.0,-16.950000762939453,7.800000190734863,38.06053161621094,0,
 786867,-0.62939453125,-0.210205078125,-0.7890625,10.304878234863281,-10.97560977935791,-7.256097793579102,21.0,-16.950000762939453,7.800000190734863,37.91676330566406,0,
 786897,-0.690673828125,-0.188720703125,-0.79443359375,6.890244007110596,-33.68902587890625,-1.25,19.200000762939453,-14.850000381469727,4.199999809265137,37.96468734741211,0,
 786908,-0.704345703125,-0.17578125,-0.77880859375,6.890244007110596,-33.871952056884766,-0.5182926654815674,19.350000381469727,-16.5,5.550000190734863,37.96468734741211,0,
 786918,-0.716064453125,-0.183349609375,-0.745361328125,6.981707572937012,-35.030487060546875,-1.2195122241973877,19.350000381469727,-16.5,5.550000190734863,37.91676330566406,0,
 786928,-0.7275390625,-0.159423828125,-0.731689453125,5.457317352294922,-35.30487823486328,-1.5548781156539917,19.200000762939453,-15.899999618530273,4.650000095367432,37.96468734741211,0,
 786938,-0.73388671875,-0.157958984375,-0.713134765625,3.9024391174316406,-34.756099700927734,-2.378048896789551,21.450000762939453,-15.600000381469727,4.650000095367432,37.96468734741211,0,
 786948,-0.742431640625,-0.172607421875,-0.71240234375,5.182927131652832,-31.981708526611328,-4.1768293380737305,21.149999618530273,-15.899999618530273,5.699999809265137,37.96468734741211,0,
 786958,-0.702880859375,-0.2041015625,-0.709716796875,5.884146690368652,-28.780488967895508,-5.243902683258057,21.149999618530273,-15.899999618530273,5.699999809265137,38.108455657958984,0,
 786968,-0.680908203125,-0.22314453125,-0.76318359375,8.719511985778809,-31.40243911743164,-5.030488014221191,20.700000762939453,-17.100000381469727,4.199999809265137,37.581302642822266,0,
 786978,-0.69677734375,-0.234619140625,-0.767578125,7.042683124542236,-39.54268264770508,-3.1097562313079834,21.75,-18.149999618530273,3.299999952316284,37.91676330566406,0,
 786988,-0.751220703125,-0.265869140625,-0.7177734375,6.737804889678955,-46.03658676147461,-0.9451219439506531,21.299999237060547,-16.5,1.7999999523162842,38.06053161621094,0,
 786998,-0.788330078125,-0.258056640625,-0.692138671875,4.1768293380737305,-46.34146499633789,1.737804889678955,22.049999237060547,-16.5,3.75,37.96468734741211,0,
 787008,-0.955078125,-0.177001953125,-0.7255859375,4.329268455505371,-47.74390411376953,1.3414634466171265,22.049999237060547,-16.5,3.75,37.91676330566406,0,
 787018,-1.179443359375,-0.18798828125,-0.50390625,16.25,-50.853660583496094,-9.695121765136719,23.100000381469727,-16.350000381469727,3.1500000953674316,37.96468734741211,0,
 787028,-1.50048828125,-0.064208984375,-0.2890625,25.64024543762207,-41.310977935791016,-24.817073822021484,23.100000381469727,-15.899999618530273,2.700000047683716,38.06053161621094,0,
 787038,-2.15380859375,0.280029296875,0.041748046875,34.756099700927734,-19.207317352294922,-113.17073059082031,22.5,-14.25,1.5,38.06053161621094,0,
 787048,-3.2373046875,-0.30859375,0.323486328125,257.7743835449219,165.5487823486328,-150.6707305908203,22.5,-14.25,1.5,37.91676330566406,0,
 787058,-2.305419921875,-1.45849609375,0.572021484375,43.628047943115234,269.81707763671875,-127.53048706054688,18.899999618530273,-11.25,0.8999999761581421,37.72507095336914,0,
 787068,-0.68408203125,-1.286376953125,-0.184326171875,-197.7134246826172,18.841463088989258,-59.78658676147461,18.0,-10.050000190734863,0.8999999761581421,37.91676330566406,0,
 787078,-1.2490234375,-0.802001953125,0.027099609375,-407.3780517578125,-29.45121955871582,109.45122528076172,16.799999237060547,-11.850000381469727,3.299999952316284,37.96468734741211,0,
 787088,-1.2109375,0.470947265625,0.618896484375,-464.1158752441406,98.32317352294922,96.73780822753906,15.75,-12.449999809265137,4.650000095367432,37.96468734741211,0,
 787098,-0.9951171875,1.6240234375,0.379150390625,-178.0487823486328,176.06707763671875,51.09756088256836,15.75,-12.449999809265137,4.650000095367432,38.06053161621094,0,
 787108,-0.306884765625,1.552734375,-0.3974609375,181.7987823486328,77.68292999267578,59.756099700927734,14.850000381469727,-14.25,4.800000190734863,37.72507095336914,0,
 787118,-0.282958984375,0.27880859375,-0.662841796875,121.85975646972656,2.865853786468506,68.56707763671875,14.699999809265137,-12.75,5.699999809265137,38.06053161621094,0,
 787128,-0.359619140625,-0.2119140625,-0.483642578125,-42.34756088256836,12.408536911010742,73.59756469726562,13.350000381469727,-14.25,7.5,38.06053161621094,0,
 787138,-0.24365234375,0.114990234375,-0.2314453125,-13.262195587158203,50.03049087524414,82.3780517578125,13.350000381469727,-14.25,7.5,38.06053161621094,0,
 787148,-0.01220703125,0.330322265625,-0.17822265625,65.3963394165039,50.335365295410156,63.963417053222656,16.200000762939453,-16.799999237060547,8.399999618530273,38.15637969970703,0,
 787158,0.36376953125,0.19189453125,-0.084716796875,79.26829528808594,-0.396341472864151,46.371952056884766,15.600000381469727,-19.350000381469727,4.800000190734863,37.91676330566406,0,
 787168,0.70556640625,0.0146484375,0.453369140625,7.560975551605225,-90.57926940917969,49.14634323120117,15.899999618530273,-17.399999618530273,7.050000190734863,37.91676330566406,0,
 787188,0.911865234375,-0.19677734375,0.183349609375,217.8048858642578,-285.243896484375,2.865853786468506,17.100000381469727,-17.399999618530273,6.75,38.06053161621094,0,
 787198,-8.0,-2.66015625,-7.999755859375,162.77439880371094,-410.06097412109375,-69.90853881835938,18.450000762939453,-18.0,1.649999976158142,37.91676330566406,0,
 787208,1.114990234375,-2.20068359375,4.9638671875,-110.39634704589844,384.5426940917969,-162.77439880371094,21.0,-15.0,-2.549999952316284,37.91676330566406,0,
 787218,4.756103515625,4.0009765625,-7.999755859375,-774.51220703125,568.26220703125,183.8719482421875,18.450000762939453,-16.350000381469727,4.650000095367432,38.108455657958984,0,
 787228,0.829345703125,-2.9697265625,0.64208984375,785.3963623046875,-181.28048706054688,124.29878234863281,18.450000762939453,-16.350000381469727,4.650000095367432,37.96468734741211,0,
 787238,-2.286865234375,-2.118408203125,-0.959228515625,273.993896484375,-359.5426940917969,16.79878044128418,17.549999237060547,-16.950000762939453,1.5,38.06053161621094,0,
 787248,-1.489013671875,0.2626953125,-0.05859375,-571.768310546875,-163.53659057617188,38.658538818359375,18.299999237060547,-18.149999618530273,0.75,38.108455657958984,0,
 787258,-0.675537109375,1.484130859375,-1.37451171875,-415.45733642578125,101.76829528808594,109.08536529541016,18.450000762939453,-18.75,2.700000047683716,37.91676330566406,0,
 787268,0.409423828125,0.8916015625,-1.814208984375,43.23170852661133,18.689023971557617,52.04268264770508,18.899999618530273,-18.75,3.1500000953674316,38.06053161621094,0,
 787278,-0.8994140625,-0.075439453125,-1.03759765625,232.6829376220703,-268.8414611816406,24.542682647705078,18.899999618530273,-18.75,3.1500000953674316,38.25222396850586,0,
 787288,-1.285888671875,-0.4091796875,-0.97998046875,271.1280517578125,-225.39634704589844,9.664634704589844,20.549999237060547,-16.950000762939453,0.0,38.06053161621094,0,
 787298,-0.77978515625,-0.82080078125,-1.16259765625,205.09146118164062,-136.5853729248047,-7.195122241973877,22.049999237060547,-14.25,-1.7999999523162842,37.96468734741211,0,
 787308,-1.44580078125,-1.8876953125,-2.193359375,298.7195129394531,-55.45731735229492,-35.7621955871582,20.399999618530273,-13.949999809265137,-4.199999809265137,37.77299499511719,0,
 787318,0.516357421875,-2.045166015625,-0.7646484375,90.30487823486328,83.87195587158203,-71.92073059082031,20.399999618530273,-13.949999809265137,-4.199999809265137,38.06053161621094,0,
 787328,0.34716796875,-0.347412109375,-2.460693359375,-203.23170471191406,91.18902587890625,-23.567073822021484,22.5,-16.950000762939453,-3.75,37.91676330566406,0,
 787338,0.765625,-0.186767578125,-1.214111328125,-109.78659057617188,60.914634704589844,-35.335365295410156,22.200000762939453,-18.299999237060547,0.15000000596046448,37.96468734741211,0,
 787348,1.767333984375,-0.49560546875,0.037353515625,-129.23780822753906,184.57318115234375,-19.207317352294922,22.049999237060547,-17.700000762939453,-0.75,37.91676330566406,0,
 787358,2.8818359375,1.09716796875,-1.2001953125,-489.7865905761719,307.1646423339844,99.756103515625,20.100000381469727,-18.600000381469727,1.7999999523162842,37.868839263916016,0,
 787368,1.571044921875,1.63671875,-0.706787109375,-360.1524353027344,56.67683029174805,80.45732116699219,20.100000381469727,-18.600000381469727,1.7999999523162842,37.91676330566406,0,
 787378,-0.4501953125,-0.108154296875,-0.940673828125,251.76829528808594,-38.414634704589844,5.4268293380737305,17.700000762939453,-21.450000762939453,5.400000095367432,37.91676330566406,0,
 787408,-0.53955078125,-0.38818359375,1.40283203125,-387.5,-90.91463470458984,-147.74391174316406,18.600000381469727,-19.799999237060547,4.5,37.72507095336914,0,
 787418,-2.98779296875,-1.050048828125,8.0,-999.0244140625,-998.993896484375,-522.6219482421875,24.600000381469727,-19.950000762939453,3.9000000953674316,38.06053161621094,0,
 787428,-8.0,8.0,-6.18310546875,-620.5487670898438,-693.3841552734375,-794.0853881835938,25.200000762939453,-18.600000381469727,1.5,37.91676330566406,0,
 787438,4.786865234375,-5.96923828125,-1.22509765625,998.993896484375,999.0244140625,263.2926940917969,14.100000381469727,-7.800000190734863,-2.25,37.91676330566406,0,
 787448,2.389892578125,-6.361083984375,0.840087890625,947.5609741210938,445.18292236328125,143.35366821289062,11.550000190734863,-1.649999976158142,-4.650000095367432,37.96468734741211,0,
 787458,1.173095703125,4.19970703125,-4.248779296875,-999.0244140625,-469.0244140625,298.07928466796875,11.550000190734863,-1.649999976158142,-4.650000095367432,38.108455657958984,0,
 787468,0.033935546875,2.6484375,2.642333984375,-593.1707153320312,-92.92683410644531,156.25,19.049999237060547,-24.450000762939453,10.5,37.91676330566406,0,
 787478,-1.9794921875,1.615478515625,-1.146240234375,658.9634399414062,-177.04269409179688,-82.71341705322266,20.100000381469727,-21.75,7.5,38.300148010253906,0,
 787488,-1.155029296875,-2.66650390625,-0.19482421875,386.43292236328125,438.3841552734375,9.268292427062988,21.149999618530273,-18.0,4.199999809265137,37.91676330566406,0,
 787498,0.492431640625,-4.00830078125,-0.1328125,-965.3353881835938,318.26220703125,-44.024391174316406,21.149999618530273,-18.0,4.199999809265137,38.06053161621094,0,
 787508,0.9013671875,0.9931640625,-3.18359375,-511.4024658203125,-194.26829528808594,-30.88414764404297,18.0,-16.350000381469727,10.199999809265137,37.91676330566406,0,
 787518,0.327392578125,1.851806640625,-0.673828125,297.43902587890625,-325.2743835449219,12.835366249084473,19.799999237060547,-19.799999237060547,7.5,38.108455657958984,0,
 787528,-1.209228515625,0.667724609375,-0.29736328125,485.5487976074219,-137.22561645507812,-15.182927131652832,19.649999618530273,-17.100000381469727,8.699999809265137,38.06053161621094,0,
 787538,-1.8896484375,-0.832763671875,-0.468505859375,138.01829528808594,83.50609588623047,-85.06097412109375,18.600000381469727,-15.0,6.0,37.91676330566406,0,
 787548,-0.4169921875,-1.1494140625,-0.359619140625,-110.60975646972656,52.164634704589844,-32.95731735229492,18.600000381469727,-15.0,6.0,37.91676330566406,0,
 787558,-0.46826171875,-0.27783203125,-1.12744140625,-28.170732498168945,-40.914634704589844,34.29878234863281,18.299999237060547,-14.550000190734863,6.75,37.91676330566406,0,
 787568,-0.745361328125,-0.18115234375,-0.603271484375,-11.981707572937012,-13.59756088256836,24.359756469726562,17.850000381469727,-15.0,6.0,37.96468734741211,0,
 787578,-0.88916015625,-0.10888671875,-0.56884765625,-2.4695122241973877,35.030487060546875,-10.97560977935791,19.049999237060547,-15.300000190734863,6.0,37.868839263916016,0,
 787588,-0.727783203125,-0.19091796875,-0.638671875,12.92682933807373,49.57317352294922,-8.140244483947754,19.049999237060547,-15.300000190734863,6.0,38.108455657958984,0,
 787598,-0.60888671875,-0.360595703125,-0.75341796875,-14.359756469726562,32.164634704589844,12.134146690368652,18.899999618530273,-15.149999618530273,3.450000047683716,37.868839263916016,0,
 787719,-0.66162109375,-0.119873046875,-0.7666015625,1.7682926654815674,-8.993902206420898,1.9512195587158203,19.200000762939453,-14.850000381469727,4.949999809265137,37.91676330566406,0,
 787729,-0.67333984375,-0.1455078125,-0.769775390625,2.9268293380737305,-10.945121765136719,-1.6158536672592163,19.200000762939453,-14.850000381469727,4.949999809265137,37.91676330566406,0,
 787739,-0.683837890625,-0.170166015625,-0.74853515625,5.731707572937012,-12.682927131652832,-3.3231709003448486,19.649999618530273,-15.600000381469727,8.699999809265137,37.91676330566406,0,
 787749,-0.7001953125,-0.19189453125,-0.72119140625,5.152439117431641,-9.542683601379395,-4.634146213531494,19.049999237060547,-16.200000762939453,7.050000190734863,37.72507095336914,0,
 787759,-0.70263671875,-0.202880859375,-0.727294921875,2.5304877758026123,-1.8292683362960815,-5.487804889678955,18.899999618530273,-16.350000381469727,7.949999809265137,38.06053161621094,0,
 787769,-0.6806640625,-0.2177734375,-0.7451171875,2.7134146690368652,3.1097562313079834,-5.487804889678955,18.899999618530273,-16.350000381469727,7.949999809265137,38.06053161621094,0,
 787779,-0.67529296875,-0.220947265625,-0.744140625,1.737804889678955,0.3353658616542816,-5.152439117431641,19.200000762939453,-15.899999618530273,6.449999809265137,37.96468734741211,0,
 787789,-0.689697265625,-0.21533203125,-0.7216796875,0.4878048896789551,-2.896341562271118,-3.567073345184326,17.700000762939453,-14.850000381469727,7.650000095367432,37.96468734741211,0,
 787799,-0.70166015625,-0.1904296875,-0.7060546875,-0.3353658616542816,-2.6524391174316406,-1.9817073345184326,18.299999237060547,-15.75,7.800000190734863,37.91676330566406,0,
 787809,-0.702880859375,-0.19580078125,-0.705078125,0.0,-0.09146341681480408,-1.0060975551605225,19.799999237060547,-16.200000762939453,4.800000190734863,37.91676330566406,0,
 787829,-0.64306640625,-0.18408203125,-0.743408203125,-1.8597561120986938,4.02439022064209,-0.6707317233085632,19.799999237060547,-16.950000762939453,6.300000190734863,38.06053161621094,0,
 787839,-0.607177734375,-0.19287109375,-0.77392578125,-0.4878048896789551,3.2926828861236572,-0.24390244483947754,18.899999618530273,-15.899999618530273,5.699999809265137,37.91676330566406,0,
 787849,-0.64599609375,-0.166748046875,-0.79931640625,-1.3109756708145142,-4.146341323852539,0.09146341681480408,19.950000762939453,-16.799999237060547,7.650000095367432,37.91676330566406,0,
 787859,-0.64306640625,-0.172607421875,-0.797119140625,0.5487805008888245,-6.79878044128418,0.15243902802467346,19.950000762939453,-16.799999237060547,7.650000095367432,37.96468734741211,0,
 787869,-0.5927734375,-0.158203125,-0.86181640625,1.097561001777649,-7.743902683258057,-0.21341463923454285,19.049999237060547,-16.5,6.0,38.06053161621094,0,
 787879,-0.57763671875,-0.161865234375,-0.85205078125,0.5182926654815674,-12.469512939453125,-0.7317073345184326,18.0,-15.149999618530273,6.449999809265137,37.868839263916016,0,
 787889,-0.63720703125,-0.1689453125,-0.8369140625,2.9573171138763428,-25.0,-1.4939024448394775,19.799999237060547,-15.300000190734863,6.300000190734863,38.15637969970703,0,
 787899,-0.625,-0.162353515625,-0.848876953125,3.47560977935791,-27.865854263305664,-3.2926828861236572,18.0,-16.799999237060547,6.449999809265137,37.868839263916016,0,
 787909,-0.6416015625,-0.154052734375,-0.860107421875,3.3841464519500732,-35.060977935791016,-5.365853786468506,18.0,-16.799999237060547,6.449999809265137,37.91676330566406,0,
 787919,-0.6953125,-0.19873046875,-0.777587890625,8.231707572937012,-44.72561264038086,-7.103658676147461,17.25,-16.350000381469727,7.199999809265137,38.06053161621094,0,
 787929,-0.69140625,-0.1884765625,-0.800537109375,8.414634704589844,-41.371952056884766,-8.414634704589844,21.75,-16.5,3.75,38.25222396850586,0,
 787939,-0.66064453125,-0.260986328125,-0.838134765625,17.2560977935791,-40.70122146606445,-8.292682647705078,19.799999237060547,-15.0,4.5,38.06053161621094,0,
 787949,-0.676513671875,-0.25,-0.7861328125,11.920731544494629,-58.04878234863281,-6.006097793579102,19.799999237060547,-15.0,4.5,37.91676330566406,0,
 787959,-0.7275390625,-0.32080078125,-0.77392578125,0.396341472864151,-63.10975646972656,-5.4268293380737305,21.0,-16.5,4.5,38.06053161621094,0,
 787969,-0.764892578125,-0.287109375,-0.7568359375,-5.030488014221191,-73.93292999267578,-11.25,20.549999237060547,-14.25,4.800000190734863,38.06053161621094,0,
 787979,-1.02880859375,-0.2353515625,-0.66064453125,6.432927131652832,-85.76219940185547,-23.414634704589844,21.0,-15.300000190734863,4.800000190734863,37.868839263916016,0,
 787989,-1.445556640625,-0.275634765625,-0.137451171875,-50.914634704589844,-90.30487823486328,-32.317073822021484,21.149999618530273,-15.899999618530273,3.9000000953674316,37.72507095336914,0,
 787999,-1.8759765625,0.028564453125,0.212890625,-104.11585235595703,-79.14634704589844,-53.99390411376953,21.149999618530273,-15.899999618530273,3.9000000953674316,37.96468734741211,0,
 788029,-1.72998046875,-1.392333984375,0.017333984375,-45.335365295410156,236.006103515625,-96.58536529541016,18.299999237060547,-9.899999618530273,-2.549999952316284,38.25222396850586,0,
 788039,-1.07666015625,-1.15234375,-0.703857421875,-253.81097412109375,68.50609588623047,50.67073440551758,18.299999237060547,-9.899999618530273,-2.549999952316284,37.96468734741211,0,
 788049,-1.22607421875,-0.093505859375,-0.102294921875,-322.9268493652344,62.59146499633789,155.1829376220703,15.0,-12.0,4.199999809265137,37.72507095336914,0,
 788059,-1.38427734375,0.983154296875,0.296875,-205.51829528808594,170.82318115234375,101.89024353027344,16.350000381469727,-13.350000381469727,5.25,38.06053161621094,0,
 788069,-1.06640625,1.3232421875,0.10009765625,77.5,226.31097412109375,64.7256088256836,15.0,-14.399999618530273,7.650000095367432,37.96468734741211,0,
 788079,-0.33740234375,0.4404296875,-0.27587890625,186.18902587890625,175.8841552734375,100.03048706054688,12.300000190734863,-15.149999618530273,7.199999809265137,37.91676330566406,0,
 788089,0.045654296875,-0.1611328125,-0.589599609375,84.78659057617188,92.86585235595703,130.03048706054688,12.300000190734863,-15.149999618530273,7.199999809265137,37.72507095336914,0,
 788099,0.40625,-0.30322265625,-0.271240234375,-20.15243911743164,48.506099700927734,116.06707763671875,11.399999618530273,-15.0,6.75,37.96468734741211,0,
 788109,0.446533203125,-0.1689453125,-0.108154296875,11.067073822021484,19.725610733032227,82.25609588623047,13.350000381469727,-15.75,10.050000190734863,37.77299499511719,0,
 788119,-0.242919921875,0.02099609375,0.0234375,28.475610733032227,-10.365854263305664,64.78659057617188,13.800000190734863,-17.100000381469727,9.149999618530273,38.15637969970703,0,
 788129,0.875,-0.331787109375,0.190185546875,19.14634132385254,-69.42073059082031,101.67683410644531,13.800000190734863,-17.100000381469727,9.149999618530273,37.91676330566406,0,
 788139,1.985107421875,-0.89013671875,0.75146484375,127.89634704589844,-42.22561264038086,88.29268646240234,14.25,-20.700000762939453,6.900000095367432,37.91676330566406,0,
 788149,0.73095703125,-0.273681640625,-0.435302734375,-46.34146499633789,-236.18902587890625,-13.079268455505371,14.399999618530273,-19.799999237060547,8.550000190734863,37.91676330566406,0,
 788159,-0.584228515625,-0.3671875,0.17578125,-77.01219940185547,-446.768310546875,-63.20122146606445,15.449999809265137,-21.450000762939453,7.199999809265137,37.96468734741211,0,
 788169,-2.8740234375,0.923828125,-5.246337890625,-1.6463414430618286,-373.0487976074219,-75.91463470458984,17.25,-21.450000762939453,4.949999809265137,38.06053161621094,0,
 788179,-2.004150390625,-0.03515625,0.71533203125,-185.3353729248047,7.286585330963135,-259.20733642578125,19.200000762939453,-17.100000381469727,2.4000000953674316,38.15637969970703,0,
 788189,3.2734375,-0.523681640625,4.887451171875,10.82317066192627,666.8292846679688,60.42683029174805,18.899999618530273,-18.0,3.9000000953674316,37.72507095336914,0,
 788199,2.618896484375,-4.115234375,-7.999755859375,557.9268188476562,90.48780822753906,49.024391174316406,16.799999237060547,-18.149999618530273,7.5,37.96468734741211,0,
 788209,-0.75927734375,-2.06787109375,3.255126953125,457.7439270019531,-202.43902587890625,117.43902587890625,16.5,-14.850000381469727,3.450000047683716,37.96468734741211,0,
 788219,-2.2138671875,0.091552734375,-2.48779296875,-479.2378234863281,-323.20123291015625,-25.670732498168945,16.5,-14.850000381469727,3.450000047683716,37.96468734741211,0,
 788229,-1.440185546875,0.46533203125,-0.033935546875,-306.3414611816406,39.908538818359375,-19.14634132385254,16.950000762939453,-16.350000381469727,3.1500000953674316,37.96468734741211,0,
 788239,0.056640625,1.146484375,-1.68115234375,-154.72561645507812,10.0,130.15243530273438,17.25,-19.200000762939453,3.450000047683716,37.77299499511719,0,
 788249,-0.54052734375,0.369140625,-1.185302734375,141.4634246826172,-27.89634132385254,121.70732116699219,17.850000381469727,-17.700000762939453,4.5,37.91676330566406,0,
 788259,-0.89208984375,-0.549560546875,-1.09423828125,203.0487823486328,-163.8719482421875,12.804878234863281,18.600000381469727,-18.149999618530273,3.0,37.96468734741211,0,
 788269,-0.9052734375,-0.999267578125,-0.547119140625,209.2987823486328,-171.61585998535156,28.628049850463867,20.100000381469727,-18.149999618530273,1.0499999523162842,37.96468734741211,0,
 788279,-1.22900390625,-1.197021484375,-1.248779296875,131.61585998535156,-141.1280517578125,-31.55487823486328,21.450000762939453,-16.350000381469727,0.8999999761581421,38.108455657958984,0,
 788289,-0.596923828125,-1.877197265625,-1.58154296875,94.17683410644531,-88.84146881103516,-91.95122528076172,20.549999237060547,-16.200000762939453,0.30000001192092896,37.91676330566406,0,
 788299,1.133544921875,-0.9775390625,-1.187255859375,-77.1036605834961,-2.9268293380737305,-26.03658676147461,20.700000762939453,-16.799999237060547,-1.2000000476837158,37.96468734741211,0,
 788309,1.267822265625,0.18896484375,-1.779541015625,-261.43292236328125,33.719512939453125,17.2560977935791,20.700000762939453,-16.799999237060547,-1.2000000476837158,37.96468734741211,0,
 788319,1.7080078125,0.529296875,-1.5966796875,-206.21951293945312,59.54268264770508,29.69512176513672,21.0,-18.149999618530273,1.5,37.77299499511719,0,
 788329,2.755615234375,0.357666015625,-1.969482421875,-55.30487823486328,222.01220703125,67.56097412109375,20.100000381469727,-19.799999237060547,1.5,38.06053161621094,0,
 788339,2.689453125,-0.09033203125,-1.491943359375,17.164634704589844,179.2987823486328,29.39024543762207,20.100000381469727,-22.049999237060547,0.0,37.868839263916016,0,
 788349,0.39306640625,-0.26171875,-1.545166015625,-29.23780632019043,53.14024353027344,-38.2621955871582,18.299999237060547,-20.850000381469727,4.5,37.91676330566406,0,
 788369,-7.040283203125,-0.0361328125,-4.4697265625,-74.90853881835938,71.6463394165039,-44.908538818359375,21.0,-20.100000381469727,6.300000190734863,38.06053161621094,0,
 788379,-2.99267578125,-2.117919921875,6.571044921875,-233.65853881835938,-557.8353881835938,-308.2926940917969,23.850000381469727,-18.0,6.150000095367432,37.96468734741211,0,
 788389,-8.0,2.69921875,8.0,-531.0670776367188,192.5,-158.506103515625,22.799999237060547,-18.600000381469727,6.75,37.91676330566406,0,
 788399,-3.370849609375,6.827392578125,-7.999755859375,998.993896484375,739.9695434570312,97.74390411376953,22.799999237060547,-18.600000381469727,6.75,37.96468734741211,0,
 788409,-0.58837890625,-3.7431640625,1.1162109375,423.3841552734375,383.0487976074219,232.8353729248047,12.149999618530273,-8.25,0.30000001192092896,37.96468734741211,0,
 788419,0.287109375,-3.08154296875,-2.016357421875,-895.8231811523438,-163.26219177246094,331.5243835449219,10.5,-3.299999952316284,3.1500000953674316,38.06053161621094,0,
 788439,0.02490234375,1.56640625,0.062744140625,323.07928466796875,-342.743896484375,-154.48170471191406,14.100000381469727,-13.800000190734863,7.050000190734863,38.06053161621094,0,
 788449,-2.04345703125,1.48876953125,-1.92138671875,973.5975952148438,-80.57926940917969,86.79878234863281,20.549999237060547,-20.850000381469727,8.25,38.108455657958984,0,
 788459,-2.236328125,-2.2431640625,3.253173828125,-42.469512939453125,488.44512939453125,-13.04878044128418,22.649999618530273,-18.75,4.650000095367432,37.91676330566406,0,
 788469,-0.293701171875,-1.554443359375,-1.635009765625,-533.26220703125,373.1707458496094,-85.39634704589844,20.100000381469727,-18.149999618530273,5.25,38.06053161621094,0,
 788479,0.737548828125,0.478759765625,-2.4931640625,-294.45123291015625,-62.560977935791016,-14.664634704589844,16.200000762939453,-17.549999237060547,8.699999809265137,37.96468734741211,0,
 788489,0.142333984375,0.86962890625,-0.599853515625,194.93902587890625,-185.8841552734375,-30.518293380737305,16.200000762939453,-17.549999237060547,8.699999809265137,37.77299499511719,0,
 788499,-1.111328125,0.315673828125,-0.76416015625,231.8292694091797,-91.89024353027344,-57.835365295410156,17.850000381469727,-16.200000762939453,7.5,37.91676330566406,0,
 788509,-1.334228515625,-1.187744140625,-0.371337890625,3.7195122241973877,26.615854263305664,16.4939022064209,19.200000762939453,-15.149999618530273,6.150000095367432,37.96468734741211,0,
 788519,-0.41796875,-0.485107421875,-0.874755859375,-94.8780517578125,-20.579269409179688,26.768293380737305,18.450000762939453,-13.649999618530273,7.199999809265137,37.91676330566406,0,
 788540,-0.676513671875,-0.154052734375,-0.70068359375,15.70121955871582,-30.914634704589844,8.292682647705078,19.350000381469727,-14.550000190734863,5.25,37.91676330566406,0,
 788550,-0.787109375,-0.158447265625,-0.699462890625,4.756097793579102,-6.097560882568359,0.9146341681480408,19.200000762939453,-16.799999237060547,6.449999809265137,37.91676330566406,0,
 788560,-0.733642578125,-0.1083984375,-0.648681640625,18.262195587158203,16.310976028442383,-2.317073106765747,18.899999618530273,-15.899999618530273,6.900000095367432,37.96468734741211,0,
 788570,-0.680908203125,-0.16943359375,-0.774658203125,-8.04878044128418,42.07317352294922,-1.1585365533828735,19.799999237060547,-15.75,8.25,37.91676330566406,0,
 788580,-0.492919921875,-0.276123046875,-0.8056640625,3.7195122241973877,31.219512939453125,4.359755992889404,19.799999237060547,-15.75,8.25,37.581302642822266,0,
 788590,-0.70361328125,-0.152099609375,-0.747314453125,-17.042682647705078,-16.79878044128418,6.189024448394775,18.299999237060547,-16.200000762939453,9.0,38.06053161621094,0,
 788600,-0.864990234375,-0.046875,-0.534423828125,-23.780488967895508,-22.530488967895508,7.439024448394775,18.899999618530273,-17.100000381469727,7.199999809265137,37.96468734741211,0,
 788610,-0.708251953125,-0.137939453125,-0.683837890625,4.115853786468506,27.042682647705078,-4.634146213531494,19.649999618530273,-17.549999237060547,7.949999809265137,38.15637969970703,0,
 788620,-0.605712890625,-0.222412109375,-0.6865234375,11.37195110321045,26.981708526611328,-8.079268455505371,19.649999618530273,-17.549999237060547,7.949999809265137,38.06053161621094,0,
 788630,-0.617919921875,-0.253173828125,-0.773193359375,4.908536911010742,20.18292808532715,-4.603658676147461,20.100000381469727,-17.700000762939453,6.300000190734863,37.77299499511719,0,
 788740,-0.667236328125,-0.16357421875,-0.75732421875,1.0670732259750366,-2.865853786468506,-0.24390244483947754,19.649999618530273,-16.350000381469727,7.949999809265137,38.108455657958984,0,
 788750,-0.671875,-0.14599609375,-0.737548828125,-1.3414634466171265,-4.481707572937012,-0.060975611209869385,18.450000762939453,-17.549999237060547,4.199999809265137,38.108455657958984,0,
 788760,-0.645751953125,-0.15869140625,-0.7333984375,-0.7621951103210449,-3.353658676147461,0.15243902802467346,18.450000762939453,-17.549999237060547,4.199999809265137,37.91676330566406,0,
 788770,-0.667236328125,-0.16748046875,-0.753662109375,0.030487805604934692,-4.329268455505371,0.3048780560493469,19.350000381469727,-16.200000762939453,8.25,38.06053161621094,0,
 788780,-0.65087890625,-0.142333984375,-0.733154296875,-2.4390244483947754,-3.3231709003448486,-0.060975611209869385,19.649999618530273,-16.799999237060547,6.900000095367432,37.77299499511719,0,
 788790,-0.638427734375,-0.151123046875,-0.78515625,1.1280487775802612,-5.0,-0.396341472864151,18.450000762939453,-16.799999237060547,7.199999809265137,37.77299499511719,0,
 788800,-0.647216796875,-0.1044921875,-0.821044921875,-1.0365853309631348,-9.329268455505371,-1.097561001777649,18.450000762939453,-16.799999237060547,7.199999809265137,37.96468734741211,0,
 788810,-0.63623046875,-0.1259765625,-0.80615234375,2.987804889678955,-10.091464042663574,-2.4695122241973877,19.049999237060547,-16.950000762939453,7.050000190734863,37.77299499511719,0,
 788820,-0.66015625,-0.109375,-0.774169921875,1.5243902206420898,-15.335366249084473,-4.603658676147461,19.049999237060547,-16.5,7.800000190734863,37.96468734741211,0,
 788830,-0.66650390625,-0.1708984375,-0.797119140625,7.560975551605225,-15.609756469726562,-6.189024448394775,19.049999237060547,-16.950000762939453,7.5,37.91676330566406,0,
 788840,-0.646240234375,-0.167236328125,-0.786376953125,4.02439022064209,-16.4939022064209,-6.432927131652832,18.600000381469727,-16.950000762939453,8.550000190734863,37.72507095336914,0,
 788850,-0.688720703125,-0.219970703125,-0.77001953125,6.310975551605225,-20.670732498168945,-5.884146690368652,18.600000381469727,-16.950000762939453,8.550000190734863,37.72507095336914,0,
 788860,-0.634521484375,-0.133056640625,-0.792236328125,6.006097793579102,-28.59756088256836,-5.243902683258057,20.399999618530273,-15.899999618530273,6.449999809265137,38.06053161621094,0,
 788870,-0.67919921875,-0.201416015625,-0.786376953125,-1.0365853309631348,-27.68292808532715,-6.79878044128418,19.799999237060547,-15.300000190734863,6.75,37.91676330566406,0,
 788880,-0.703857421875,-0.162353515625,-0.796875,5.792683124542236,-28.75,-7.042683124542236,19.649999618530273,-16.799999237060547,6.449999809265137,38.06053161621094,0,
 788890,-0.712158203125,-0.21484375,-0.775390625,4.756097793579102,-30.48780632019043,-7.103658676147461,19.649999618530273,-16.799999237060547,6.449999809265137,38.06053161621094,0,
 788900,-0.717529296875,-0.22216796875,-0.781005859375,7.652439117431641,-31.676830291748047,-6.280488014221191,19.350000381469727,-16.200000762939453,6.0,37.91676330566406,0,
 788910,-0.732666015625,-0.260009765625,-0.7958984375,12.286585807800293,-30.975610733032227,-4.939024448394775,19.950000762939453,-17.100000381469727,6.900000095367432,37.77299499511719,0,
 788920,-0.76953125,-0.271728515625,-0.824462890625,24.420732498168945,-33.38414764404297,-7.378048896789551,18.600000381469727,-15.75,7.050000190734863,37.533382415771484,0,
 788930,-0.94775390625,-0.3330078125,-0.731201171875,19.969512939453125,-30.731708526611328,-20.731708526611328,20.549999237060547,-15.0,5.25,38.108455657958984,0,
 788950,-1.195068359375,-0.2509765625,-0.119384765625,6.067073345184326,-33.719512939453125,-60.213417053222656,21.0,-12.149999618530273,1.5,38.06053161621094,0,
 788960,-1.852783203125,-0.2548828125,-0.012939453125,-134.57318115234375,-49.26829528808594,-75.9756088256836,19.049999237060547,-15.0,5.25,37.91676330566406,0,
 788970,-2.942626953125,0.079345703125,-0.69140625,79.45121765136719,49.20731735229492,-130.7926788330078,19.049999237060547,-14.550000190734863,5.25,37.77299499511719,0,
 788980,-2.552978515625,-0.906982421875,0.138671875,93.07926940917969,269.05487060546875,-98.01829528808594,19.049999237060547,-14.550000190734863,5.25,37.868839263916016,0,
 788990,-1.24072265625,-1.05908203125,-0.286376953125,-131.7073211669922,139.4512176513672,-69.69512176513672,15.899999618530273,-11.399999618530273,6.0,37.91676330566406,0,
 789000,-1.280517578125,-0.885498046875,-0.441650390625,-300.45733642578125,24.93902587890625,75.88414764404297,14.25,-11.25,5.699999809265137,38.25222396850586,0,
 789010,-1.51611328125,0.321044921875,0.218994140625,-336.2804870605469,81.79878234863281,79.26829528808594,16.5,-13.199999809265137,7.650000095367432,37.96468734741211,0,
 789020,-0.570068359375,0.878173828125,0.425537109375,-149.96951293945312,181.18902587890625,45.121952056884766,15.0,-13.649999618530273,7.650000095367432,37.72507095336914,0,
 789030,0.03076171875,0.348388671875,-0.134033203125,85.18292999267578,145.1829376220703,84.35975646972656,15.0,-13.649999618530273,7.650000095367432,38.06053161621094,0,
 789040,0.2900390625,0.001220703125,-0.138427734375,81.95121765136719,31.0060977935791,105.79268646240234,13.800000190734863,-15.600000381469727,9.449999809265137,38.108455657958984,0,
 789050,0.68603515625,0.265380859375,0.41357421875,-66.73780822753906,-69.75609588623047,112.68292999267578,9.600000381469727,-14.850000381469727,8.699999809265137,37.91676330566406,0,
 789060,1.031005859375,0.5859375,0.855712890625,-91.58536529541016,-129.60366821289062,115.18292999267578,9.600000381469727,-17.549999237060547,7.650000095367432,38.25222396850586,0,
 789080,0.01123046875,-0.01513671875,-0.6826171875,272.43902587890625,-347.3780517578125,89.05487823486328,12.300000190734863,-19.5,7.650000095367432,38.108455657958984,0,
