timestamp,accl_x,accl_y,accl_z,gyro_x,gyro_y,gyro_z,mag_x,mag_y,mag_z,temp,emg,
 690849,-0.24609375,-0.210205078125,-0.963623046875,-1.6768293380737305,5.884146690368652,-0.8841463327407837,-4.5,-48.599998474121094,-9.0,38.06053161621094,0,
 690859,-0.225341796875,-0.207275390625,-0.96240234375,-1.6463414430618286,4.512195110321045,0.0,-6.300000190734863,-47.70000076293945,-4.949999809265137,38.06053161621094,0,
 690869,-0.23681640625,-0.208251953125,-0.974853515625,0.3048780560493469,2.7439024448394775,-0.9451219439506531,-7.199999809265137,-50.25,-6.300000190734863,38.25222396850586,0,
 690879,-0.317138671875,-0.2158203125,-0.994140625,0.6402438879013062,4.756097793579102,-1.2195122241973877,-7.199999809265137,-50.25,-6.300000190734863,38.25222396850586,0,
 690889,-0.32958984375,-0.23193359375,-1.00048828125,-1.4634146690368652,8.109756469726562,-1.097561001777649,-5.849999904632568,-48.45000076293945,-6.900000095367432,38.25222396850586,0,
 690899,-0.32177734375,-0.219970703125,-0.998046875,-1.9817073345184326,10.182927131652832,-1.1890244483947754,-5.099999904632568,-49.20000076293945,-5.400000095367432,37.868839263916016,0,
 690909,-0.293212890625,-0.222900390625,-0.992431640625,-2.7439024448394775,11.463415145874023,-1.3719512224197388,-6.599999904632568,-48.45000076293945,-4.949999809265137,38.25222396850586,0,
 690919,-0.2548828125,-0.2109375,-0.9833984375,-2.195122003555298,11.067073822021484,-0.9756097793579102,-6.599999904632568,-48.45000076293945,-4.949999809265137,38.395992279052734,0,
 690929,-0.234375,-0.207763671875,-0.968017578125,-2.5609755516052246,10.243902206420898,-1.2195122241973877,-7.349999904632568,-48.45000076293945,-5.699999809265137,38.44391632080078,0,
 690939,-0.199462890625,-0.193603515625,-0.960205078125,-2.7439024448394775,8.384146690368652,-0.8536585569381714,-7.349999904632568,-47.70000076293945,-7.199999809265137,38.108455657958984,0,
 690949,-0.193115234375,-0.22021484375,-0.954345703125,-0.7317073345184326,6.036585330963135,-0.3048780560493469,-4.949999809265137,-48.29999923706055,-7.5,38.15637969970703,0,
 690959,-0.1923828125,-0.203857421875,-0.965087890625,-2.5304877758026123,4.2682929039001465,0.3353658616542816,-7.949999809265137,-47.849998474121094,-6.0,38.108455657958984,0,
 690969,-0.220703125,-0.212646484375,-0.975830078125,-1.3109756708145142,1.920731782913208,0.6707317233085632,-7.949999809265137,-47.849998474121094,-6.0,38.15637969970703,0,
 690979,-0.287353515625,-0.210693359375,-0.99853515625,-0.21341463923454285,0.21341463923454285,0.3353658616542816,-7.050000190734863,-49.650001525878906,-6.150000095367432,38.15637969970703,0,
 690989,-0.298828125,-0.23095703125,-0.989501953125,0.8536585569381714,1.920731782913208,-0.3048780560493469,-6.75,-47.099998474121094,-6.75,38.300148010253906,0,
 690999,-0.297119140625,-0.216064453125,-1.004150390625,-0.9756097793579102,4.542683124542236,-0.3353658616542816,-6.300000190734863,-49.20000076293945,-4.199999809265137,37.77299499511719,0,
 691009,-0.28857421875,-0.206787109375,-0.993896484375,-0.6707317233085632,6.219512462615967,-0.792682945728302,-6.300000190734863,-49.20000076293945,-4.199999809265137,37.96468734741211,0,
 691019,-0.252197265625,-0.205322265625,-0.988037109375,-1.7987805604934692,8.079268455505371,-0.8841463327407837,-6.449999809265137,-47.849998474121094,-5.25,38.108455657958984,0,
 691029,-0.230224609375,-0.203125,-0.981201171875,-1.3719512224197388,7.256097793579102,-0.4573170840740204,-7.050000190734863,-48.45000076293945,-4.949999809265137,38.25222396850586,0,
 691039,-0.1982421875,-0.202880859375,-0.971923828125,-0.8536585569381714,6.8597564697265625,-0.7012194991111755,-8.550000190734863,-48.45000076293945,-5.400000095367432,38.300148010253906,0,
 691049,-0.1982421875,-0.20068359375,-0.95947265625,-0.5792682766914368,4.756097793579102,-0.3658536672592163,-8.550000190734863,-48.45000076293945,-5.400000095367432,38.06053161621094,0,
 691059,-0.196044921875,-0.2080078125,-0.96337890625,0.6402438879013062,3.079268455505371,0.030487805604934692,-7.349999904632568,-49.20000076293945,-4.199999809265137,38.300148010253906,0,
 691069,-0.192626953125,-0.208740234375,-0.970947265625,-0.5792682766914368,1.3414634466171265,0.396341472864151,-6.75,-48.599998474121094,-6.300000190734863,38.395992279052734,0,
 691079,-0.2412109375,-0.211181640625,-0.98193359375,0.5487805008888245,-1.1280487775802612,0.9146341681480408,-8.100000381469727,-49.650001525878906,-5.400000095367432,38.395992279052734,0,
 691089,-0.3037109375,-0.22412109375,-0.992431640625,1.3109756708145142,-1.3414634466171265,0.12195122241973877,-7.949999809265137,-49.04999923706055,-5.550000190734863,38.06053161621094,0,
 691099,-0.299072265625,-0.223876953125,-1.00537109375,0.8841463327407837,1.5243902206420898,-0.21341463923454285,-7.949999809265137,-49.04999923706055,-5.550000190734863,38.25222396850586,0,
 691109,-0.31103515625,-0.213623046875,-1.01123046875,-0.3658536672592163,3.4146342277526855,-0.7317073345184326,-7.5,-49.5,-6.75,38.25222396850586,0,
 691119,-0.292724609375,-0.221435546875,-0.99658203125,-0.5792682766914368,6.128048896789551,-0.7621951103210449,-7.349999904632568,-49.20000076293945,-4.650000095367432,38.395992279052734,0,
 691129,-0.259765625,-0.21728515625,-0.9931640625,-1.4634146690368652,8.353658676147461,-0.5182926654815674,-6.599999904632568,-48.900001525878906,-6.449999809265137,38.44391632080078,0,
 691139,-0.23095703125,-0.20947265625,-0.983154296875,-0.8841463327407837,8.292682647705078,-0.6402438879013062,-6.599999904632568,-48.900001525878906,-6.449999809265137,38.25222396850586,0,
 691149,-0.209716796875,-0.20654296875,-0.96923828125,-1.920731782913208,8.140244483947754,-0.8536585569381714,-7.050000190734863,-48.45000076293945,-5.699999809265137,38.06053161621094,0,
 691159,-0.1884765625,-0.21240234375,-0.958984375,-0.7317073345184326,6.371951580047607,-0.7012194991111755,-8.100000381469727,-49.20000076293945,-5.400000095367432,38.15637969970703,0,
 691169,-0.16455078125,-0.21240234375,-0.966796875,-1.402438998222351,4.878048896789551,-0.3658536672592163,-7.5,-47.849998474121094,-4.800000190734863,38.25222396850586,0,
 691179,-0.156982421875,-0.19873046875,-0.95556640625,-2.103658676147461,2.1341464519500732,0.12195122241973877,-6.599999904632568,-47.25,-5.699999809265137,38.395992279052734,0,
 691189,-0.188720703125,-0.201904296875,-0.962158203125,-0.4878048896789551,-1.097561001777649,0.5182926654815674,-6.599999904632568,-47.25,-5.699999809265137,38.25222396850586,0,
 691199,-0.214111328125,-0.21240234375,-0.97216796875,0.4573170840740204,-3.5365853309631348,0.3353658616542816,-7.949999809265137,-49.04999923706055,-6.0,38.108455657958984,0,
 691259,-0.254150390625,-0.2109375,-0.987060546875,-1.1280487775802612,4.512195110321045,-0.3048780560493469,-6.0,-49.5,-9.0,38.395992279052734,0,
 691269,-0.233154296875,-0.208251953125,-0.984375,-0.8536585569381714,3.841463565826416,-0.3353658616542816,-6.599999904632568,-48.900001525878906,-5.699999809265137,38.300148010253906,0,
 691279,-0.2216796875,-0.205810546875,-0.978271484375,-0.6097561120986938,3.2926828861236572,-0.030487805604934692,-6.599999904632568,-48.900001525878906,-5.699999809265137,38.395992279052734,0,
 691289,-0.208251953125,-0.213623046875,-0.972900390625,-1.3109756708145142,2.103658676147461,0.3048780560493469,-7.349999904632568,-48.900001525878906,-4.199999809265137,37.96468734741211,0,
 691299,-0.19140625,-0.20751953125,-0.963623046875,-0.8536585569381714,0.5792682766914368,0.5182926654815674,-7.199999809265137,-47.400001525878906,-5.25,38.15637969970703,0,
 691309,-0.188232421875,-0.212890625,-0.96923828125,-0.21341463923454285,-1.402438998222351,0.396341472864151,-7.349999904632568,-48.45000076293945,-5.400000095367432,38.06053161621094,0,
 691319,-0.211669921875,-0.213134765625,-0.9755859375,-0.3353658616542816,-2.408536672592163,0.4573170840740204,-7.349999904632568,-48.45000076293945,-5.400000095367432,38.25222396850586,0,
 691329,-0.229248046875,-0.211669921875,-0.976318359375,-0.792682945728302,-2.77439022064209,0.27439025044441223,-6.0,-47.400001525878906,-5.550000190734863,38.395992279052734,0,
 691339,-0.26708984375,-0.20947265625,-0.993408203125,0.396341472864151,-1.402438998222351,0.18292683362960815,-5.699999809265137,-48.599998474121094,-5.25,37.868839263916016,0,
 691349,-0.278076171875,-0.216552734375,-0.995849609375,-1.1280487775802612,0.4268292784690857,0.12195122241973877,-8.100000381469727,-48.900001525878906,-4.949999809265137,38.25222396850586,0,
 691359,-0.27001953125,-0.203125,-1.00732421875,-0.15243902802467346,1.2195122241973877,0.3658536672592163,-5.25,-48.29999923706055,-9.0,38.15637969970703,0,
 691369,-0.262939453125,-0.213134765625,-0.99951171875,-1.1890244483947754,2.2865853309631348,0.3353658616542816,-5.25,-48.29999923706055,-9.0,38.300148010253906,0,
 691379,-0.265625,-0.21240234375,-0.998779296875,-0.6707317233085632,3.2012195587158203,0.3658536672592163,-7.949999809265137,-47.849998474121094,-5.550000190734863,38.108455657958984,0,
 691389,-0.2392578125,-0.215087890625,-0.986328125,-1.0365853309631348,3.4146342277526855,-0.060975611209869385,-8.550000190734863,-47.25,-3.9000000953674316,38.06053161621094,0,
 691399,-0.22900390625,-0.211181640625,-0.9833984375,-0.8231707215309143,2.2560975551605225,0.27439025044441223,-6.0,-49.5,-5.25,38.108455657958984,0,
 691409,-0.22705078125,-0.20947265625,-0.9833984375,-0.3353658616542816,2.1646342277526855,0.0,-6.0,-49.5,-5.25,38.25222396850586,0,
 691419,-0.23779296875,-0.20751953125,-0.986083984375,-0.7317073345184326,1.7987805604934692,-0.030487805604934692,-7.949999809265137,-47.099998474121094,-5.550000190734863,38.395992279052734,0,
 691429,-0.237548828125,-0.224853515625,-0.98779296875,0.3048780560493469,2.2560975551605225,-0.18292683362960815,-6.599999904632568,-48.45000076293945,-4.199999809265137,38.06053161621094,0,
 691469,-0.25048828125,-0.2138671875,-0.98828125,-0.4573170840740204,1.920731782913208,-0.09146341681480408,-7.199999809265137,-49.5,-5.550000190734863,38.395992279052734,0,
 691479,-0.26416015625,-0.2138671875,-0.99658203125,-0.3048780560493469,2.4390244483947754,-0.09146341681480408,-6.75,-48.599998474121094,-4.5,38.44391632080078,0,
 691489,-0.259765625,-0.22216796875,-0.993408203125,-0.4878048896789551,4.02439022064209,-0.12195122241973877,-8.399999618530273,-49.04999923706055,-4.800000190734863,38.25222396850586,0,
 691499,-0.2568359375,-0.218994140625,-1.0009765625,-0.6402438879013062,4.6646342277526855,-0.27439025044441223,-8.399999618530273,-49.04999923706055,-4.800000190734863,38.15637969970703,0,
 691509,-0.25390625,-0.21630859375,-0.994384765625,-0.7317073345184326,5.4268293380737305,-0.030487805604934692,-7.800000190734863,-48.45000076293945,-3.9000000953674316,38.395992279052734,0,
 691519,-0.23681640625,-0.217041015625,-0.98828125,-1.1585365533828735,6.432927131652832,-0.4268292784690857,-6.599999904632568,-47.25,-6.900000095367432,38.395992279052734,0,
 691529,-0.22900390625,-0.220947265625,-0.98876953125,-0.09146341681480408,6.097560882568359,-1.1890244483947754,-7.949999809265137,-48.599998474121094,-5.550000190734863,38.25222396850586,0,
 691539,-0.224853515625,-0.209716796875,-1.000732421875,-1.920731782913208,6.036585330963135,-1.3109756708145142,-5.400000095367432,-48.45000076293945,-4.199999809265137,38.15637969970703,0,
 691549,-0.2412109375,-0.20166015625,-0.98779296875,-1.4939024448394775,5.609755992889404,-1.0365853309631348,-8.399999618530273,-48.29999923706055,-6.0,38.06053161621094,0,
 691559,-0.244384765625,-0.205322265625,-0.995361328125,-0.6097561120986938,6.52439022064209,-0.9756097793579102,-7.199999809265137,-48.599998474121094,-4.5,37.96468734741211,0,
 691569,-0.249755859375,-0.211181640625,-0.994873046875,0.4268292784690857,6.829268455505371,-1.1585365533828735,-7.050000190734863,-50.400001525878906,-7.650000095367432,38.25222396850586,0,
 691579,-0.23388671875,-0.203369140625,-0.986328125,-1.2804877758026123,8.506097793579102,-0.8536585569381714,-7.199999809265137,-48.29999923706055,-6.75,38.395992279052734,0,
 691589,-0.225830078125,-0.21044921875,-0.989013671875,-0.6402438879013062,8.384146690368652,-0.9146341681480408,-7.199999809265137,-48.29999923706055,-6.75,38.108455657958984,0,
 691599,-0.22802734375,-0.208740234375,-0.993408203125,-0.8231707215309143,8.170731544494629,-0.792682945728302,-7.5,-49.04999923706055,-4.800000190734863,38.25222396850586,0,
 691609,-0.217529296875,-0.214111328125,-0.987548828125,-0.4573170840740204,8.32317066192627,-1.2804877758026123,-6.599999904632568,-48.45000076293945,-4.949999809265137,38.395992279052734,0,
 691619,-0.226318359375,-0.210693359375,-0.994140625,-0.396341472864151,8.04878044128418,-1.432926893234253,-7.5,-47.849998474121094,-7.050000190734863,38.06053161621094,0,
 691629,-0.23095703125,-0.214111328125,-0.991455078125,-0.5792682766914368,8.292682647705078,-1.3109756708145142,-7.5,-47.849998474121094,-7.050000190734863,38.300148010253906,0,
 691639,-0.222412109375,-0.21240234375,-0.99462890625,0.0,9.359756469726562,-1.3109756708145142,-9.300000190734863,-48.900001525878906,-4.199999809265137,38.108455657958984,0,
 691649,-0.3056640625,-0.2001953125,-1.02783203125,-0.060975611209869385,8.384146690368652,-2.1341464519500732,-8.100000381469727,-47.25,-5.699999809265137,38.25222396850586,0,
 691659,-0.3310546875,-0.239013671875,-1.017578125,3.445122003555298,11.981707572937012,-2.7439024448394775,-5.849999904632568,-47.25,-5.699999809265137,38.395992279052734,0,
 691669,-0.27685546875,-0.23095703125,-1.018798828125,-0.6707317233085632,17.68292808532715,-3.445122003555298,-7.199999809265137,-51.0,-6.300000190734863,38.108455657958984,0,
 691680,-0.263427734375,-0.218017578125,-1.0341796875,-0.4573170840740204,19.29878044128418,-3.445122003555298,-7.199999809265137,-51.0,-6.300000190734863,38.108455657958984,0,
 691690,-0.278076171875,-0.224365234375,-1.013427734375,0.0,23.780488967895508,-4.512195110321045,-8.850000381469727,-47.70000076293945,-4.650000095367432,38.300148010253906,0,
 691700,-0.24853515625,-0.225830078125,-1.009521484375,-1.0670732259750366,25.792682647705078,-4.847560882568359,-6.75,-47.849998474121094,-4.800000190734863,38.25222396850586,0,
 691710,-0.202392578125,-0.226806640625,-0.997314453125,-2.2865853309631348,26.128049850463867,-4.5731706619262695,-8.100000381469727,-48.45000076293945,-4.199999809265137,38.15637969970703,0,
 691720,-0.15234375,-0.205810546875,-0.9775390625,-0.9451219439506531,24.05487823486328,-4.756097793579102,-8.100000381469727,-48.45000076293945,-4.199999809265137,38.25222396850586,0,
 691730,-0.164306640625,-0.2119140625,-0.982421875,-0.3658536672592163,22.83536720275879,-4.908536911010742,-7.050000190734863,-47.25,-4.949999809265137,38.06053161621094,0,
 691740,-0.18408203125,-0.199462890625,-0.99169921875,1.1585365533828735,22.65243911743164,-4.5731706619262695,-7.349999904632568,-47.25,-4.949999809265137,38.25222396850586,0,
 691750,-0.24169921875,-0.2001953125,-1.03955078125,7.530488014221191,21.43292808532715,-7.530488014221191,-7.050000190734863,-47.70000076293945,-3.9000000953674316,38.25222396850586,0,
 691760,-0.39892578125,-0.21044921875,-1.086669921875,9.17682933807373,32.13414764404297,-8.719511985778809,-8.100000381469727,-48.0,-4.949999809265137,38.108455657958984,0,
 691770,-0.370361328125,-0.253173828125,-1.0439453125,2.4390244483947754,40.7621955871582,-8.567073822021484,-8.100000381469727,-48.0,-4.949999809265137,38.25222396850586,0,
 691780,-0.297607421875,-0.211181640625,-1.085205078125,4.6646342277526855,42.621952056884766,-9.512195587158203,-7.199999809265137,-47.400001525878906,-3.299999952316284,37.96468734741211,0,
 691790,-0.306640625,-0.201904296875,-1.098876953125,6.097560882568359,48.20122146606445,-9.84756088256836,-7.5,-47.400001525878906,-4.800000190734863,38.108455657958984,0,
 691800,-0.256591796875,-0.193603515625,-1.041015625,9.481707572937012,49.756099700927734,-9.603658676147461,-7.349999904632568,-47.25,-3.1500000953674316,38.300148010253906,0,
 691810,-0.151123046875,-0.18505859375,-1.01123046875,11.189024925231934,47.317073822021484,-8.963415145874023,-7.349999904632568,-47.25,-3.1500000953674316,38.108455657958984,0,
 691820,-0.08447265625,-0.212890625,-0.99853515625,11.829268455505371,43.23170852661133,-6.7682929039001465,-7.800000190734863,-48.45000076293945,-4.650000095367432,38.15637969970703,0,
 691830,-0.0751953125,-0.1953125,-0.98388671875,19.237804412841797,39.78658676147461,-5.457317352294922,-7.349999904632568,-47.25,-3.450000047683716,38.15637969970703,0,
 691840,-0.11962890625,-0.20068359375,-1.0068359375,23.93292808532715,40.121952056884766,-7.5,-7.050000190734863,-48.0,-4.650000095367432,38.25222396850586,0,
 691850,-0.211181640625,-0.216064453125,-1.03662109375,27.225610733032227,46.067073822021484,-9.054878234863281,-7.949999809265137,-47.400001525878906,-4.5,38.108455657958984,0,
 691860,-0.27197265625,-0.2451171875,-1.115234375,29.14634132385254,49.78658676147461,-12.835366249084473,-7.949999809265137,-47.400001525878906,-4.5,38.108455657958984,0,
 691870,-0.2412109375,-0.255126953125,-1.0556640625,31.95121955871582,54.908538818359375,-13.932927131652832,-9.149999618530273,-45.45000076293945,-5.25,38.06053161621094,0,
 691880,0.048828125,-0.26171875,-0.9208984375,24.359756469726562,61.85975646972656,-12.37804889678955,-10.050000190734863,-48.45000076293945,-4.650000095367432,37.91676330566406,0,
 691890,0.150390625,-0.224365234375,-0.904541015625,15.97560977935791,51.158538818359375,-8.810976028442383,-8.850000381469727,-46.5,-3.9000000953674316,38.25222396850586,0,
 691900,0.26025390625,-0.18603515625,-0.8251953125,18.780488967895508,44.63414764404297,-3.4146342277526855,-8.850000381469727,-46.5,-3.9000000953674316,38.25222396850586,0,
 691910,0.2353515625,-0.21337890625,-0.814453125,22.317073822021484,35.15243911743164,0.6707317233085632,-9.899999618530273,-46.650001525878906,-2.549999952316284,38.25222396850586,0,
 691920,0.2255859375,-0.2548828125,-0.787841796875,24.7560977935791,26.25,1.0060975551605225,-9.149999618530273,-45.150001525878906,-3.299999952316284,38.25222396850586,0,
 691930,0.18359375,-0.308837890625,-0.800048828125,17.7439022064209,20.975610733032227,0.4878048896789551,-8.699999809265137,-45.45000076293945,-2.25,38.108455657958984,0,
 691980,0.11083984375,-0.23388671875,-0.904052734375,-10.945121765136719,-23.9939022064209,7.957317352294922,-9.899999618530273,-45.45000076293945,-4.050000190734863,38.06053161621094,0,
 691990,0.13330078125,-0.255859375,-0.834716796875,-13.231707572937012,-24.207317352294922,4.908536911010742,-9.899999618530273,-45.45000076293945,-4.050000190734863,37.96468734741211,0,
 692000,0.304443359375,-0.299560546875,-0.783935546875,-18.04878044128418,-28.567073822021484,7.560975551605225,-9.149999618530273,-45.45000076293945,-1.7999999523162842,38.15637969970703,0,
 692010,0.564453125,-0.244873046875,-0.668212890625,-35.57926940917969,-37.530487060546875,16.890243530273438,-9.149999618530273,-45.900001525878906,-4.050000190734863,38.25222396850586,0,
 692020,0.798095703125,-0.19091796875,-0.5302734375,-59.17683029174805,-49.603660583496094,29.45121955871582,-9.149999618530273,-45.45000076293945,-3.299999952316284,38.06053161621094,0,
 692030,0.8837890625,-0.10546875,-0.453125,-65.30487823486328,-74.0243911743164,39.2378044128418,-9.600000381469727,-47.25,-3.9000000953674316,38.06053161621094,0,
 692040,0.753662109375,-0.145751953125,-0.5263671875,-69.17683410644531,-107.07317352294922,37.5,-9.600000381469727,-47.25,-3.9000000953674316,38.44391632080078,0,
 692050,0.6025390625,-0.237060546875,-0.5673828125,-40.73170852661133,-144.02439880371094,43.23170852661133,-8.699999809265137,-46.20000076293945,-4.5,38.25222396850586,0,
 692060,0.5654296875,-0.101806640625,-0.57861328125,-52.80487823486328,-180.1219482421875,49.48170852661133,-8.699999809265137,-48.599998474121094,-4.5,38.108455657958984,0,
 692070,0.562744140625,0.09326171875,-0.72216796875,-53.59756088256836,-212.31707763671875,44.26829528808594,-7.349999904632568,-48.0,-4.650000095367432,38.25222396850586,0,
 692080,0.251220703125,0.21484375,-0.7763671875,-31.310976028442383,-264.20733642578125,30.365854263305664,-7.349999904632568,-48.0,-4.650000095367432,37.91676330566406,0,
 692090,-0.00341796875,0.169189453125,-0.78125,7.256097793579102,-296.5853576660156,28.9939022064209,-7.199999809265137,-49.5,-6.75,38.395992279052734,0,
 692100,-0.66455078125,-0.426513671875,-1.55712890625,72.16463470458984,-330.7926940917969,20.0,-5.699999809265137,-49.79999923706055,-7.050000190734863,38.44391632080078,0,
 692110,-3.86572265625,-0.6298828125,-2.80908203125,150.0,-473.1707458496094,-1.1280487775802612,-4.949999809265137,-49.79999923706055,-6.300000190734863,37.91676330566406,0,
 692120,-4.882080078125,-2.39208984375,0.05078125,227.256103515625,-448.6280517578125,-52.13414764404297,-4.949999809265137,-49.79999923706055,-6.300000190734863,38.108455657958984,0,
 692130,-2.3076171875,0.4052734375,-1.755126953125,-174.26829528808594,181.34146118164062,37.34756088256836,-4.949999809265137,-50.70000076293945,-6.300000190734863,38.300148010253906,0,
 692140,-1.17236328125,-0.366455078125,0.651123046875,-197.5,210.85366821289062,42.07317352294922,-6.0,-49.79999923706055,-7.5,38.15637969970703,0,
 692150,-0.189208984375,0.102294921875,-0.097900390625,-185.94512939453125,239.0548858642578,19.725610733032227,-7.5,-49.04999923706055,-7.5,38.300148010253906,0,
 692280,-0.17578125,-0.122802734375,-0.965576171875,-29.84756088256836,48.2621955871582,-11.25,-5.699999809265137,-47.099998474121094,-6.0,38.25222396850586,0,
 692290,-0.116455078125,-0.024658203125,-0.99267578125,-25.731708526611328,46.40243911743164,-6.52439022064209,-6.75,-48.599998474121094,-4.5,38.108455657958984,0,
 692300,-0.047119140625,0.013671875,-0.968994140625,-1.2195122241973877,28.44512176513672,-1.1890244483947754,-6.75,-48.599998474121094,-4.5,38.300148010253906,0,
 692310,-0.148681640625,-0.22119140625,-0.951416015625,28.04878044128418,14.237805366516113,1.6768293380737305,-6.75,-49.5,-4.050000190734863,38.300148010253906,0,
 692320,-0.12548828125,-0.307373046875,-0.9365234375,25.731708526611328,13.140244483947754,5.3353657722473145,-6.0,-49.79999923706055,-4.050000190734863,38.108455657958984,0,
 692330,-0.228271484375,-0.350830078125,-0.966796875,21.58536720275879,9.115854263305664,2.9573171138763428,-7.949999809265137,-47.400001525878906,-5.25,38.15637969970703,0,
 692340,-0.28759765625,-0.416015625,-0.993896484375,14.207317352294922,15.396342277526855,-0.7621951103210449,-6.75,-49.5,-4.5,37.96468734741211,0,
 692350,-0.314697265625,-0.37255859375,-0.970703125,2.408536672592163,20.2439022064209,-6.463414669036865,-6.75,-49.5,-4.5,38.108455657958984,0,
 692360,-0.20166015625,-0.3154296875,-0.97216796875,-7.682927131652832,28.109756469726562,-7.713414669036865,-8.100000381469727,-49.20000076293945,-6.449999809265137,38.25222396850586,0,
 692370,-0.182373046875,-0.241455078125,-1.00927734375,-16.128049850463867,28.810976028442383,-7.439024448394775,-6.300000190734863,-48.0,-4.199999809265137,37.868839263916016,0,
 692380,-0.14453125,-0.17236328125,-0.989990234375,-18.170732498168945,28.658536911010742,-6.189024448394775,-7.199999809265137,-47.849998474121094,-4.800000190734863,38.395992279052734,0,
 692390,-0.076171875,-0.128662109375,-0.969970703125,-14.969512939453125,26.676830291748047,-3.8109757900238037,-7.199999809265137,-47.849998474121094,-4.800000190734863,38.300148010253906,0,
 692400,-0.0224609375,-0.119384765625,-0.9521484375,-7.1646342277526855,19.45121955871582,-2.0426828861236572,-8.550000190734863,-47.70000076293945,-4.199999809265137,37.96468734741211,0,
 692410,-0.02734375,-0.13525390625,-0.940185546875,-1.6463414430618286,12.469512939453125,0.09146341681480408,-6.75,-48.29999923706055,-4.800000190734863,38.15637969970703,0,
 692420,-0.017822265625,-0.1708984375,-0.935546875,0.5182926654815674,8.506097793579102,1.1890244483947754,-7.949999809265137,-47.099998474121094,-4.800000190734863,38.06053161621094,0,
 692430,-0.0849609375,-0.19189453125,-0.962890625,4.481707572937012,0.5182926654815674,1.432926893234253,-6.300000190734863,-47.25,-3.9000000953674316,38.15637969970703,0,
 692440,-0.15478515625,-0.248779296875,-0.990966796875,9.481707572937012,-4.481707572937012,1.2804877758026123,-6.300000190734863,-47.25,-3.9000000953674316,38.395992279052734,0,
 692450,-0.3759765625,-0.22607421875,-1.087890625,11.585366249084473,-7.317073345184326,-1.2195122241973877,-7.349999904632568,-48.45000076293945,-4.949999809265137,38.25222396850586,0,
 692460,-0.409423828125,-0.32666015625,-1.0458984375,21.859756469726562,-1.5243902206420898,-4.054878234863281,-7.199999809265137,-49.04999923706055,-2.549999952316284,38.06053161621094,0,
 692470,-0.3603515625,-0.285888671875,-1.07080078125,4.481707572937012,14.329268455505371,-3.9634146690368652,-5.400000095367432,-50.099998474121094,-2.700000047683716,38.06053161621094,0,
 692481,-0.32373046875,-0.26611328125,-1.070068359375,-2.012195110321045,24.176830291748047,-4.542683124542236,-5.400000095367432,-50.099998474121094,-2.700000047683716,38.300148010253906,0,
 692491,-0.26513671875,-0.25830078125,-1.024658203125,-3.3231709003448486,28.719512939453125,-4.359755992889404,-5.699999809265137,-49.5,-7.5,38.25222396850586,0,
 692501,-0.16455078125,-0.212646484375,-1.013427734375,-9.115854263305664,35.853660583496094,-3.4146342277526855,-5.699999809265137,-49.04999923706055,-4.800000190734863,38.15637969970703,0,
 692511,-0.1396484375,-0.19384765625,-0.994873046875,-5.4268293380737305,31.768293380737305,-3.932926893234253,-5.400000095367432,-48.900001525878906,-4.199999809265137,38.395992279052734,0,
 692521,-0.078857421875,-0.22021484375,-0.95263671875,-0.030487805604934692,28.170732498168945,-3.170731782913208,-7.199999809265137,-47.400001525878906,-4.050000190734863,38.06053161621094,0,
 692531,-0.0546875,-0.202392578125,-0.977783203125,-0.9451219439506531,25.518293380737305,-2.0426828861236572,-6.0,-47.849998474121094,-4.050000190734863,38.25222396850586,0,
 692541,-0.170654296875,-0.205810546875,-1.02490234375,3.9939024448394775,19.63414764404297,-2.804877996444702,-6.300000190734863,-48.45000076293945,-3.1500000953674316,38.15637969970703,0,
 692551,-0.256103515625,-0.269775390625,-1.02783203125,11.585366249084473,19.7560977935791,-5.213414669036865,-7.050000190734863,-47.70000076293945,-5.699999809265137,38.395992279052734,0,
 692561,-0.283935546875,-0.260009765625,-1.1015625,7.408536911010742,29.481708526611328,-6.79878044128418,-7.199999809265137,-47.849998474121094,-4.5,38.25222396850586,0,
 692571,-0.3935546875,-0.242431640625,-1.14697265625,11.554878234863281,30.09146499633789,-9.481707572937012,-7.199999809265137,-47.849998474121094,-4.5,37.96468734741211,0,
 692581,-0.513916015625,-0.274658203125,-1.18701171875,23.35365867614746,34.878047943115234,-13.689024925231934,-7.199999809265137,-48.599998474121094,-3.75,38.25222396850586,0,
 692591,-0.625732421875,-0.256103515625,-1.2744140625,26.128049850463867,50.57926940917969,-17.957317352294922,-5.25,-48.29999923706055,-6.300000190734863,38.108455657958984,0,
 692601,-0.56884765625,-0.316162109375,-1.170654296875,12.256097793579102,86.70732116699219,-17.225610733032227,-7.349999904632568,-47.70000076293945,-1.9500000476837158,38.25222396850586,0,
 692611,-0.170654296875,-0.248291015625,-1.09765625,13.780488014221191,71.85975646972656,-10.945121765136719,-7.349999904632568,-47.70000076293945,-1.9500000476837158,38.06053161621094,0,
 692621,-0.092041015625,-0.1279296875,-1.035888671875,19.512195587158203,73.84146881103516,-6.7682929039001465,-8.399999618530273,-46.20000076293945,-3.0,38.06053161621094,0,
 692631,0.0771484375,-0.209228515625,-0.92822265625,15.914634704589844,65.79268646240234,-4.420732021331787,-9.149999618530273,-47.099998474121094,-2.25,38.15637969970703,0,
 692641,0.150634765625,-0.16259765625,-0.867919921875,26.707317352294922,56.7378044128418,-2.4695122241973877,-8.550000190734863,-47.25,-1.9500000476837158,38.25222396850586,0,
 692651,0.2578125,-0.190673828125,-0.8134765625,27.164634704589844,49.17683029174805,-3.0487804412841797,-7.949999809265137,-47.099998474121094,-2.25,38.25222396850586,0,
 692661,0.185791015625,-0.193115234375,-0.817138671875,43.47561264038086,44.69512176513672,-2.865853786468506,-7.949999809265137,-47.099998474121094,-2.25,38.06053161621094,0,
 692671,0.218994140625,-0.287841796875,-0.801513671875,32.774391174316406,38.68902587890625,-1.402438998222351,-9.899999618530273,-47.849998474121094,-3.0,38.300148010253906,0,
 692681,0.26171875,-0.308349609375,-0.8046875,25.0,31.0060977935791,-5.487804889678955,-9.449999809265137,-47.099998474121094,-2.549999952316284,38.44391632080078,0,
 692691,0.193115234375,-0.315185546875,-0.851806640625,22.28658676147461,27.560976028442383,-5.487804889678955,-8.550000190734863,-44.849998474121094,-2.4000000953674316,38.108455657958984,0,
 692701,0.18017578125,-0.326416015625,-0.834228515625,15.0,21.463415145874023,-5.487804889678955,-8.550000190734863,-44.849998474121094,-2.4000000953674316,38.395992279052734,0,
 692711,0.162353515625,-0.32373046875,-0.84375,11.341464042663574,18.04878044128418,-6.554878234863281,-8.850000381469727,-47.25,-1.649999976158142,37.96468734741211,0,
 692721,0.166748046875,-0.308837890625,-0.90478515625,7.682927131652832,10.487805366516113,-5.121951103210449,-8.699999809265137,-45.900001525878906,-1.7999999523162842,38.25222396850586,0,
 692731,0.16259765625,-0.29736328125,-0.882568359375,4.054878234863281,5.884146690368652,-5.152439117431641,-8.399999618530273,-46.650001525878906,-1.7999999523162842,38.25222396850586,0,
 692741,0.214111328125,-0.28955078125,-0.845458984375,-0.9146341681480408,-2.77439022064209,-2.2865853309631348,-10.050000190734863,-46.5,-0.44999998807907104,38.395992279052734,0,
 692751,0.258056640625,-0.302734375,-0.84033203125,-5.091463565826416,-13.140244483947754,7.347561359405518,-10.050000190734863,-46.5,-0.44999998807907104,38.25222396850586,0,
 692761,0.35400390625,-0.277099609375,-0.779052734375,-12.286585807800293,-21.371952056884766,9.786585807800293,-9.300000190734863,-46.04999923706055,-3.1500000953674316,37.868839263916016,0,
 692781,0.490234375,-0.279296875,-0.646240234375,-35.39634323120117,-35.67073440551758,18.475610733032227,-7.349999904632568,-46.5,-1.649999976158142,38.108455657958984,0,
 692791,0.768798828125,-0.2392578125,-0.503173828125,-58.99390411376953,-47.560977935791016,26.463415145874023,-7.349999904632568,-46.5,-1.649999976158142,38.25222396850586,0,
 692801,1.018798828125,-0.16259765625,-0.40625,-84.66463470458984,-69.11585235595703,37.378047943115234,-8.699999809265137,-48.599998474121094,-3.75,38.395992279052734,0,
 692811,0.963623046875,-0.09814453125,-0.4169921875,-88.29268646240234,-99.6036605834961,45.60975646972656,-8.100000381469727,-46.79999923706055,-2.700000047683716,37.96468734741211,0,
 692821,0.780029296875,-0.111572265625,-0.504150390625,-68.75,-142.9573211669922,42.13414764404297,-9.149999618530273,-47.400001525878906,-1.7999999523162842,38.25222396850586,0,
 692831,-0.400146484375,0.181884765625,-1.5712890625,-26.707317352294922,-179.0853729248047,31.49390411376953,-7.949999809265137,-47.099998474121094,-3.299999952316284,38.25222396850586,0,
 692841,-2.98095703125,0.327392578125,-2.14404296875,119.6036605834961,-267.68292236328125,-57.53049087524414,-7.949999809265137,-47.099998474121094,-3.299999952316284,38.108455657958984,0,
 692851,-2.29541015625,-1.602294921875,-0.7939453125,244.4512176513672,-162.56097412109375,-86.4024429321289,-5.849999904632568,-47.70000076293945,-4.199999809265137,38.300148010253906,0,
 692861,-1.77294921875,-0.851318359375,-2.1650390625,21.58536720275879,-50.79268264770508,-20.792682647705078,-7.199999809265137,-46.20000076293945,-4.5,38.108455657958984,0,
 692871,-1.166748046875,-0.3134765625,-1.36474609375,-45.121952056884766,31.158536911010742,19.359756469726562,-6.599999904632568,-47.70000076293945,-3.450000047683716,38.25222396850586,0,
 692881,-0.750244140625,-0.287353515625,-1.12841796875,-80.48780822753906,88.38414764404297,32.469512939453125,-6.599999904632568,-47.70000076293945,-3.450000047683716,38.06053161621094,0,
 692891,-0.162353515625,-0.187744140625,-0.980224609375,-144.81707763671875,147.74391174316406,3.567073345184326,-6.0,-46.20000076293945,-3.75,38.300148010253906,0,
 692901,0.4521484375,0.1083984375,-0.87646484375,-129.39024353027344,132.07318115234375,14.939024925231934,-7.199999809265137,-48.599998474121094,-7.800000190734863,38.25222396850586,0,
 692911,0.587646484375,0.207763671875,-0.678466796875,-26.920732498168945,47.682926177978516,25.823171615600586,-6.75,-46.650001525878906,-4.5,37.91676330566406,0,
 692921,0.369873046875,-0.18994140625,-0.77197265625,44.20731735229492,-0.09146341681480408,12.317073822021484,-8.699999809265137,-49.5,-3.75,38.300148010253906,0,
 692931,0.421630859375,-0.191650390625,-0.78955078125,1.25,9.969511985778809,9.054878234863281,-8.699999809265137,-49.5,-3.75,38.395992279052734,0,
 692941,0.046630859375,-0.209228515625,-0.895751953125,10.091464042663574,-11.920731544494629,3.6890244483947754,-6.599999904632568,-47.25,-3.450000047683716,38.25222396850586,0,
 692951,-0.38916015625,-0.396484375,-1.13330078125,66.25,-30.88414764404297,-4.6646342277526855,-8.399999618530273,-48.599998474121094,-3.299999952316284,38.300148010253906,0,
 692961,-0.592041015625,-0.54931640625,-1.110595703125,81.4024429321289,-40.51829528808594,-8.841464042663574,-7.050000190734863,-47.70000076293945,-3.9000000953674316,38.06053161621094,0,
 692971,-0.6806640625,-0.553955078125,-1.14990234375,36.85975646972656,-12.439024925231934,-17.7439022064209,-7.050000190734863,-47.70000076293945,-3.9000000953674316,38.108455657958984,0,
 692981,-0.42919921875,-0.329833984375,-1.12451171875,-16.890243530273438,34.756099700927734,-14.786585807800293,-6.599999904632568,-46.5,-1.2000000476837158,38.15637969970703,0,
 692991,-0.223876953125,-0.190673828125,-1.067626953125,-42.74390411376953,56.310977935791016,-12.743903160095215,-7.800000190734863,-46.5,-2.700000047683716,38.300148010253906,0,
 693001,0.005615234375,-0.078125,-1.00244140625,-52.0121955871582,64.32926940917969,-7.804878234863281,-4.5,-49.04999923706055,-4.050000190734863,38.25222396850586,0,
 693011,0.229736328125,0.03271484375,-0.874267578125,-29.63414764404297,44.78658676147461,0.8536585569381714,-5.849999904632568,-47.70000076293945,-3.9000000953674316,38.25222396850586,0,
 693021,0.192138671875,-0.115478515625,-0.8828125,15.335366249084473,16.524391174316406,3.353658676147461,-5.849999904632568,-47.70000076293945,-3.9000000953674316,38.300148010253906,0,
 693031,0.237060546875,-0.223876953125,-0.81591796875,12.865854263305664,13.932927131652832,6.341463565826416,-8.550000190734863,-47.70000076293945,-3.1500000953674316,38.25222396850586,0,
 693041,0.244384765625,-0.27685546875,-0.79296875,3.9634146690368652,6.036585330963135,7.560975551605225,-6.599999904632568,-47.70000076293945,-3.1500000953674316,38.300148010253906,0,
 693051,0.21337890625,-0.364501953125,-0.827392578125,7.103658676147461,-8.689024925231934,7.682927131652832,-6.75,-47.849998474121094,-4.050000190734863,38.25222396850586,0,
 693061,0.05419921875,-0.367431640625,-0.906982421875,8.993902206420898,-31.615854263305664,-0.792682945728302,-6.75,-47.849998474121094,-4.050000190734863,38.25222396850586,0,
 693071,-0.284912109375,-0.33154296875,-1.06005859375,16.067073822021484,-25.975610733032227,-5.457317352294922,-8.100000381469727,-46.04999923706055,-4.199999809265137,38.108455657958984,0,
 693081,-0.423095703125,-0.400634765625,-1.06396484375,-8.170731544494629,-6.341463565826416,-6.737804889678955,-8.550000190734863,-46.04999923706055,-3.1500000953674316,38.108455657958984,0,
 693091,-0.384033203125,-0.243896484375,-1.122314453125,-10.27439022064209,6.493902683258057,-5.457317352294922,-6.449999809265137,-47.849998474121094,-2.25,38.15637969970703,0,
 693101,-0.239990234375,-0.196533203125,-1.098876953125,-12.103658676147461,10.792683601379395,-2.22560977935791,-6.449999809265137,-47.849998474121094,-2.25,37.91676330566406,0,
 693111,-0.132568359375,-0.13525390625,-1.07080078125,-5.9146342277526855,9.786585807800293,0.7317073345184326,-8.100000381469727,-45.599998474121094,-3.450000047683716,38.25222396850586,0,
 693121,-0.08349609375,-0.14208984375,-1.0126953125,3.2926828861236572,6.79878044128418,3.932926893234253,-7.050000190734863,-48.0,-4.199999809265137,38.300148010253906,0,
 693141,0.03515625,-0.254638671875,-0.92431640625,0.9146341681480408,0.792682945728302,5.3353657722473145,-7.949999809265137,-47.099998474121094,-1.7999999523162842,38.06053161621094,0,
 693151,0.05908203125,-0.293212890625,-0.905517578125,-0.7012194991111755,-4.939024448394775,4.115853786468506,-7.949999809265137,-47.099998474121094,-1.7999999523162842,38.25222396850586,0,
 693161,0.076171875,-0.30322265625,-0.900146484375,-1.7987805604934692,-12.591464042663574,2.8353660106658936,-7.5,-46.20000076293945,-3.299999952316284,38.25222396850586,0,
 693171,0.0302734375,-0.2939453125,-0.91845703125,-3.658536672592163,-17.164634704589844,1.432926893234253,-7.050000190734863,-47.25,-3.1500000953674316,38.15637969970703,0,
 693181,-0.033447265625,-0.27001953125,-0.97021484375,-0.27439025044441223,-22.774391174316406,-0.4878048896789551,-7.800000190734863,-46.79999923706055,-3.450000047683716,38.395992279052734,0,
 693191,-0.286376953125,-0.23095703125,-1.078125,8.87195110321045,-16.64634132385254,-2.2560975551605225,-7.800000190734863,-46.79999923706055,-3.450000047683716,38.300148010253906,0,
 693201,-0.5,-0.26416015625,-1.17724609375,13.59756088256836,-4.054878234863281,-5.060975551605225,-6.75,-47.400001525878906,-3.75,37.96468734741211,0,
 693211,-0.6015625,-0.273681640625,-1.20947265625,10.945121765136719,16.768293380737305,-7.408536911010742,-7.800000190734863,-48.0,-4.650000095367432,38.15637969970703,0,
 693221,-0.403564453125,-0.213623046875,-1.246337890625,-1.0670732259750366,36.70731735229492,-7.042683124542236,-6.75,-45.900001525878906,-3.75,38.395992279052734,0,
 693231,-0.620361328125,-0.22412109375,-1.2900390625,14.420732498168945,36.34146499633789,-11.890244483947754,-6.599999904632568,-48.0,-3.1500000953674316,38.25222396850586,0,
 693241,-0.525634765625,-0.32763671875,-1.14111328125,26.859756469726562,55.24390411376953,-16.95121955871582,-6.599999904632568,-48.0,-3.1500000953674316,38.15637969970703,0,
 693251,-0.182373046875,-0.313720703125,-1.07568359375,18.414634704589844,68.07926940917969,-15.213415145874023,-7.800000190734863,-46.5,-1.9500000476837158,37.91676330566406,0,
 693261,0.120361328125,-0.300537109375,-0.942626953125,13.445122718811035,66.28048706054688,-10.82317066192627,-8.550000190734863,-46.79999923706055,-3.9000000953674316,38.25222396850586,0,
 693271,0.150390625,-0.21142578125,-0.9345703125,4.02439022064209,56.95122146606445,-8.353658676147461,-6.75,-47.099998474121094,-3.299999952316284,38.300148010253906,0,
 693281,0.055908203125,-0.27978515625,-0.83349609375,20.792682647705078,44.2378044128418,-11.006097793579102,-6.75,-47.099998474121094,-3.299999952316284,38.25222396850586,0,
 693291,0.0693359375,-0.32275390625,-0.891845703125,21.768293380737305,45.121952056884766,-13.109756469726562,-8.550000190734863,-46.79999923706055,-1.2000000476837158,37.96468734741211,0,
 693302,0.009521484375,-0.337890625,-0.950439453125,25.48780632019043,38.23170852661133,-17.591463088989258,-8.100000381469727,-45.599998474121094,-3.450000047683716,38.108455657958984,0,
 693312,0.083740234375,-0.341064453125,-0.908203125,23.59756088256836,38.506099700927734,-19.207317352294922,-8.100000381469727,-50.099998474121094,-3.450000047683716,38.108455657958984,0,
 693322,0.037109375,-0.2978515625,-0.92578125,21.03658676147461,33.29268264770508,-19.573171615600586,-9.300000190734863,-46.04999923706055,-2.4000000953674316,38.06053161621094,0,
 693332,0.083984375,-0.292236328125,-0.93603515625,15.182927131652832,33.07926940917969,-17.5,-9.300000190734863,-46.04999923706055,-2.4000000953674316,38.395992279052734,0,
 693342,0.129638671875,-0.206298828125,-0.919189453125,7.1646342277526855,30.823171615600586,-15.213415145874023,-9.300000190734863,-46.79999923706055,-4.199999809265137,38.395992279052734,0,
 693352,0.13916015625,-0.182861328125,-0.9228515625,10.487805366516113,25.792682647705078,-11.25,-8.550000190734863,-45.599998474121094,-2.4000000953674316,37.96468734741211,0,
 693362,0.08984375,-0.2294921875,-0.94189453125,13.810976028442383,21.890243530273438,-7.682927131652832,-9.300000190734863,-45.599998474121094,-0.15000000596046448,38.25222396850586,0,
 693372,0.111572265625,-0.219482421875,-0.90478515625,11.585366249084473,22.621952056884766,-5.091463565826416,-9.300000190734863,-45.599998474121094,-0.15000000596046448,38.06053161621094,0,
 693382,0.123291015625,-0.24560546875,-0.91650390625,10.12195110321045,21.310976028442383,-2.22560977935791,-8.850000381469727,-43.349998474121094,-1.649999976158142,38.395992279052734,0,
 693392,0.075439453125,-0.279541015625,-0.9189453125,13.810976028442383,14.969512939453125,0.3048780560493469,-7.5,-46.20000076293945,-2.549999952316284,38.06053161621094,0,
 693402,0.079833984375,-0.30712890625,-0.9404296875,12.37804889678955,17.83536720275879,-1.0365853309631348,-8.850000381469727,-46.5,-0.15000000596046448,37.96468734741211,0,
 693412,0.0927734375,-0.310546875,-0.97412109375,7.957317352294922,16.707317352294922,-1.1890244483947754,-7.5,-45.900001525878906,-6.0,38.25222396850586,0,
 693422,0.075439453125,-0.320068359375,-0.928955078125,10.182927131652832,12.286585807800293,-1.1280487775802612,-7.5,-45.900001525878906,-6.0,38.395992279052734,0,
 693432,0.07568359375,-0.323486328125,-0.928955078125,7.713414669036865,12.012195587158203,-2.4695122241973877,-8.850000381469727,-44.849998474121094,-1.649999976158142,38.108455657958984,0,
 693442,0.110107421875,-0.31494140625,-0.934814453125,5.884146690368652,9.57317066192627,-1.585365891456604,-11.550000190734863,-45.599998474121094,-1.9500000476837158,38.108455657958984,0,
 693452,0.1025390625,-0.298583984375,-0.9306640625,3.6890244483947754,7.591463565826416,-1.7073171138763428,-8.850000381469727,-43.349998474121094,-0.44999998807907104,38.15637969970703,0,
 693462,0.110595703125,-0.29833984375,-0.924560546875,4.359755992889404,6.829268455505371,-2.195122003555298,-8.850000381469727,-43.349998474121094,-0.44999998807907104,38.300148010253906,0,
 693472,0.10107421875,-0.301513671875,-0.9384765625,3.1402440071105957,4.1768293380737305,-1.3109756708145142,-10.050000190734863,-46.04999923706055,-1.649999976158142,38.15637969970703,0,
 693482,0.1025390625,-0.294921875,-0.934326171875,2.1341464519500732,2.2560975551605225,-1.1585365533828735,-10.050000190734863,-45.599998474121094,-1.649999976158142,38.25222396850586,0,
 693512,0.144287109375,-0.30126953125,-0.9208984375,1.1280487775802612,-12.469512939453125,5.731707572937012,-8.699999809265137,-44.25,-1.0499999523162842,38.25222396850586,0,
 693522,0.17333984375,-0.301025390625,-0.86279296875,-7.408536911010742,-11.12804889678955,4.146341323852539,-9.149999618530273,-45.45000076293945,-1.5,37.96468734741211,0,
 693532,0.215576171875,-0.34228515625,-0.841552734375,-15.42682933807373,-14.207317352294922,9.603658676147461,-7.5,-46.20000076293945,-2.25,38.108455657958984,0,
 693542,0.28076171875,-0.30419921875,-0.798583984375,-24.115854263305664,-16.859756469726562,15.060976028442383,-10.5,-45.599998474121094,-1.649999976158142,37.96468734741211,0,
 693552,0.44287109375,-0.348388671875,-0.69921875,-45.57926940917969,-26.676830291748047,28.567073822021484,-10.5,-45.599998474121094,-1.649999976158142,38.15637969970703,0,
 693562,0.684326171875,-0.35400390625,-0.55126953125,-86.34146881103516,-42.530487060546875,46.98170852661133,-9.149999618530273,-47.099998474121094,0.0,38.25222396850586,0,
 693582,1.313720703125,-0.216796875,-0.211181640625,-130.0,-118.04878234863281,78.17073059082031,-10.649999618530273,-45.900001525878906,-3.0,38.108455657958984,0,
 693592,1.19677734375,-0.01025390625,-0.23095703125,-84.26829528808594,-170.60975646972656,59.603660583496094,-7.949999809265137,-46.650001525878906,-2.25,38.25222396850586,0,
 693602,0.819580078125,-0.135498046875,-0.407958984375,-39.78658676147461,-206.73780822753906,43.506099700927734,-9.899999618530273,-47.400001525878906,-3.75,38.25222396850586,0,
 693612,-0.30126953125,0.181640625,-1.473388671875,86.46341705322266,-305.9146423339844,-54.54268264770508,-8.550000190734863,-48.0,-3.450000047683716,38.108455657958984,0,
 693622,-3.107421875,0.617431640625,-2.198486328125,238.81097412109375,-195.27439880371094,-86.79878234863281,-6.449999809265137,-49.04999923706055,-4.800000190734863,38.44391632080078,0,
 693632,-2.411865234375,-1.366943359375,-0.95361328125,82.2256088256836,-119.66463470458984,-26.768293380737305,-5.849999904632568,-46.5,-2.700000047683716,38.300148010253906,0,
 693642,-2.740234375,-0.990234375,-2.63720703125,-20.33536720275879,5.304878234863281,12.134146690368652,-5.849999904632568,-46.5,-2.700000047683716,38.15637969970703,0,
 693652,-1.83447265625,-0.45947265625,-1.168212890625,-84.6036605834961,135.6707305908203,23.658536911010742,-7.050000190734863,-48.0,-3.1500000953674316,38.395992279052734,0,
 693662,-0.892822265625,-0.32568359375,-1.31103515625,-127.22561645507812,167.6219482421875,2.591463565826416,-7.5,-47.849998474121094,-4.050000190734863,38.300148010253906,0,
 693672,-0.17041015625,-0.23583984375,-1.05224609375,-139.39024353027344,159.69512939453125,16.64634132385254,-9.149999618530273,-46.650001525878906,-3.0,38.25222396850586,0,
 693682,0.7294921875,0.294921875,-0.621826171875,-100.03048706054688,108.87195587158203,45.060977935791016,-9.149999618530273,-46.650001525878906,-3.0,38.300148010253906,0,
 693692,0.71337890625,0.050048828125,-0.58935546875,0.12195122241973877,37.103660583496094,16.43292808532715,-7.199999809265137,-46.650001525878906,-4.050000190734863,38.108455657958984,0,
 693702,0.446533203125,-0.15673828125,-0.720703125,38.84146499633789,-7.560975551605225,6.463414669036865,-8.100000381469727,-49.650001525878906,-2.4000000953674316,38.300148010253906,0,
 693712,0.4794921875,-0.2724609375,-0.680908203125,21.890243530273438,-4.634146213531494,5.152439117431641,-8.100000381469727,-47.25,-2.4000000953674316,38.25222396850586,0,
 693722,0.15478515625,-0.17333984375,-0.901611328125,28.963415145874023,-34.26829528808594,3.5365853309631348,-7.5,-50.70000076293945,-6.0,38.15637969970703,0,
 693732,-0.36865234375,-0.429931640625,-1.088134765625,94.81707763671875,-68.38414764404297,-10.670731544494629,-7.5,-50.70000076293945,-6.0,38.25222396850586,0,
 693742,-0.571533203125,-0.639892578125,-1.120361328125,98.96341705322266,-73.56707763671875,-12.286585807800293,-7.050000190734863,-47.70000076293945,-3.1500000953674316,38.06053161621094,0,
 693752,-0.684326171875,-0.593505859375,-1.105224609375,35.853660583496094,-43.10975646972656,-14.786585807800293,-5.849999904632568,-48.45000076293945,-3.1500000953674316,38.300148010253906,0,
 693762,-0.3740234375,-0.35107421875,-1.09521484375,-24.329269409179688,14.420732498168945,-5.030488014221191,-7.050000190734863,-48.45000076293945,-2.700000047683716,38.15637969970703,0,
 693772,-0.22021484375,-0.182861328125,-1.0478515625,-57.68292999267578,35.39634323120117,-6.52439022064209,-7.050000190734863,-48.45000076293945,-2.700000047683716,38.108455657958984,0,
 693782,-0.03369140625,-0.078125,-1.06103515625,-62.19512176513672,43.2621955871582,-2.77439022064209,-6.599999904632568,-47.70000076293945,-3.9000000953674316,38.25222396850586,0,
 693792,0.09765625,-0.0146484375,-0.90478515625,-40.51829528808594,26.64634132385254,2.103658676147461,-6.599999904632568,-49.20000076293945,-3.450000047683716,38.06053161621094,0,
 693802,0.157470703125,-0.142578125,-0.8798828125,3.7804877758026123,-0.21341463923454285,7.835366249084473,-6.300000190734863,-46.04999923706055,-3.450000047683716,38.300148010253906,0,
 693812,0.221923828125,-0.23046875,-0.826904296875,2.682926893234253,-8.262195587158203,12.012195587158203,-5.099999904632568,-49.20000076293945,-4.199999809265137,38.15637969970703,0,
 693822,0.38427734375,-0.2509765625,-0.7294921875,-8.04878044128418,-14.695122718811035,15.762195587158203,-5.099999904632568,-49.20000076293945,-4.199999809265137,38.06053161621094,0,
 693832,0.5263671875,-0.28857421875,-0.68017578125,-11.707317352294922,-36.463417053222656,21.25,-7.5,-47.400001525878906,-4.050000190734863,38.15637969970703,0,
 693842,0.56982421875,-0.240478515625,-0.776611328125,-22.225610733032227,-58.506099700927734,27.225610733032227,-7.349999904632568,-47.25,-1.9500000476837158,38.15637969970703,0,
 693852,-0.46826171875,0.047607421875,-1.21484375,-4.420732021331787,-103.20122528076172,15.304878234863281,-6.75,-49.04999923706055,-4.800000190734863,38.15637969970703,0,
 693862,-1.12158203125,-0.15478515625,-1.232177734375,62.92683029174805,-116.46341705322266,-12.256097793579102,-6.75,-49.04999923706055,-4.800000190734863,38.108455657958984,0,
 693872,-0.9443359375,-0.551513671875,-1.152099609375,96.58536529541016,-73.32317352294922,-15.884146690368652,-6.0,-47.400001525878906,-3.0,38.25222396850586,0,
 693882,-0.872802734375,-0.61669921875,-1.223876953125,37.59146499633789,-41.280487060546875,-14.664634704589844,-5.849999904632568,-48.45000076293945,-3.1500000953674316,38.06053161621094,0,
 693892,-0.5068359375,-0.3017578125,-1.10693359375,-25.85365867614746,16.64634132385254,8.079268455505371,-5.699999809265137,-47.849998474121094,-3.0,38.06053161621094,0,
 693902,-0.28466796875,-0.228271484375,-1.03271484375,-51.89024353027344,45.09146499633789,5.640244007110596,-7.199999809265137,-47.099998474121094,-3.75,38.44391632080078,0,
 693912,-0.22900390625,-0.1201171875,-1.115234375,-52.5,44.878047943115234,-2.8353660106658936,-7.199999809265137,-47.099998474121094,-3.75,38.25222396850586,0,
 693922,-0.118896484375,-0.194091796875,-0.91796875,-9.939024925231934,24.29878044128418,-1.3414634466171265,-7.050000190734863,-45.599998474121094,-6.150000095367432,38.06053161621094,0,
 693932,-0.090087890625,-0.224609375,-0.946044921875,3.8719513416290283,13.810976028442383,1.6158536672592163,-6.75,-49.04999923706055,-4.050000190734863,38.300148010253906,0,
 693942,-0.03173828125,-0.197021484375,-0.96484375,-4.817073345184326,19.7560977935791,1.6463414430618286,-7.800000190734863,-49.20000076293945,-3.1500000953674316,38.15637969970703,0,
 693952,-0.156494140625,-0.193115234375,-0.982177734375,-2.804877996444702,11.463415145874023,-1.25,-7.800000190734863,-49.20000076293945,-3.1500000953674316,37.96468734741211,0,
 693962,-0.396240234375,-0.257568359375,-1.122314453125,16.64634132385254,2.591463565826416,-2.6524391174316406,-7.349999904632568,-48.0,-3.450000047683716,38.06053161621094,0,
 693972,-0.703857421875,-0.33935546875,-1.195068359375,46.64634323120117,17.774391174316406,-13.47560977935791,-6.449999809265137,-49.5,-3.0,38.44391632080078,0,
 693982,-0.797607421875,-0.469970703125,-1.196533203125,18.38414764404297,49.54268264770508,-20.762195587158203,-7.349999904632568,-47.70000076293945,-2.700000047683716,37.96468734741211,0,
 693992,-0.88330078125,-0.400146484375,-1.267333984375,-1.0365853309631348,92.3780517578125,-29.78658676147461,-8.100000381469727,-48.0,-2.700000047683716,38.06053161621094,0,
 694022,-0.098388671875,-0.237060546875,-1.009765625,-24.512195587158203,121.89024353027344,-19.176830291748047,-8.399999618530273,-45.900001525878906,-4.050000190734863,38.15637969970703,0,
 694032,0.231689453125,-0.043701171875,-1.0712890625,19.207317352294922,71.25,-18.38414764404297,-8.699999809265137,-48.599998474121094,-3.75,38.108455657958984,0,
 694042,0.181884765625,-0.138671875,-0.766357421875,33.59756088256836,67.71341705322266,-12.682927131652832,-8.699999809265137,-48.599998474121094,-3.75,37.96468734741211,0,
 694052,0.2578125,-0.25537109375,-0.83642578125,23.5060977935791,55.03049087524414,-14.908536911010742,-9.300000190734863,-47.70000076293945,-3.1500000953674316,38.06053161621094,0,
 694062,0.17626953125,-0.27099609375,-0.802734375,15.0,57.07317352294922,-11.158536911010742,-8.399999618530273,-47.099998474121094,-1.7999999523162842,38.300148010253906,0,
 694072,0.317138671875,-0.30810546875,-0.784912109375,14.57317066192627,38.353660583496094,-14.664634704589844,-9.300000190734863,-46.79999923706055,-2.4000000953674316,38.395992279052734,0,
 694082,0.172607421875,-0.22607421875,-0.84423828125,30.18292808532715,35.24390411376953,-18.140243530273438,-8.100000381469727,-45.29999923706055,-1.2000000476837158,37.96468734741211,0,
 694092,0.1494140625,-0.3193359375,-0.872314453125,22.469512939453125,28.231708526611328,-21.158536911010742,-8.100000381469727,-45.29999923706055,-1.2000000476837158,38.395992279052734,0,
 694102,0.075439453125,-0.28564453125,-0.853759765625,14.085366249084473,32.103660583496094,-20.030488967895508,-10.199999809265137,-45.900001525878906,-3.299999952316284,38.25222396850586,0,
 694113,0.10205078125,-0.242431640625,-0.9111328125,15.304878234863281,25.54878044128418,-17.926830291748047,-8.850000381469727,-46.5,-2.4000000953674316,38.06053161621094,0,
 694123,0.0830078125,-0.214111328125,-0.940185546875,14.87804889678955,25.426830291748047,-14.634146690368652,-9.600000381469727,-46.5,-1.2000000476837158,38.25222396850586,0,
 694133,0.070556640625,-0.233642578125,-0.951416015625,17.5,20.121952056884766,-10.579268455505371,-9.600000381469727,-46.5,-1.2000000476837158,38.25222396850586,0,
 694143,0.110595703125,-0.212890625,-0.940185546875,11.707317352294922,22.621952056884766,-4.45121955871582,-8.399999618530273,-47.400001525878906,-1.7999999523162842,38.108455657958984,0,
 694153,0.10888671875,-0.223876953125,-0.927001953125,12.286585807800293,19.573171615600586,-0.7317073345184326,-9.149999618530273,-45.900001525878906,-1.7999999523162842,38.395992279052734,0,
 694163,0.106689453125,-0.29833984375,-0.89697265625,16.280488967895508,16.189023971557617,1.5548781156539917,-8.699999809265137,-46.650001525878906,-1.5,38.06053161621094,0,
 694173,0.103759765625,-0.31494140625,-0.94921875,10.70121955871582,17.042682647705078,0.030487805604934692,-8.699999809265137,-46.650001525878906,-1.5,38.15637969970703,0,
 694183,0.09423828125,-0.34912109375,-0.912353515625,11.036585807800293,12.012195587158203,0.7317073345184326,-7.949999809265137,-45.900001525878906,-1.5,38.06053161621094,0,
 694233,0.1103515625,-0.2861328125,-0.935791015625,1.5548781156539917,2.682926893234253,-2.896341562271118,-7.800000190734863,-45.599998474121094,-3.1500000953674316,38.108455657958984,0,
 694243,0.137939453125,-0.282470703125,-0.932861328125,0.7012194991111755,0.4573170840740204,-2.1341464519500732,-8.550000190734863,-43.650001525878906,-2.4000000953674316,38.25222396850586,0,
 694253,0.168701171875,-0.2744140625,-0.921630859375,-0.6402438879013062,-4.908536911010742,1.3719512224197388,-8.699999809265137,-46.650001525878906,-0.75,38.395992279052734,0,
 694263,0.184326171875,-0.270751953125,-0.89013671875,-0.9451219439506531,-11.432927131652832,7.439024448394775,-8.699999809265137,-46.650001525878906,-0.75,38.15637969970703,0,
 694273,0.2353515625,-0.262451171875,-0.87744140625,-4.542683124542236,-11.280488014221191,9.817073822021484,-10.949999809265137,-45.150001525878906,-0.30000001192092896,38.15637969970703,0,
 694283,0.228271484375,-0.268798828125,-0.838134765625,-10.15243911743164,-15.762195587158203,10.0,-10.800000190734863,-44.54999923706055,-2.4000000953674316,37.91676330566406,0,
 694293,0.340576171875,-0.349609375,-0.747314453125,-14.908536911010742,-18.719512939453125,13.384146690368652,-8.850000381469727,-44.849998474121094,-1.649999976158142,38.108455657958984,0,
 694303,0.546875,-0.352294921875,-0.62353515625,-32.43902587890625,-24.14634132385254,21.310976028442383,-8.699999809265137,-45.150001525878906,-1.7999999523162842,38.395992279052734,0,
 694313,0.764404296875,-0.3330078125,-0.49658203125,-63.10975646972656,-35.182926177978516,34.26829528808594,-8.699999809265137,-45.150001525878906,-1.7999999523162842,38.25222396850586,0,
 694323,1.199951171875,-0.31298828125,-0.2724609375,-104.23780822753906,-53.32317352294922,51.09756088256836,-8.850000381469727,-46.79999923706055,-0.44999998807907104,38.300148010253906,0,
 694433,0.48828125,-0.251953125,-0.8720703125,-108.14024353027344,101.43292999267578,46.55487823486328,-6.0,-48.29999923706055,-4.050000190734863,38.15637969970703,0,
 694443,0.6689453125,-0.0234375,-0.538330078125,-72.95732116699219,77.46951293945312,51.64634323120117,-6.0,-48.29999923706055,-4.050000190734863,38.395992279052734,0,
 694453,0.727783203125,0.281982421875,-0.7890625,-19.969512939453125,22.98780632019043,1.1585365533828735,-8.100000381469727,-48.45000076293945,-4.199999809265137,38.395992279052734,0,
 694463,0.575927734375,0.027587890625,-0.4267578125,44.69512176513672,-23.75,0.27439025044441223,-8.399999618530273,-49.5,-4.5,38.15637969970703,0,
 694473,0.4189453125,-0.10791015625,-0.76904296875,61.76829528808594,-40.94512176513672,2.77439022064209,-8.100000381469727,-48.45000076293945,-4.650000095367432,37.96468734741211,0,
 694483,0.37548828125,-0.321533203125,-0.755126953125,51.219512939453125,-76.67683410644531,3.2926828861236572,-7.050000190734863,-48.900001525878906,-3.9000000953674316,38.300148010253906,0,
 694493,0.08935546875,-0.232666015625,-0.92041015625,62.621952056884766,-89.08536529541016,-5.27439022064209,-7.050000190734863,-48.900001525878906,-3.9000000953674316,38.25222396850586,0,
 694503,-0.3427734375,-0.396240234375,-1.048095703125,55.914634704589844,-87.3780517578125,-4.908536911010742,-8.100000381469727,-48.45000076293945,-4.650000095367432,38.44391632080078,0,
 694513,-0.753173828125,-0.38330078125,-1.18603515625,41.371952056884766,-57.92683029174805,-11.25,-7.5,-48.599998474121094,-4.050000190734863,38.300148010253906,0,
 694523,-0.86181640625,-0.495361328125,-1.119140625,1.8292683362960815,-11.219511985778809,1.2195122241973877,-6.300000190734863,-47.70000076293945,-2.700000047683716,38.06053161621094,0,
 694533,-0.616943359375,-0.42578125,-1.0859375,-35.88414764404297,21.03658676147461,1.5243902206420898,-6.300000190734863,-47.70000076293945,-2.700000047683716,38.06053161621094,0,
 694543,-0.353271484375,-0.240966796875,-1.099365234375,-49.1158561706543,33.506099700927734,0.27439025044441223,-5.25,-48.599998474121094,-7.050000190734863,38.25222396850586,0,
 694553,-0.184814453125,-0.194091796875,-0.98681640625,-51.67683029174805,34.969512939453125,2.195122003555298,-6.0,-48.599998474121094,-4.5,37.96468734741211,0,
 694563,0.0087890625,-0.102783203125,-0.986572265625,-24.024391174316406,12.439024925231934,6.371951580047607,-7.800000190734863,-47.25,-5.400000095367432,38.395992279052734,0,
 694573,0.131103515625,-0.06591796875,-0.8916015625,5.670732021331787,-13.719512939453125,9.420731544494629,-7.050000190734863,-47.70000076293945,-4.199999809265137,38.06053161621094,0,
 694583,0.183837890625,-0.215087890625,-0.829833984375,-7.256097793579102,-21.463415145874023,13.079268455505371,-7.050000190734863,-47.70000076293945,-4.199999809265137,38.25222396850586,0,
 694593,-0.138427734375,-0.14501953125,-1.03564453125,-1.5548781156539917,-42.0121955871582,11.280488014221191,-7.050000190734863,-47.70000076293945,-3.450000047683716,38.06053161621094,0,
 694603,-0.636962890625,-0.230224609375,-1.123779296875,36.585365295410156,-59.84756088256836,2.1341464519500732,-6.0,-47.849998474121094,-4.5,38.25222396850586,0,
 694643,-0.364501953125,-0.282958984375,-1.051513671875,-35.060977935791016,48.10975646972656,-6.371951580047607,-7.949999809265137,-47.849998474121094,-7.5,38.06053161621094,0,
 694653,-0.258056640625,-0.202392578125,-1.022216796875,-38.38414764404297,50.45731735229492,-7.560975551605225,-6.449999809265137,-47.849998474121094,-4.5,38.15637969970703,0,
 694663,-0.093994140625,-0.173095703125,-0.964599609375,-25.85365867614746,47.3780517578125,-7.378048896789551,-6.449999809265137,-47.849998474121094,-4.5,38.49183654785156,0,
 694673,0.020751953125,-0.1455078125,-0.921142578125,-15.15243911743164,35.64024353027344,-3.658536672592163,-7.050000190734863,-49.650001525878906,-3.9000000953674316,38.06053161621094,0,
 694683,0.051513671875,-0.166259765625,-0.89697265625,-5.365853786468506,24.45121955871582,-0.18292683362960815,-7.199999809265137,-48.599998474121094,-4.5,38.395992279052734,0,
 694703,-0.339599609375,-0.199462890625,-1.067138671875,13.841464042663574,-0.7012194991111755,-2.0731706619262695,-7.800000190734863,-47.70000076293945,-3.450000047683716,38.06053161621094,0,
 694713,-0.443115234375,-0.364501953125,-1.051513671875,34.725608825683594,0.3658536672592163,-5.3353657722473145,-7.800000190734863,-47.70000076293945,-3.450000047683716,38.395992279052734,0,
 694723,-0.487548828125,-0.373046875,-1.120361328125,20.914634704589844,14.603658676147461,-6.219512462615967,-6.599999904632568,-48.0,-3.9000000953674316,37.96468734741211,0,
 694733,-0.6416015625,-0.3505859375,-1.162841796875,8.810976028442383,29.908536911010742,-12.317073822021484,-7.199999809265137,-48.599998474121094,-4.5,38.395992279052734,0,
 694743,-0.4814453125,-0.36474609375,-1.05908203125,-0.9756097793579102,55.51829528808594,-17.164634704589844,-6.300000190734863,-45.599998474121094,-5.400000095367432,38.44391632080078,0,
 694753,-0.207275390625,-0.23486328125,-1.083984375,-19.817073822021484,73.93292999267578,-16.219512939453125,-6.300000190734863,-45.599998474121094,-5.400000095367432,38.25222396850586,0,
 694763,-0.195068359375,-0.17236328125,-1.031982421875,-15.335366249084473,68.56707763671875,-19.08536720275879,-6.75,-47.400001525878906,-4.050000190734863,38.108455657958984,0,
 694773,-0.01171875,-0.20654296875,-0.92919921875,-9.84756088256836,70.42683410644531,-14.908536911010742,-7.050000190734863,-46.79999923706055,-3.450000047683716,38.15637969970703,0,
 694783,0.153564453125,-0.115478515625,-0.912109375,-14.390244483947754,64.1463394165039,-6.707317352294922,-7.800000190734863,-47.70000076293945,-2.700000047683716,38.15637969970703,0,
 694793,0.091064453125,-0.153076171875,-0.949951171875,2.2560975551605225,45.24390411376953,-5.182927131652832,-8.100000381469727,-48.0,-3.1500000953674316,38.25222396850586,0,
 694803,-0.17431640625,-0.2294921875,-1.02197265625,23.810976028442383,29.573171615600586,-8.262195587158203,-8.100000381469727,-48.0,-3.1500000953674316,38.25222396850586,0,
 694813,-0.277587890625,-0.3203125,-1.095703125,31.219512939453125,35.335365295410156,-12.591464042663574,-6.449999809265137,-47.400001525878906,-2.25,38.25222396850586,0,
 694823,-0.45068359375,-0.34033203125,-1.205322265625,33.32316970825195,37.774391174316406,-18.292682647705078,-7.050000190734863,-46.79999923706055,-1.9500000476837158,37.91676330566406,0,
 694833,-0.654541015625,-0.329833984375,-1.280029296875,41.371952056884766,43.414634704589844,-29.359756469726562,-7.949999809265137,-47.849998474121094,-1.7999999523162842,38.15637969970703,0,
 694843,-0.43505859375,-0.406982421875,-1.1181640625,36.09756088256836,66.9817123413086,-36.64634323120117,-7.949999809265137,-47.849998474121094,-1.7999999523162842,38.108455657958984,0,
 694853,-0.089599609375,-0.3251953125,-1.084716796875,14.268293380737305,77.31707763671875,-27.713415145874023,-8.699999809265137,-47.849998474121094,-3.299999952316284,38.25222396850586,0,
 694863,0.11669921875,-0.223876953125,-0.91162109375,6.128048896789551,69.29878234863281,-19.237804412841797,-7.800000190734863,-46.79999923706055,-1.9500000476837158,37.96468734741211,0,
 694873,0.32275390625,-0.08056640625,-0.85302734375,-6.310975551605225,66.18902587890625,-8.47560977935791,-9.149999618530273,-45.900001525878906,-1.7999999523162842,38.25222396850586,0,
 694883,0.309814453125,-0.185302734375,-0.76806640625,34.2378044128418,39.024391174316406,-4.481707572937012,-9.449999809265137,-47.099998474121094,-1.5,38.300148010253906,0,
 694893,0.27099609375,-0.2431640625,-0.73583984375,13.506097793579102,38.68902587890625,-7.317073345184326,-9.449999809265137,-47.099998474121094,-1.5,38.15637969970703,0,
 694903,0.2197265625,-0.229248046875,-0.8125,14.17682933807373,34.603660583496094,-5.3353657722473145,-10.050000190734863,-46.04999923706055,-0.8999999761581421,38.108455657958984,0,
 694913,0.24560546875,-0.228515625,-0.8046875,19.08536720275879,24.63414764404297,-5.579268455505371,-9.149999618530273,-46.20000076293945,-1.5,38.25222396850586,0,
 694923,0.189453125,-0.275390625,-0.87646484375,17.073171615600586,25.15243911743164,-7.469512462615967,-8.699999809265137,-46.650001525878906,-1.5,38.44391632080078,0,
 694933,0.177734375,-0.3017578125,-0.901611328125,15.213415145874023,20.823171615600586,-9.756097793579102,-8.699999809265137,-46.650001525878906,-1.5,37.96468734741211,0,
 694954,0.05712890625,-0.34375,-0.956787109375,8.384146690368652,15.487805366516113,-6.890244007110596,-7.5,-46.650001525878906,-3.299999952316284,38.300148010253906,0,
 694964,0.0673828125,-0.314453125,-0.94775390625,5.060975551605225,14.359756469726562,-5.0,-9.899999618530273,-45.45000076293945,-1.0499999523162842,37.91676330566406,0,
 694974,0.067138671875,-0.286865234375,-0.953857421875,4.72560977935791,12.5,-4.512195110321045,-9.899999618530273,-47.099998474121094,-1.5,38.300148010253906,0,
 694984,0.08935546875,-0.278076171875,-0.947021484375,4.45121955871582,11.432927131652832,-3.3841464519500732,-9.899999618530273,-47.099998474121094,-1.5,38.25222396850586,0,
 694994,0.099853515625,-0.284423828125,-0.9404296875,5.609755992889404,8.170731544494629,-2.2865853309631348,-10.5,-45.599998474121094,-0.8999999761581421,38.108455657958984,0,
 695004,0.110107421875,-0.308837890625,-0.923828125,3.5975611209869385,6.463414669036865,-2.1341464519500732,-10.649999618530273,-45.150001525878906,-0.75,38.395992279052734,0,
 695014,0.1044921875,-0.306640625,-0.9287109375,3.1402440071105957,5.4268293380737305,-2.77439022064209,-10.050000190734863,-46.5,-0.44999998807907104,38.25222396850586,0,
 695024,0.11865234375,-0.3125,-0.927978515625,1.3109756708145142,2.195122003555298,-1.4634146690368652,-10.050000190734863,-46.5,-0.44999998807907104,38.06053161621094,0,
 695034,0.152099609375,-0.2978515625,-0.91162109375,-0.7621951103210449,-2.378048896789551,0.0,-8.850000381469727,-46.04999923706055,-2.4000000953674316,38.300148010253906,0,
 695044,0.16552734375,-0.289794921875,-0.902099609375,-1.8597561120986938,-8.445121765136719,4.6646342277526855,-9.600000381469727,-46.79999923706055,-0.8999999761581421,38.25222396850586,0,
 695054,0.2783203125,-0.234375,-0.77099609375,-3.7804877758026123,-14.908536911010742,11.40243911743164,-10.050000190734863,-46.5,-4.650000095367432,38.15637969970703,0,
 695064,0.2822265625,-0.26513671875,-0.845458984375,-11.189024925231934,-13.59756088256836,6.402439117431641,-9.149999618530273,-45.45000076293945,-1.0499999523162842,38.06053161621094,0,
 695074,0.318115234375,-0.3369140625,-0.775634765625,-14.207317352294922,-19.7560977935791,9.969511985778809,-9.149999618530273,-45.45000076293945,-1.0499999523162842,38.395992279052734,0,
 695084,0.52001953125,-0.387451171875,-0.65380859375,-31.219512939453125,-21.859756469726562,19.176830291748047,-9.899999618530273,-45.45000076293945,-0.75,38.44391632080078,0,
 695094,0.740478515625,-0.283447265625,-0.498046875,-61.89024353027344,-35.82316970825195,35.88414764404297,-9.149999618530273,-45.45000076293945,-2.25,38.300148010253906,0,
 695104,1.1728515625,-0.264892578125,-0.275390625,-110.39634704589844,-46.95122146606445,50.335365295410156,-8.399999618530273,-46.20000076293945,-2.25,38.25222396850586,0,
 695114,1.556640625,-0.126708984375,-0.131103515625,-145.36585998535156,-77.6524429321289,75.8536605834961,-8.399999618530273,-46.20000076293945,-2.25,37.96468734741211,0,
 695124,1.25732421875,-0.12890625,-0.098876953125,-138.84146118164062,-135.5792694091797,72.68292999267578,-10.649999618530273,-47.099998474121094,-2.549999952316284,38.300148010253906,0,
 695134,0.79541015625,0.048583984375,-0.568359375,-97.2256088256836,-198.41464233398438,71.4024429321289,-8.100000381469727,-47.70000076293945,-1.2000000476837158,38.395992279052734,0,
 695144,0.5888671875,-0.04833984375,-0.475830078125,-44.48170852661133,-249.57318115234375,42.530487060546875,-9.149999618530273,-49.04999923706055,-4.5,38.300148010253906,0,
 695154,0.43212890625,0.166015625,-0.729736328125,-40.88414764404297,-300.30487060546875,29.573171615600586,-9.149999618530273,-49.04999923706055,-4.5,38.108455657958984,0,
 695164,-1.118408203125,0.587646484375,-1.640869140625,14.207317352294922,-383.1707458496094,6.8597564697265625,-6.599999904632568,-48.900001525878906,-5.400000095367432,38.06053161621094,0,
 695174,-4.554443359375,0.865966796875,-3.1845703125,194.2987823486328,-476.2804870605469,-88.26219940185547,-6.449999809265137,-47.849998474121094,-5.25,38.108455657958984,0,
 695184,-6.244140625,-3.37255859375,-0.050537109375,440.06097412109375,-335.94512939453125,-198.9634246826172,-7.800000190734863,-49.20000076293945,-5.400000095367432,38.587684631347656,0,
 695194,-2.798828125,-0.470458984375,-1.918701171875,-113.01829528808594,84.51219940185547,-10.54878044128418,-5.099999904632568,-48.45000076293945,-4.650000095367432,38.395992279052734,0,
 695204,-0.951904296875,-0.915771484375,-0.77685546875,12.317073822021484,168.01829528808594,28.20121955871582,-5.099999904632568,-48.45000076293945,-4.650000095367432,38.25222396850586,0,
 695214,-0.248046875,-0.479736328125,-1.0361328125,-125.64024353027344,247.43902587890625,46.18902587890625,-6.300000190734863,-46.79999923706055,-5.699999809265137,38.108455657958984,0,
 695224,0.387939453125,-0.12353515625,-0.981689453125,-248.506103515625,322.2865905761719,22.926830291748047,-6.449999809265137,-49.79999923706055,-3.75,38.06053161621094,0,
 695234,1.2998046875,0.263427734375,-0.80029296875,-316.1280517578125,235.94512939453125,16.615854263305664,-7.199999809265137,-49.5,-4.050000190734863,38.108455657958984,0,
 695244,0.71435546875,0.6953125,-0.215576171875,-155.06097412109375,101.70732116699219,59.1158561706543,-7.199999809265137,-49.5,-4.050000190734863,38.49183654785156,0,
 695254,0.720703125,0.408203125,-0.839111328125,42.28658676147461,26.03658676147461,1.0060975551605225,-8.550000190734863,-48.900001525878906,-7.949999809265137,38.108455657958984,0,
 695264,0.37548828125,-0.275146484375,-0.49951171875,150.5487823486328,-35.121952056884766,7.5,-5.099999904632568,-51.599998474121094,-6.900000095367432,38.108455657958984,0,
 695274,0.176513671875,-0.08251953125,-1.054931640625,43.44512176513672,-11.158536911010742,1.0060975551605225,-6.75,-49.04999923706055,-6.0,38.300148010253906,0,
 695284,-0.215576171875,0.038818359375,-0.875244140625,50.94512176513672,-33.353660583496094,-11.737805366516113,-7.050000190734863,-49.650001525878906,-5.699999809265137,38.300148010253906,0,
 695294,-0.437255859375,-0.215087890625,-1.242431640625,153.78048706054688,-68.14024353027344,-40.975608825683594,-7.050000190734863,-49.650001525878906,-5.699999809265137,38.15637969970703,0,
 695304,-0.63037109375,-0.8603515625,-1.082275390625,233.65853881835938,-108.3536605834961,-37.469512939453125,-7.050000190734863,-48.45000076293945,-4.949999809265137,38.15637969970703,0,
 695314,-0.968505859375,-1.070556640625,-0.94775390625,112.6524429321289,-78.99390411376953,-22.591463088989258,-6.599999904632568,-48.0,-4.199999809265137,37.91676330566406,0,
 695324,-0.42236328125,-0.45263671875,-0.925048828125,-51.09756088256836,65.12195587158203,-4.786585330963135,-7.5,-48.29999923706055,-3.299999952316284,38.06053161621094,0,
 695334,-0.1904296875,-0.3486328125,-0.9951171875,-119.63414764404297,106.15853881835938,-12.5,-7.5,-48.29999923706055,-3.299999952316284,38.108455657958984,0,
 695454,-0.116455078125,-0.177978515625,-0.995361328125,-18.38414764404297,11.341464042663574,-0.3658536672592163,-6.75,-47.400001525878906,-4.5,38.108455657958984,0,
 695464,-0.0634765625,-0.161865234375,-0.972412109375,-1.432926893234253,-3.2926828861236572,1.7987805604934692,-6.300000190734863,-47.70000076293945,-7.199999809265137,38.108455657958984,0,
 695474,-0.0654296875,-0.189697265625,-0.944580078125,1.2195122241973877,-8.079268455505371,2.9573171138763428,-6.300000190734863,-47.70000076293945,-7.199999809265137,38.395992279052734,0,
 695484,-0.05029296875,-0.218017578125,-0.92626953125,-4.481707572937012,-7.713414669036865,3.5060975551605225,-6.0,-49.5,-3.0,38.108455657958984,0,
 695494,-0.074462890625,-0.171142578125,-0.999755859375,9.756097793579102,-20.33536720275879,1.25,-5.699999809265137,-49.04999923706055,-4.800000190734863,38.15637969970703,0,
 695504,-0.32421875,-0.2919921875,-1.05322265625,17.13414764404297,-18.231708526611328,1.8292683362960815,-6.599999904632568,-48.900001525878906,-4.650000095367432,38.15637969970703,0,
 695514,-0.63623046875,-0.255859375,-1.16796875,18.38414764404297,-17.5,-1.9817073345184326,-6.599999904632568,-48.900001525878906,-4.650000095367432,38.25222396850586,0,
 695524,-0.659912109375,-0.4140625,-1.0869140625,31.829269409179688,-3.1097562313079834,-4.72560977935791,-5.699999809265137,-48.29999923706055,-4.800000190734863,38.25222396850586,0,
 695534,-0.562744140625,-0.35791015625,-1.158935546875,0.27439025044441223,26.676830291748047,-6.310975551605225,-5.25,-47.099998474121094,-4.050000190734863,38.300148010253906,0,
 695544,-0.646484375,-0.30419921875,-1.169921875,-3.9939024448394775,40.24390411376953,-11.280488014221191,-6.300000190734863,-48.45000076293945,-1.649999976158142,38.06053161621094,0,
 695554,-0.63623046875,-0.3681640625,-1.14111328125,2.6219513416290283,55.15243911743164,-16.43292808532715,-6.599999904632568,-48.45000076293945,-4.199999809265137,37.91676330566406,0,
 695564,-0.525634765625,-0.32666015625,-1.215087890625,-5.396341800689697,76.85975646972656,-19.14634132385254,-6.599999904632568,-48.45000076293945,-4.199999809265137,38.300148010253906,0,
 695574,-0.658203125,-0.23291015625,-1.21630859375,-1.097561001777649,83.20121765136719,-24.390243530273438,-5.849999904632568,-46.79999923706055,-3.9000000953674316,38.300148010253906,0,
 695584,-0.509765625,-0.29736328125,-1.06640625,6.554878234863281,102.6524429321289,-32.28658676147461,-7.050000190734863,-46.79999923706055,-3.450000047683716,38.25222396850586,0,
 695594,-0.061279296875,-0.26416015625,-1.04248046875,-11.463415145874023,124.4817123413086,-27.43902587890625,-7.949999809265137,-48.599998474121094,-3.299999952316284,38.25222396850586,0,
 695604,-0.049560546875,-0.084716796875,-1.095947265625,-13.963415145874023,110.09146881103516,-25.48780632019043,-7.949999809265137,-48.599998474121094,-3.299999952316284,37.96468734741211,0,
 695614,0.09765625,-0.154296875,-0.93359375,10.335366249084473,89.23780822753906,-21.067073822021484,-7.349999904632568,-47.25,-2.4000000953674316,37.96468734741211,0,
 695624,0.07275390625,-0.132568359375,-0.8837890625,27.98780632019043,65.1524429321289,-16.128049850463867,-7.800000190734863,-47.25,-3.450000047683716,38.395992279052734,0,
 695634,0.255126953125,-0.2900390625,-0.855712890625,37.59146499633789,70.51829528808594,-14.420732498168945,-8.850000381469727,-46.5,-1.649999976158142,38.15637969970703,0,
 695644,0.15673828125,-0.24365234375,-0.845458984375,19.542682647705078,55.60975646972656,-13.47560977935791,-8.100000381469727,-46.5,-3.9000000953674316,38.15637969970703,0,
 695654,0.29931640625,-0.262939453125,-0.76025390625,16.128049850463867,58.20122146606445,-10.060976028442383,-8.100000381469727,-46.5,-3.9000000953674316,38.25222396850586,0,
 695664,0.241455078125,-0.165771484375,-0.794921875,11.40243911743164,45.853660583496094,-10.030488014221191,-8.850000381469727,-46.04999923706055,-4.199999809265137,38.25222396850586,0,
 695674,0.177734375,-0.24462890625,-0.8701171875,29.725610733032227,37.0121955871582,-8.262195587158203,-8.699999809265137,-47.400001525878906,-0.30000001192092896,38.25222396850586,0,
 695684,0.150390625,-0.204833984375,-0.89111328125,16.0060977935791,36.40243911743164,-6.402439117431641,-8.399999618530273,-45.900001525878906,-1.0499999523162842,38.06053161621094,0,
 695694,0.16455078125,-0.203125,-0.892822265625,11.768293380737305,35.42683029174805,-7.256097793579102,-8.399999618530273,-45.900001525878906,-1.0499999523162842,38.108455657958984,0,
 695704,0.154052734375,-0.212646484375,-0.923828125,19.268293380737305,27.042682647705078,-2.22560977935791,-9.600000381469727,-46.5,-1.649999976158142,38.06053161621094,0,
 695714,0.117431640625,-0.226806640625,-0.94140625,17.13414764404297,25.518293380737305,-1.1890244483947754,-9.300000190734863,-45.599998474121094,-2.4000000953674316,38.25222396850586,0,
 695724,0.09912109375,-0.2705078125,-0.899658203125,19.817073822021484,21.79878044128418,0.15243902802467346,-8.399999618530273,-48.599998474121094,-0.30000001192092896,38.300148010253906,0,
 695735,0.0986328125,-0.301513671875,-0.92919921875,17.042682647705078,20.70121955871582,-1.3109756708145142,-9.600000381469727,-46.04999923706055,-0.44999998807907104,38.300148010253906,0,
 695745,0.11279296875,-0.343017578125,-0.93603515625,16.615854263305664,17.774391174316406,-2.4695122241973877,-9.600000381469727,-46.04999923706055,-0.44999998807907104,38.44391632080078,0,
 695755,0.093994140625,-0.34814453125,-0.964111328125,12.682927131652832,16.95121955871582,-3.841463565826416,-8.850000381469727,-46.04999923706055,-2.4000000953674316,38.108455657958984,0,
 695765,0.088623046875,-0.35595703125,-0.90283203125,11.646341323852539,12.042683601379395,-4.1768293380737305,-9.149999618530273,-45.900001525878906,-1.5,38.06053161621094,0,
 695775,0.078125,-0.345703125,-0.93896484375,6.7682929039001465,11.158536911010742,-4.359755992889404,-9.300000190734863,-46.5,-1.9500000476837158,38.15637969970703,0,
 695785,0.070556640625,-0.338134765625,-0.94580078125,4.634146213531494,10.884146690368652,-7.408536911010742,-9.300000190734863,-46.5,-1.9500000476837158,38.300148010253906,0,
 695795,0.10205078125,-0.3251953125,-0.941162109375,1.7073171138763428,7.256097793579102,-8.262195587158203,-8.399999618530273,-44.25,-1.5,37.96468734741211,0,
 695805,0.094482421875,-0.310302734375,-0.959716796875,0.8231707215309143,6.280488014221191,-8.59756088256836,-8.550000190734863,-46.5,-1.649999976158142,38.300148010253906,0,
 695815,0.114501953125,-0.29443359375,-0.9580078125,1.8292683362960815,2.77439022064209,-8.018292427062988,-9.149999618530273,-46.20000076293945,-1.0499999523162842,38.25222396850586,0,
 695825,0.09619140625,-0.28125,-0.930419921875,0.6402438879013062,2.9268293380737305,-8.04878044128418,-8.850000381469727,-46.04999923706055,-0.8999999761581421,38.300148010253906,0,
 695835,0.109375,-0.26611328125,-0.939697265625,0.8841463327407837,-0.27439025044441223,-6.646341800689697,-9.149999618530273,-46.20000076293945,-1.5,38.25222396850586,0,
 695845,0.093017578125,-0.249267578125,-0.953369140625,0.6402438879013062,-1.432926893234253,-2.7439024448394775,-8.699999809265137,-45.45000076293945,-0.75,38.108455657958984,0,
 695855,0.126953125,-0.24853515625,-0.949462890625,2.4695122241973877,-5.54878044128418,2.7439024448394775,-9.149999618530273,-45.150001525878906,0.30000001192092896,38.300148010253906,0,
 695865,0.0908203125,-0.237548828125,-0.978515625,4.237804889678955,-5.762195110321045,5.27439022064209,-9.149999618530273,-45.900001525878906,-1.0499999523162842,38.300148010253906,0,
 695875,0.088134765625,-0.258544921875,-0.924072265625,1.3109756708145142,-4.1768293380737305,5.121951103210449,-9.149999618530273,-45.900001525878906,-1.0499999523162842,38.25222396850586,0,
 695885,0.12841796875,-0.266845703125,-0.918701171875,-0.8841463327407837,-5.27439022064209,5.70121955871582,-8.850000381469727,-45.29999923706055,-1.649999976158142,38.06053161621094,0,
 695895,0.21875,-0.29931640625,-0.86669921875,-8.109756469726562,-8.719511985778809,9.329268455505371,-8.550000190734863,-45.599998474121094,-0.15000000596046448,38.108455657958984,0,
 695905,0.330078125,-0.286376953125,-0.82177734375,-13.932927131652832,-16.768293380737305,13.90243911743164,-10.050000190734863,-44.54999923706055,-0.44999998807907104,37.96468734741211,0,
 695915,0.46630859375,-0.313232421875,-0.730224609375,-24.93902587890625,-27.59146499633789,18.323171615600586,-10.050000190734863,-44.54999923706055,-0.44999998807907104,38.108455657958984,0,
 695925,0.509765625,-0.346435546875,-0.638916015625,-60.94512176513672,-36.219512939453125,30.18292808532715,-7.949999809265137,-45.45000076293945,-0.75,38.300148010253906,0,
 695935,0.754638671875,-0.34228515625,-0.47119140625,-109.11585998535156,-51.82926940917969,44.14634323120117,-9.449999809265137,-45.150001525878906,-1.7999999523162842,38.108455657958984,0,
 695945,1.197509765625,-0.2763671875,-0.272216796875,-144.69512939453125,-88.71951293945312,70.3963394165039,-8.850000381469727,-47.25,-1.2000000476837158,37.96468734741211,0,
 695955,1.543212890625,-0.18017578125,-0.068603515625,-130.09146118164062,-146.9207305908203,82.19512176513672,-7.199999809265137,-47.099998474121094,-1.5,38.44391632080078,0,
 695965,0.86181640625,-0.0830078125,-0.4501953125,-88.32317352294922,-221.37196350097656,65.2743911743164,-7.199999809265137,-47.099998474121094,-1.5,38.108455657958984,0,
 695975,0.533935546875,-0.093994140625,-0.5166015625,-50.03049087524414,-271.4024353027344,38.506099700927734,-5.25,-46.650001525878906,-5.550000190734863,38.108455657958984,0,
 695985,0.371826171875,0.126708984375,-0.775390625,-36.55487823486328,-320.33538818359375,25.15243911743164,-6.599999904632568,-47.70000076293945,-2.700000047683716,38.108455657958984,0,
 695995,-2.9345703125,1.212646484375,-2.653076171875,49.1158561706543,-403.32318115234375,-16.890243530273438,-6.75,-49.04999923706055,-5.25,38.06053161621094,0,
 696005,-4.92529296875,-0.430908203125,-2.302001953125,338.81097412109375,-527.5,-215.03048706054688,-6.75,-49.04999923706055,-5.25,38.15637969970703,0,
 696015,-4.421630859375,-2.685302734375,-1.795166015625,273.07928466796875,-59.969512939453125,-125.33536529541016,-4.650000095367432,-48.900001525878906,-5.699999809265137,38.25222396850586,0,
 696025,-1.912353515625,-0.60693359375,-0.93798828125,-73.10975646972656,108.38414764404297,6.402439117431641,-3.75,-47.400001525878906,-6.0,38.15637969970703,0,
 696035,-0.681396484375,-0.659423828125,-0.88671875,-24.268293380737305,145.7012176513672,76.46341705322266,-5.699999809265137,-47.099998474121094,-5.550000190734863,38.15637969970703,0,
 696045,-0.169921875,-0.385498046875,-0.9990234375,-197.34756469726562,303.993896484375,25.762195587158203,-5.25,-46.20000076293945,-4.050000190734863,38.06053161621094,0,
 696055,0.588134765625,-0.01708984375,-1.26171875,-267.7134094238281,266.1585388183594,-28.68902587890625,-5.25,-46.20000076293945,-4.050000190734863,38.06053161621094,0,
 696065,0.847900390625,0.123291015625,-0.127685546875,-202.8048858642578,119.35975646972656,26.829269409179688,-7.050000190734863,-49.650001525878906,-4.199999809265137,38.25222396850586,0,
 696075,0.70068359375,0.7041015625,-0.8544921875,-36.463417053222656,87.2256088256836,46.82926940917969,-4.650000095367432,-48.0,-6.900000095367432,38.15637969970703,0,
 696085,0.53125,0.0283203125,-0.3671875,82.56097412109375,4.420732021331787,-0.7317073345184326,-7.349999904632568,-49.650001525878906,-4.650000095367432,38.395992279052734,0,
 696095,0.328857421875,-0.170654296875,-0.97265625,39.17683029174805,7.134146690368652,4.054878234863281,-7.349999904632568,-49.650001525878906,-4.650000095367432,38.06053161621094,0,
 696105,0.137939453125,0.132080078125,-0.722412109375,-13.292683601379395,1.3414634466171265,-0.6707317233085632,-5.400000095367432,-48.900001525878906,-4.199999809265137,38.06053161621094,0,
 696115,-0.060791015625,-0.033447265625,-1.047119140625,86.92073059082031,-33.38414764404297,-9.329268455505371,-5.400000095367432,-48.0,-4.199999809265137,38.25222396850586,0,
 696125,-0.3125,-0.356201171875,-1.173583984375,165.94512939453125,-73.32317352294922,-27.65243911743164,-6.300000190734863,-49.20000076293945,-3.450000047683716,38.06053161621094,0,
 696135,-0.66552734375,-0.864990234375,-1.025146484375,185.82318115234375,-96.49390411376953,-27.042682647705078,-5.099999904632568,-48.45000076293945,-1.9500000476837158,38.300148010253906,0,
 696145,-0.796875,-0.87353515625,-0.928466796875,71.82926940917969,-38.871952056884766,-5.091463565826416,-5.099999904632568,-48.45000076293945,-1.9500000476837158,37.77299499511719,0,
 696155,-0.379638671875,-0.48486328125,-0.949951171875,-65.76219940185547,69.81707763671875,-8.658536911010742,-6.300000190734863,-49.20000076293945,-2.700000047683716,38.15637969970703,0,
 696165,-0.134521484375,-0.301513671875,-1.010986328125,-101.73780822753906,84.57317352294922,-5.792683124542236,-4.5,-47.849998474121094,-3.0,37.96468734741211,0,
 696175,-0.046630859375,-0.085205078125,-1.0146484375,-89.4817123413086,66.28048706054688,-1.737804889678955,-6.599999904632568,-48.900001525878906,-4.199999809265137,38.395992279052734,0,
 696185,0.124755859375,-0.036865234375,-0.97412109375,-46.64634323120117,45.88414764404297,-2.9268293380737305,-6.599999904632568,-48.900001525878906,-4.199999809265137,38.44391632080078,0,
 696195,0.05810546875,-0.070556640625,-0.914794921875,-0.5182926654815674,8.536585807800293,0.24390244483947754,-7.199999809265137,-47.849998474121094,-3.0,38.25222396850586,0,
 696205,0.0791015625,-0.185791015625,-0.864013671875,9.115854263305664,1.3109756708145142,4.817073345184326,-6.449999809265137,-48.599998474121094,-4.050000190734863,38.395992279052734,0,
 696215,0.1494140625,-0.14111328125,-0.874267578125,-10.487805366516113,3.2317073345184326,6.310975551605225,-7.800000190734863,-48.0,-3.1500000953674316,38.44391632080078,0,
 696225,0.150390625,-0.23193359375,-0.865478515625,5.182927131652832,-15.12195110321045,8.384146690368652,-7.800000190734863,-48.0,-3.1500000953674316,38.25222396850586,0,
 696235,-0.218017578125,-0.207275390625,-1.06005859375,16.219512939453125,-33.567073822021484,5.670732021331787,-7.800000190734863,-48.0,-3.1500000953674316,38.25222396850586,0,
 696245,-0.451171875,-0.34619140625,-1.006591796875,39.93902587890625,-39.42073440551758,-1.6463414430618286,-6.0,-49.04999923706055,-3.299999952316284,38.25222396850586,0,
 696275,-0.19384765625,-0.265869140625,-1.0009765625,-19.664634704589844,9.542683601379395,-1.3719512224197388,-6.300000190734863,-47.25,-4.650000095367432,38.395992279052734,0,
 696285,-0.130615234375,-0.21875,-0.97265625,-16.067073822021484,6.219512462615967,-2.6524391174316406,-6.449999809265137,-49.04999923706055,-6.0,37.96468734741211,0,
 696295,-0.2353515625,-0.14111328125,-1.083740234375,12.835366249084473,-3.5060975551605225,-2.591463565826416,-6.599999904632568,-48.900001525878906,-4.199999809265137,38.395992279052734,0,
 696305,-0.318359375,-0.277099609375,-1.00830078125,1.6158536672592163,6.890244007110596,-0.7621951103210449,-6.75,-48.599998474121094,-4.5,38.25222396850586,0,
 696315,-0.2197265625,-0.218505859375,-1.000244140625,-4.969512462615967,13.170731544494629,0.3353658616542816,-6.75,-48.599998474121094,-4.5,38.15637969970703,0,
 696325,-0.126708984375,-0.207763671875,-1.00927734375,-0.6097561120986938,8.353658676147461,1.1890244483947754,-6.75,-48.599998474121094,-4.5,38.25222396850586,0,
 696335,-0.110595703125,-0.231689453125,-0.973388671875,-1.097561001777649,6.280488014221191,0.5792682766914368,-7.050000190734863,-47.400001525878906,-2.549999952316284,37.91676330566406,0,
 696345,-0.1689453125,-0.233642578125,-1.009033203125,7.317073345184326,2.3475611209869385,-0.3353658616542816,-5.849999904632568,-48.0,-3.9000000953674316,38.108455657958984,0,
 696355,-0.274658203125,-0.30615234375,-1.0146484375,4.054878234863281,7.5,-2.103658676147461,-5.849999904632568,-48.0,-3.9000000953674316,38.49183654785156,0,
 696365,-0.322509765625,-0.321533203125,-1.0234375,-1.3414634466171265,15.82317066192627,-2.7439024448394775,-5.849999904632568,-48.0,-3.9000000953674316,38.395992279052734,0,
 696485,0.148193359375,-0.14599609375,-0.887451171875,10.670731544494629,55.79268264770508,-12.987805366516113,-9.300000190734863,-47.25,-2.4000000953674316,38.108455657958984,0,
 696495,0.1171875,-0.226318359375,-0.84521484375,31.40243911743164,44.14634323120117,-14.84756088256836,-9.300000190734863,-47.25,-2.4000000953674316,38.300148010253906,0,
 696505,0.184326171875,-0.2802734375,-0.83544921875,18.75,48.53658676147461,-13.262195587158203,-7.949999809265137,-47.400001525878906,-2.25,38.300148010253906,0,
 696515,0.194580078125,-0.238037109375,-0.87451171875,12.317073822021484,41.432926177978516,-8.87195110321045,-7.5,-45.900001525878906,-2.25,38.395992279052734,0,
 696525,0.11865234375,-0.27197265625,-0.894287109375,17.469512939453125,33.99390411376953,-9.84756088256836,-7.349999904632568,-46.5,-1.649999976158142,37.91676330566406,0,
 696535,0.158203125,-0.333740234375,-0.885986328125,16.524391174316406,34.35975646972656,-9.756097793579102,-7.349999904632568,-46.5,-1.649999976158142,37.91676330566406,0,
 696545,0.032958984375,-0.2666015625,-0.97021484375,9.45121955871582,26.95121955871582,-10.304878234863281,-8.699999809265137,-45.45000076293945,-3.0,38.395992279052734,0,
 696555,-0.01806640625,-0.355224609375,-0.94921875,19.024391174316406,25.121952056884766,-12.591464042663574,-8.399999618530273,-45.900001525878906,-1.5,38.15637969970703,0,
 696576,0.0625,-0.26513671875,-0.974853515625,9.146341323852539,21.890243530273438,-12.804878234863281,-7.949999809265137,-46.650001525878906,-1.0499999523162842,38.395992279052734,0,
 696586,0.04541015625,-0.23095703125,-0.991455078125,12.042683601379395,17.957317352294922,-10.182927131652832,-8.399999618530273,-47.849998474121094,-1.0499999523162842,37.96468734741211,0,
 696596,0.077392578125,-0.228515625,-0.98828125,9.84756088256836,20.914634704589844,-9.085366249084473,-5.849999904632568,-45.599998474121094,-4.199999809265137,38.15637969970703,0,
 696606,0.09912109375,-0.19482421875,-0.986083984375,6.981707572937012,18.5060977935791,-4.2682929039001465,-10.949999809265137,-45.45000076293945,-4.050000190734863,38.44391632080078,0,
 696616,0.029541015625,-0.211181640625,-0.95263671875,12.530488014221191,15.884146690368652,-3.2012195587158203,-8.399999618530273,-45.45000076293945,-3.0,38.108455657958984,0,
 696626,0.10009765625,-0.271484375,-0.940185546875,10.457317352294922,18.810976028442383,0.792682945728302,-8.399999618530273,-45.45000076293945,-3.0,38.15637969970703,0,
 696636,0.097412109375,-0.264892578125,-0.926513671875,7.5,14.329268455505371,3.6890244483947754,-8.399999618530273,-45.900001525878906,-3.0,37.96468734741211,0,
 696646,0.069580078125,-0.265869140625,-0.8818359375,9.756097793579102,10.670731544494629,3.628048896789551,-9.600000381469727,-46.04999923706055,-0.44999998807907104,38.06053161621094,0,
 696656,0.10205078125,-0.299072265625,-0.923095703125,8.292682647705078,13.658536911010742,1.6768293380737305,-9.300000190734863,-46.04999923706055,-0.8999999761581421,38.15637969970703,0,
 696666,0.119873046875,-0.287109375,-0.937255859375,7.22560977935791,10.54878044128418,2.195122003555298,-9.300000190734863,-46.04999923706055,-0.8999999761581421,37.91676330566406,0,
 696676,0.0869140625,-0.289794921875,-0.92822265625,6.646341800689697,8.993902206420898,1.097561001777649,-8.699999809265137,-46.20000076293945,-0.75,38.25222396850586,0,
 696686,0.1201171875,-0.28369140625,-0.932861328125,7.134146690368652,8.993902206420898,-0.7012194991111755,-8.550000190734863,-48.0,-4.199999809265137,38.25222396850586,0,
 696696,0.1337890625,-0.3076171875,-0.93603515625,6.646341800689697,5.182927131652832,-1.0670732259750366,-7.800000190734863,-45.29999923706055,-1.2000000476837158,38.15637969970703,0,
 696706,0.155517578125,-0.3134765625,-0.921142578125,3.2012195587158203,-4.207317352294922,4.29878044128418,-8.399999618530273,-45.900001525878906,-1.0499999523162842,38.587684631347656,0,
 696716,0.2021484375,-0.30712890625,-0.899169921875,1.0670732259750366,-11.615854263305664,9.603658676147461,-8.399999618530273,-45.900001525878906,-1.0499999523162842,38.108455657958984,0,
 696726,0.24658203125,-0.2626953125,-0.824951171875,-5.609755992889404,-12.37804889678955,5.030488014221191,-8.550000190734863,-44.849998474121094,-0.8999999761581421,37.91676330566406,0,
 696736,0.256103515625,-0.27978515625,-0.846435546875,-7.865853786468506,-17.7439022064209,6.493902683258057,-9.600000381469727,-46.79999923706055,-2.4000000953674316,38.395992279052734,0,
 696746,0.277099609375,-0.29931640625,-0.839111328125,-19.908536911010742,-20.39634132385254,10.762195587158203,-9.449999809265137,-46.650001525878906,-0.75,38.395992279052734,0,
 696756,0.41015625,-0.28759765625,-0.703125,-37.621952056884766,-29.39024543762207,21.64634132385254,-9.449999809265137,-46.650001525878906,-0.75,38.300148010253906,0,
 696766,0.64892578125,-0.27392578125,-0.5888671875,-68.07926940917969,-45.274391174316406,35.94512176513672,-8.100000381469727,-46.79999923706055,-1.649999976158142,38.300148010253906,0,
 696776,0.953857421875,-0.243408203125,-0.41015625,-105.33536529541016,-68.56707763671875,54.39024353027344,-10.949999809265137,-48.29999923706055,-1.7999999523162842,37.91676330566406,0,
 696786,1.203857421875,-0.2021484375,-0.251953125,-112.56098175048828,-111.06707763671875,71.6463394165039,-5.699999809265137,-47.400001525878906,-4.050000190734863,38.25222396850586,0,
 696796,1.115478515625,-0.08447265625,-0.216552734375,-84.54268646240234,-159.66464233398438,70.42683410644531,-7.800000190734863,-49.20000076293945,-2.700000047683716,38.15637969970703,0,
 696806,0.81494140625,-0.050537109375,-0.478271484375,-48.10975646972656,-198.65853881835938,64.78659057617188,-7.800000190734863,-49.20000076293945,-2.700000047683716,38.395992279052734,0,
 696816,0.578857421875,-0.097412109375,-0.574462890625,-23.140243530273438,-250.4573211669922,45.70122146606445,-6.599999904632568,-48.900001525878906,-3.9000000953674316,38.108455657958984,0,
 696826,-0.856689453125,0.32470703125,-1.625244140625,176.1280517578125,-357.2865905761719,-62.34756088256836,-5.699999809265137,-50.25,-4.050000190734863,38.06053161621094,0,
 696836,-3.946533203125,0.69775390625,-2.7880859375,376.5244140625,-178.26219177246094,-113.14024353027344,-4.949999809265137,-47.099998474121094,-4.050000190734863,38.300148010253906,0,
 696846,-3.522705078125,-2.387451171875,-0.75244140625,-34.63414764404297,8.87195110321045,-30.823171615600586,-4.949999809265137,-47.099998474121094,-4.050000190734863,38.108455657958984,0,
 696856,-2.3701171875,-0.757568359375,-2.0263671875,-24.481708526611328,72.95732116699219,40.7621955871582,-6.75,-47.400001525878906,-2.549999952316284,38.25222396850586,0,
 696866,-1.087890625,-0.4775390625,-1.191650390625,-101.28048706054688,169.2073211669922,29.69512176513672,-6.599999904632568,-47.70000076293945,-2.4000000953674316,38.395992279052734,0,
 696876,0.40380859375,-0.1865234375,-0.9560546875,-179.78659057617188,214.3292694091797,-5.304878234863281,-5.699999809265137,-48.29999923706055,-3.0,38.06053161621094,0,
 696886,0.903564453125,-0.062255859375,-0.7021484375,-172.07318115234375,155.94512939453125,1.0670732259750366,-6.75,-46.20000076293945,-5.550000190734863,38.44391632080078,0,
 696896,0.70263671875,0.231689453125,-0.52978515625,-91.67683410644531,64.84756469726562,47.8658561706543,-6.75,-46.20000076293945,-5.550000190734863,38.108455657958984,0,
 696906,0.6796875,0.171142578125,-0.60107421875,-36.98170852661133,32.774391174316406,7.103658676147461,-6.599999904632568,-48.45000076293945,-3.9000000953674316,38.25222396850586,0,
 696916,0.665283203125,-0.177001953125,-0.626708984375,50.4878044128418,-4.512195110321045,7.682927131652832,-7.800000190734863,-48.45000076293945,-3.1500000953674316,38.25222396850586,0,
 696926,0.59716796875,-0.212158203125,-0.640380859375,30.39634132385254,-24.84756088256836,7.77439022064209,-6.75,-47.099998474121094,-4.050000190734863,38.06053161621094,0,
 696936,0.40087890625,-0.178466796875,-0.794189453125,32.225608825683594,-52.65243911743164,4.146341323852539,-6.75,-47.099998474121094,-4.050000190734863,38.108455657958984,0,
 696946,0.052978515625,-0.305419921875,-0.934326171875,77.59146881103516,-93.96341705322266,-4.6646342277526855,-5.849999904632568,-48.900001525878906,-4.199999809265137,38.25222396850586,0,
 696956,-0.729248046875,-0.41748046875,-1.395263671875,113.68902587890625,-122.95732116699219,-12.195121765136719,-6.599999904632568,-49.20000076293945,-3.450000047683716,38.108455657958984,0,
 696966,-1.554443359375,-0.549072265625,-1.385986328125,120.7317123413086,-133.56707763671875,-36.25,-5.25,-47.849998474121094,-3.299999952316284,38.300148010253906,0,
 696976,-0.996826171875,-0.81982421875,-1.040283203125,48.01829528808594,-5.8231706619262695,-22.439023971557617,-7.199999809265137,-47.849998474121094,-2.549999952316284,37.91676330566406,0,
 696986,-0.51025390625,-0.205322265625,-1.28369140625,-70.82317352294922,56.371952056884766,-6.219512462615967,-7.199999809265137,-47.849998474121094,-2.549999952316284,38.49183654785156,0,
 696996,-0.1875,-0.1689453125,-1.0576171875,-51.1280517578125,61.49390411376953,5.152439117431641,-6.599999904632568,-49.650001525878906,-4.199999809265137,38.25222396850586,0,
 697006,-0.033203125,-0.087890625,-0.966552734375,-65.12195587158203,64.29878234863281,3.9939024448394775,-6.300000190734863,-46.79999923706055,-2.700000047683716,38.15637969970703,0,
 697016,0.170654296875,-0.09326171875,-0.878662109375,-55.7621955871582,59.20731735229492,-2.4695122241973877,-7.050000190734863,-48.0,-4.199999809265137,38.300148010253906,0,
 697026,0.190185546875,-0.083251953125,-0.86962890625,-17.10365867614746,28.780488967895508,6.737804889678955,-7.050000190734863,-48.0,-4.199999809265137,37.868839263916016,0,
 697036,0.15283203125,-0.2373046875,-0.8095703125,14.634146690368652,5.213414669036865,6.646341800689697,-5.099999904632568,-49.20000076293945,-3.450000047683716,38.06053161621094,0,
 697046,0.212158203125,-0.265625,-0.831787109375,5.0,1.920731782913208,6.79878044128418,-7.349999904632568,-47.70000076293945,-3.9000000953674316,38.300148010253906,0,
 697056,0.211669921875,-0.3017578125,-0.828125,4.420732021331787,-11.219511985778809,6.189024448394775,-7.050000190734863,-46.79999923706055,-3.450000047683716,38.300148010253906,0,
 697066,0.064697265625,-0.2998046875,-0.888427734375,10.914634704589844,-31.280488967895508,4.603658676147461,-5.400000095367432,-48.900001525878906,-2.700000047683716,38.300148010253906,0,
 697076,-0.13037109375,-0.328369140625,-0.977783203125,16.524391174316406,-41.98170852661133,2.408536672592163,-6.300000190734863,-48.45000076293945,-1.9500000476837158,38.25222396850586,0,
 697086,-0.505126953125,-0.263916015625,-1.12060546875,20.914634704589844,-48.780487060546875,-1.7073171138763428,-5.699999809265137,-47.099998474121094,-4.5,38.15637969970703,0,
 697096,-0.590576171875,-0.37255859375,-1.104736328125,30.274391174316406,-33.810977935791016,-4.6646342277526855,-5.25,-49.79999923706055,-5.550000190734863,38.15637969970703,0,
 697106,-0.431396484375,-0.309326171875,-1.113525390625,-1.5548781156539917,-3.9024391174316406,-3.5975611209869385,-7.199999809265137,-49.5,-3.75,37.91676330566406,0,
 697116,-0.357421875,-0.176025390625,-1.168212890625,-17.65243911743164,13.079268455505371,-1.3109756708145142,-7.199999809265137,-49.5,-3.75,38.395992279052734,0,
 697126,-0.31298828125,-0.240966796875,-1.037841796875,-3.75,14.237805366516113,-1.1890244483947754,-6.0,-47.099998474121094,-1.7999999523162842,38.15637969970703,0,
 697136,-0.177978515625,-0.21435546875,-1.027099609375,-10.27439022064209,22.164634704589844,-0.5487805008888245,-5.099999904632568,-49.20000076293945,-2.4000000953674316,38.15637969970703,0,
 697146,-0.079345703125,-0.22216796875,-0.981689453125,-6.890244007110596,22.042682647705078,0.21341463923454285,-6.300000190734863,-47.25,-3.450000047683716,38.25222396850586,0,
 697156,-0.02783203125,-0.24072265625,-0.92919921875,-3.1402440071105957,16.036584854125977,0.8841463327407837,-6.300000190734863,-47.25,-3.450000047683716,38.25222396850586,0,
 697166,0.001953125,-0.241455078125,-0.92333984375,0.3658536672592163,5.3353657722473145,1.432926893234253,-7.050000190734863,-47.25,-2.700000047683716,37.91676330566406,0,
 697176,0.033447265625,-0.2568359375,-0.90478515625,2.0731706619262695,-2.5304877758026123,1.5243902206420898,-7.349999904632568,-48.45000076293945,-3.1500000953674316,38.108455657958984,0,
 697196,-0.0009765625,-0.258056640625,-0.92333984375,0.030487805604934692,-14.02439022064209,1.4939024448394775,-5.099999904632568,-47.25,-4.199999809265137,37.96468734741211,0,
 697206,-0.125,-0.258056640625,-1.001708984375,9.268292427062988,-20.0,-2.0426828861236572,-5.099999904632568,-47.25,-4.199999809265137,38.395992279052734,0,
 697216,-0.41357421875,-0.255859375,-1.077880859375,14.512195587158203,-7.195122241973877,-2.987804889678955,-7.5,-49.04999923706055,-2.25,38.15637969970703,0,
 697226,-0.438720703125,-0.337890625,-1.071044921875,-1.1585365533828735,8.963415145874023,-2.5,-7.050000190734863,-46.79999923706055,-2.700000047683716,38.25222396850586,0,
 697236,-0.33251953125,-0.2861328125,-1.12060546875,-2.804877996444702,13.59756088256836,-4.2682929039001465,-7.5,-48.599998474121094,-4.050000190734863,38.300148010253906,0,
 697246,-0.3916015625,-0.235595703125,-1.0986328125,0.8841463327407837,24.542682647705078,-5.27439022064209,-7.5,-48.599998474121094,-4.050000190734863,38.15637969970703,0,
 697256,-0.28662109375,-0.29443359375,-1.054443359375,-4.054878234863281,28.53658676147461,-5.731707572937012,-6.449999809265137,-48.29999923706055,-3.299999952316284,37.91676330566406,0,
 697266,-0.251953125,-0.240234375,-1.061767578125,1.5243902206420898,31.158536911010742,-6.097560882568359,-6.449999809265137,-47.400001525878906,-3.75,38.300148010253906,0,
 697276,-0.2216796875,-0.291259765625,-1.04736328125,-1.4634146690368652,33.44512176513672,-7.469512462615967,-6.0,-47.849998474121094,-3.0,38.44391632080078,0,
 697286,-0.19091796875,-0.255859375,-0.99462890625,-0.5182926654815674,37.408538818359375,-7.378048896789551,-5.849999904632568,-48.0,-2.700000047683716,38.25222396850586,0,
 697296,-0.158447265625,-0.248779296875,-1.057861328125,8.140244483947754,31.95121955871582,-9.29878044128418,-5.849999904632568,-48.0,-2.700000047683716,38.25222396850586,0,
 697306,-0.248779296875,-0.301513671875,-1.0126953125,2.9268293380737305,41.524391174316406,-10.457317352294922,-6.300000190734863,-48.45000076293945,-2.700000047683716,38.395992279052734,0,
 697316,-0.246337890625,-0.2861328125,-1.046142578125,5.97560977935791,45.213417053222656,-12.012195587158203,-6.300000190734863,-48.0,-2.700000047683716,38.108455657958984,0,
 697326,-0.265869140625,-0.305419921875,-1.075439453125,6.158536911010742,50.70122146606445,-15.0,-5.849999904632568,-47.25,-3.450000047683716,38.25222396850586,0,
 697336,-0.288330078125,-0.298095703125,-1.119873046875,5.884146690368652,58.07926940917969,-18.963415145874023,-5.849999904632568,-47.25,-3.450000047683716,38.300148010253906,0,
 697346,-0.304443359375,-0.268798828125,-1.109375,13.231707572937012,56.89024353027344,-23.719512939453125,-6.599999904632568,-46.79999923706055,-1.649999976158142,38.395992279052734,0,
 697357,-0.037841796875,-0.318603515625,-0.98681640625,17.042682647705078,62.13414764404297,-21.768293380737305,-7.5,-46.650001525878906,-1.7999999523162842,38.300148010253906,0,
 697367,0.093994140625,-0.205078125,-0.964599609375,6.341463565826416,54.57317352294922,-16.036584854125977,-8.100000381469727,-45.599998474121094,-2.700000047683716,37.96468734741211,0,
 697377,0.02783203125,-0.180908203125,-0.95166015625,10.884146690368652,46.79878234863281,-14.542683601379395,-8.100000381469727,-45.29999923706055,-1.649999976158142,38.108455657958984,0,
 697407,0.00537109375,-0.295166015625,-0.895751953125,29.39024543762207,35.914634704589844,-10.70121955871582,-9.899999618530273,-49.04999923706055,-3.75,38.15637969970703,0,
 697417,0.189208984375,-0.286865234375,-0.8974609375,9.329268455505371,44.024391174316406,-8.719511985778809,-9.149999618530273,-46.20000076293945,-1.7999999523162842,38.108455657958984,0,
 697427,0.071044921875,-0.240966796875,-0.962646484375,14.542683601379395,31.18902587890625,-8.231707572937012,-9.149999618530273,-46.20000076293945,-1.7999999523162842,38.06053161621094,0,
 697437,0.09130859375,-0.33740234375,-0.8974609375,22.7439022064209,31.58536720275879,-10.182927131652832,-6.75,-47.099998474121094,-2.25,38.25222396850586,0,
 697447,0.125732421875,-0.274658203125,-0.944580078125,9.57317066192627,28.871952056884766,-8.993902206420898,-6.599999904632568,-46.04999923706055,-1.649999976158142,38.25222396850586,0,
 697457,0.074462890625,-0.303955078125,-0.911865234375,19.237804412841797,20.18292808532715,-8.75,-6.449999809265137,-45.900001525878906,-2.549999952316284,37.96468734741211,0,
 697467,0.161376953125,-0.28955078125,-0.9013671875,9.664634704589844,23.810976028442383,-8.689024925231934,-8.399999618530273,-47.400001525878906,-0.75,37.868839263916016,0,
 697477,0.161376953125,-0.245849609375,-0.908447265625,5.8231706619262695,18.231708526611328,-6.371951580047607,-8.399999618530273,-47.400001525878906,-0.75,38.06053161621094,0,
 697487,0.131591796875,-0.24072265625,-0.889892578125,9.664634704589844,13.079268455505371,-5.304878234863281,-7.050000190734863,-44.099998474121094,-1.649999976158142,38.300148010253906,0,
 697497,0.156982421875,-0.26953125,-0.869873046875,8.963415145874023,13.079268455505371,-5.030488014221191,-10.050000190734863,-44.54999923706055,-0.44999998807907104,38.25222396850586,0,
 697507,0.16015625,-0.2470703125,-0.885009765625,5.4268293380737305,10.182927131652832,-2.2865853309631348,-7.5,-47.099998474121094,-2.25,38.395992279052734,0,
 697517,0.138916015625,-0.29638671875,-0.9111328125,7.5,7.621951580047607,-1.8597561120986938,-7.5,-47.099998474121094,-2.25,37.96468734741211,0,
 697527,0.175048828125,-0.303955078125,-0.906494140625,4.1768293380737305,4.2682929039001465,-0.4573170840740204,-8.850000381469727,-45.599998474121094,-0.44999998807907104,38.15637969970703,0,
 697537,0.213134765625,-0.316162109375,-0.87646484375,2.0731706619262695,-3.4146342277526855,2.5609755516052246,-9.600000381469727,-46.04999923706055,-1.2000000476837158,38.395992279052734,0,
 697547,0.25439453125,-0.284423828125,-0.809814453125,0.060975611209869385,-11.463415145874023,9.542683601379395,-7.949999809265137,-45.900001525878906,-2.25,38.44391632080078,0,
 697557,0.265869140625,-0.27587890625,-0.8330078125,-6.79878044128418,-15.670732498168945,9.17682933807373,-9.149999618530273,-45.45000076293945,-2.549999952316284,38.108455657958984,0,
 697567,0.239501953125,-0.32861328125,-0.826904296875,-8.810976028442383,-20.213415145874023,7.77439022064209,-9.149999618530273,-45.45000076293945,-2.549999952316284,38.06053161621094,0,
 697577,0.3935546875,-0.34130859375,-0.747802734375,-23.59756088256836,-22.10365867614746,13.993903160095215,-8.100000381469727,-45.29999923706055,-0.8999999761581421,38.300148010253906,0,
 697587,0.646484375,-0.28564453125,-0.6015625,-43.75,-33.567073822021484,25.213415145874023,-7.800000190734863,-46.5,-2.4000000953674316,38.300148010253906,0,
 697597,0.864501953125,-0.2265625,-0.438720703125,-72.92683410644531,-51.98170852661133,38.01829528808594,-8.699999809265137,-47.099998474121094,-1.5,37.96468734741211,0,
 697607,1.1630859375,-0.208251953125,-0.310546875,-91.31097412109375,-75.0,57.469512939453125,-8.699999809265137,-47.099998474121094,-1.5,38.15637969970703,0,
 697617,1.072265625,-0.134765625,-0.30615234375,-106.9817123413086,-106.58536529541016,65.57926940917969,-10.050000190734863,-48.45000076293945,-1.9500000476837158,38.300148010253906,0,
 697627,0.8466796875,-0.06591796875,-0.45703125,-53.32317352294922,-186.7987823486328,48.871952056884766,-7.199999809265137,-48.599998474121094,-3.75,38.06053161621094,0,
 697637,0.588134765625,-0.105224609375,-0.6005859375,-24.29878044128418,-245.51829528808594,32.469512939453125,-6.599999904632568,-47.70000076293945,-3.9000000953674316,38.108455657958984,0,
 697647,-0.52197265625,0.251708984375,-1.37939453125,129.57318115234375,-342.9268493652344,-40.0,-6.599999904632568,-47.70000076293945,-3.9000000953674316,38.395992279052734,0,
 697657,-3.0703125,0.71923828125,-2.319091796875,331.8902587890625,-249.90853881835938,-100.24390411376953,-5.849999904632568,-46.79999923706055,-3.1500000953674316,38.06053161621094,0,
 697667,-3.275146484375,-1.4345703125,-1.36376953125,52.59146499633789,-59.08536911010742,-61.7378044128418,-4.650000095367432,-46.04999923706055,-4.949999809265137,38.108455657958984,0,
 697677,-2.713134765625,-1.36279296875,-2.235595703125,-37.92683029174805,72.53048706054688,27.65243911743164,-5.699999809265137,-47.400001525878906,-3.299999952316284,38.395992279052734,0,
 697687,-1.4189453125,-0.3798828125,-1.257080078125,-46.98170852661133,123.75,37.59146499633789,-6.449999809265137,-48.29999923706055,-3.299999952316284,38.15637969970703,0,
 697697,-0.912109375,-0.4287109375,-1.201416015625,-137.9268341064453,192.28659057617188,-1.6768293380737305,-6.449999809265137,-48.29999923706055,-3.299999952316284,38.25222396850586,0,
 697707,-0.130615234375,-0.27392578125,-0.918212890625,-151.85975646972656,178.32318115234375,-4.72560977935791,-4.949999809265137,-46.20000076293945,-4.800000190734863,38.06053161621094,0,
 697717,0.659423828125,-0.208251953125,-0.828369140625,-103.4756088256836,93.75,37.92683029174805,-6.75,-49.04999923706055,-3.299999952316284,38.108455657958984,0,
 697727,0.7587890625,0.003662109375,-0.432861328125,-79.57317352294922,75.42683410644531,30.0,-6.300000190734863,-49.650001525878906,-4.650000095367432,38.108455657958984,0,
 697737,0.730224609375,0.271484375,-0.918701171875,-10.731707572937012,15.42682933807373,6.25,-6.300000190734863,-49.650001525878906,-4.650000095367432,38.300148010253906,0,
 697747,0.426513671875,0.0947265625,-0.434814453125,57.774391174316406,-14.664634704589844,1.8902438879013062,-7.050000190734863,-49.650001525878906,-4.199999809265137,38.25222396850586,0,
 697757,0.158203125,-0.104248046875,-0.915283203125,86.58536529541016,-29.93902587890625,-2.1646342277526855,-6.300000190734863,-50.099998474121094,-4.650000095367432,37.868839263916016,0,
 697767,-0.017578125,-0.25439453125,-0.888671875,104.54268646240234,-48.07926940917969,-17.439023971557617,-7.050000190734863,-48.900001525878906,-3.450000047683716,38.108455657958984,0,
 697777,-0.204345703125,-0.422607421875,-1.0810546875,107.83536529541016,-58.17073440551758,-16.09756088256836,-6.0,-47.849998474121094,-3.75,38.15637969970703,0,
 697787,-0.626953125,-0.56689453125,-1.02099609375,37.103660583496094,-29.7560977935791,-6.036585330963135,-6.0,-47.849998474121094,-3.75,38.300148010253906,0,
 697817,-0.072509765625,-0.13232421875,-1.02001953125,-42.80487823486328,44.35975646972656,-6.432927131652832,-6.449999809265137,-49.04999923706055,-3.299999952316284,38.15637969970703,0,
 697827,0.0302734375,-0.050537109375,-0.955322265625,-27.378049850463867,33.2621955871582,-2.4695122241973877,-6.449999809265137,-49.04999923706055,-3.299999952316284,38.108455657958984,0,
 697837,0.110595703125,-0.105224609375,-0.890380859375,-5.579268455505371,21.189023971557617,2.4390244483947754,-8.399999618530273,-47.849998474121094,-2.549999952316284,38.25222396850586,0,
 697847,0.139404296875,-0.17822265625,-0.8681640625,1.6768293380737305,9.786585807800293,6.036585330963135,-7.349999904632568,-48.45000076293945,-3.9000000953674316,38.15637969970703,0,
 697857,0.215087890625,-0.261474609375,-0.836181640625,2.4695122241973877,3.5060975551605225,8.292682647705078,-7.050000190734863,-47.70000076293945,-2.700000047683716,38.15637969970703,0,
 697867,0.193115234375,-0.301025390625,-0.831298828125,5.609755992889404,-13.932927131652832,8.932927131652832,-5.849999904632568,-46.79999923706055,-1.2000000476837158,38.25222396850586,0,
 697877,0.085693359375,-0.32861328125,-0.85693359375,8.75,-28.9939022064209,7.042683124542236,-5.849999904632568,-46.79999923706055,-1.2000000476837158,38.395992279052734,0,
 697897,-0.003173828125,-0.288330078125,-0.948486328125,-6.8597564697265625,-36.76829528808594,4.542683124542236,-6.599999904632568,-48.0,-4.650000095367432,38.25222396850586,0,
 697907,-0.415771484375,-0.1806640625,-1.13427734375,-0.5487805008888245,-48.32317352294922,0.7012194991111755,-5.849999904632568,-48.0,-3.450000047683716,37.96468734741211,0,
 697917,-0.560546875,-0.308837890625,-1.10546875,23.53658676147461,-42.80487823486328,-4.0853657722473145,-5.849999904632568,-48.0,-3.450000047683716,38.300148010253906,0,
 697927,-0.4560546875,-0.288330078125,-1.108642578125,7.469512462615967,-18.93292808532715,-2.987804889678955,-6.300000190734863,-47.25,-3.450000047683716,38.15637969970703,0,
 697937,-0.294677734375,-0.233154296875,-1.111083984375,-4.237804889678955,-3.2012195587158203,1.8292683362960815,-5.699999809265137,-49.5,-5.550000190734863,38.06053161621094,0,
 697947,-0.285888671875,-0.20654296875,-1.061767578125,-10.97560977935791,1.6768293380737305,2.682926893234253,-5.400000095367432,-49.650001525878906,-4.199999809265137,38.395992279052734,0,
 697957,-0.20068359375,-0.2490234375,-1.014404296875,-3.9634146690368652,5.579268455505371,2.987804889678955,-7.050000190734863,-48.45000076293945,-3.1500000953674316,38.06053161621094,0,
 697967,-0.1416015625,-0.2548828125,-0.986572265625,-2.5609755516052246,5.3353657722473145,2.2865853309631348,-7.050000190734863,-48.45000076293945,-3.1500000953674316,38.25222396850586,0,
 697977,-0.14794921875,-0.260986328125,-0.96484375,-0.09146341681480408,1.4634146690368652,2.0426828861236572,-5.25,-46.650001525878906,-3.0,38.15637969970703,0,
 697987,-0.083251953125,-0.271728515625,-0.94482421875,-1.0365853309631348,4.29878044128418,1.585365891456604,-5.400000095367432,-48.0,-3.9000000953674316,38.108455657958984,0,
 697997,-0.06787109375,-0.239013671875,-0.96435546875,-3.5060975551605225,0.792682945728302,1.3109756708145142,-7.050000190734863,-48.900001525878906,-4.199999809265137,38.44391632080078,0,
 698007,-0.1015625,-0.28271484375,-0.955810546875,3.0182926654815674,-5.243902683258057,0.9756097793579102,-7.050000190734863,-48.900001525878906,-4.199999809265137,38.06053161621094,0,
 698117,-0.183349609375,-0.268310546875,-1.021728515625,0.8536585569381714,24.725610733032227,-5.396341800689697,-6.599999904632568,-46.5,-6.449999809265137,38.15637969970703,0,
 698137,-0.35595703125,-0.31787109375,-1.07861328125,3.7804877758026123,36.70731735229492,-12.103658676147461,-4.949999809265137,-48.29999923706055,-4.5,38.25222396850586,0,
 698147,-0.403076171875,-0.2861328125,-1.113037109375,12.286585807800293,43.658538818359375,-13.445122718811035,-4.949999809265137,-48.29999923706055,-4.5,38.06053161621094,0,
 698157,-0.400634765625,-0.3662109375,-1.131103515625,6.432927131652832,52.13414764404297,-19.207317352294922,-6.599999904632568,-47.70000076293945,-3.450000047683716,38.25222396850586,0,
 698168,-0.56494140625,-0.265869140625,-1.19677734375,12.408536911010742,75.60975646972656,-22.560976028442383,-7.349999904632568,-46.5,-2.4000000953674316,38.15637969970703,0,
 698178,-0.39013671875,-0.3681640625,-1.13623046875,3.5365853309631348,79.66463470458984,-26.03658676147461,-7.349999904632568,-47.25,-3.450000047683716,38.300148010253906,0,
 698188,-0.28125,-0.239990234375,-1.066162109375,6.615853786468506,86.67683410644531,-22.225610733032227,-7.349999904632568,-47.25,-3.450000047683716,38.15637969970703,0,
 698198,0.087646484375,-0.249267578125,-1.08154296875,20.091463088989258,53.871952056884766,-18.567073822021484,-8.100000381469727,-47.70000076293945,-1.649999976158142,38.25222396850586,0,
 698208,-0.118408203125,-0.162353515625,-0.9912109375,30.54878044128418,64.69512176513672,-19.390243530273438,-8.550000190734863,-47.25,-3.1500000953674316,38.15637969970703,0,
 698218,0.071533203125,-0.31494140625,-0.8486328125,7.256097793579102,62.256099700927734,-12.987805366516113,-7.349999904632568,-45.599998474121094,-3.9000000953674316,38.25222396850586,0,
 698228,0.214111328125,-0.197021484375,-0.8955078125,22.012195587158203,46.89024353027344,-12.286585807800293,-8.100000381469727,-48.900001525878906,-3.1500000953674316,38.06053161621094,0,
 698238,0.17724609375,-0.265625,-0.857177734375,10.914634704589844,49.32926940917969,-13.20121955871582,-7.5,-46.650001525878906,-1.7999999523162842,38.300148010253906,0,
 698248,0.19775390625,-0.25146484375,-0.842041015625,11.554878234863281,41.067073822021484,-10.609756469726562,-8.100000381469727,-46.5,-1.2000000476837158,38.06053161621094,0,
 698258,0.180908203125,-0.2890625,-0.869140625,18.414634704589844,35.09146499633789,-10.884146690368652,-8.100000381469727,-47.70000076293945,-2.700000047683716,38.06053161621094,0,
 698268,0.173828125,-0.258544921875,-0.91162109375,11.585366249084473,31.49390411376953,-11.09756088256836,-9.149999618530273,-45.900001525878906,-1.5,38.395992279052734,0,
 698278,0.124267578125,-0.264404296875,-0.927490234375,14.84756088256836,24.7560977935791,-10.792683601379395,-9.149999618530273,-45.900001525878906,-1.5,38.25222396850586,0,
 698288,0.083740234375,-0.25732421875,-0.914306640625,16.25,20.762195587158203,-10.15243911743164,-9.300000190734863,-46.04999923706055,-1.9500000476837158,38.108455657958984,0,
 698298,0.108642578125,-0.254638671875,-0.932373046875,11.79878044128418,20.518293380737305,-7.0731706619262695,-8.699999809265137,-46.20000076293945,-1.0499999523162842,37.96468734741211,0,
 698328,0.07177734375,-0.2978515625,-0.94091796875,7.896341800689697,13.262195587158203,-2.5609755516052246,-8.699999809265137,-47.400001525878906,-3.0,38.25222396850586,0,
 698338,0.138671875,-0.319091796875,-0.8779296875,8.109756469726562,12.134146690368652,-2.591463565826416,-9.149999618530273,-45.900001525878906,0.0,38.300148010253906,0,
 698348,0.197265625,-0.298095703125,-0.88037109375,3.7195122241973877,9.512195587158203,-1.1585365533828735,-9.149999618530273,-45.150001525878906,-3.0,37.96468734741211,0,
 698358,0.241455078125,-0.3173828125,-0.861083984375,1.8292683362960815,4.756097793579102,-0.7317073345184326,-10.199999809265137,-45.150001525878906,-1.7999999523162842,38.25222396850586,0,
 698368,0.240966796875,-0.3330078125,-0.8447265625,-0.3048780560493469,-4.695122241973877,1.8292683362960815,-10.199999809265137,-45.150001525878906,-1.7999999523162842,38.15637969970703,0,
 698378,0.260009765625,-0.300537109375,-0.803466796875,-2.865853786468506,-13.018293380737305,9.054878234863281,-8.550000190734863,-45.599998474121094,-2.4000000953674316,38.15637969970703,0,
 698388,0.25146484375,-0.2919921875,-0.834228515625,-9.02439022064209,-16.707317352294922,6.189024448394775,-7.949999809265137,-46.20000076293945,-0.75,38.395992279052734,0,
 698398,0.225341796875,-0.3193359375,-0.82177734375,-9.84756088256836,-21.463415145874023,4.603658676147461,-8.699999809265137,-45.45000076293945,-2.25,38.15637969970703,0,
 698408,0.374755859375,-0.318359375,-0.736328125,-20.762195587158203,-24.268293380737305,10.0,-8.699999809265137,-45.45000076293945,-2.25,38.15637969970703,0,
 698418,0.48876953125,-0.245361328125,-0.69873046875,-40.67073440551758,-32.835365295410156,18.231708526611328,-8.850000381469727,-44.849998474121094,-1.649999976158142,37.96468734741211,0,
 698428,0.759521484375,-0.254150390625,-0.522216796875,-55.64024353027344,-47.164634704589844,31.89024543762207,-9.300000190734863,-48.45000076293945,-2.4000000953674316,38.300148010253906,0,
 698438,1.03369140625,-0.221923828125,-0.358154296875,-86.5243911743164,-65.64024353027344,47.3780517578125,-7.800000190734863,-47.25,-3.1500000953674316,38.300148010253906,0,
 698448,0.97021484375,-0.12451171875,-0.353515625,-98.75,-98.87195587158203,59.29878234863281,-7.349999904632568,-46.5,-2.4000000953674316,38.15637969970703,0,
 698458,0.754638671875,-0.096923828125,-0.509521484375,-78.38414764404297,-139.0853729248047,59.48170852661133,-7.349999904632568,-46.5,-2.4000000953674316,38.25222396850586,0,
 698468,0.544921875,-0.1630859375,-0.62060546875,-54.2378044128418,-166.9512176513672,53.414634704589844,-7.050000190734863,-48.900001525878906,-3.1500000953674316,38.15637969970703,0,
