timestamp,accl_x,accl_y,accl_z,gyro_x,gyro_y,gyro_z,mag_x,mag_y,mag_z,temp,emg,
 220442,-0.039794921875,-0.9775390625,-0.010498046875,-0.6402438879013062,0.21341463923454285,0.27439025044441223,-15.600000381469727,-8.25,-9.0,37.006229400634766,0,
 220452,-0.0380859375,-0.981689453125,-0.0068359375,-0.5792682766914368,0.15243902802467346,0.18292683362960815,-13.5,-11.550000190734863,-10.199999809265137,37.10207748413086,0,
 220462,-0.034423828125,-0.978515625,-0.00927734375,-0.3048780560493469,0.24390244483947754,0.18292683362960815,-13.350000381469727,-9.899999618530273,-8.25,37.05415344238281,0,
 220472,-0.040283203125,-0.97705078125,-0.009033203125,-0.4878048896789551,0.060975611209869385,0.5792682766914368,-13.649999618530273,-9.899999618530273,-10.050000190734863,36.91038513183594,0,
 220482,-0.03564453125,-0.97705078125,-0.005615234375,-0.9146341681480408,0.396341472864151,0.21341463923454285,-13.649999618530273,-9.899999618530273,-10.050000190734863,37.05415344238281,0,
 220492,-0.035888671875,-0.9814453125,-0.013671875,-0.6402438879013062,0.21341463923454285,0.060975611209869385,-14.100000381469727,-9.0,-9.0,36.814537048339844,0,
 220502,-0.034423828125,-0.976806640625,-0.008544921875,-0.5792682766914368,0.396341472864151,0.18292683362960815,-15.75,-8.399999618530273,-8.699999809265137,37.006229400634766,0,
 220512,-0.038330078125,-0.982421875,-0.010986328125,-0.3353658616542816,0.5487805008888245,0.3353658616542816,-14.25,-9.600000381469727,-7.650000095367432,37.006229400634766,0,
 220522,-0.040283203125,-0.977294921875,-0.00439453125,-0.4268292784690857,0.3658536672592163,0.060975611209869385,-14.25,-9.600000381469727,-7.650000095367432,37.006229400634766,0,
 220542,-0.035400390625,-0.974853515625,-0.00537109375,-0.3658536672592163,0.15243902802467346,0.12195122241973877,-14.850000381469727,-10.199999809265137,-9.300000190734863,36.91038513183594,0,
 220562,-0.041259765625,-0.970947265625,-0.00927734375,-0.5792682766914368,0.396341472864151,0.3048780560493469,-15.449999809265137,-10.350000381469727,-7.650000095367432,37.34169006347656,0,
 220582,-0.037841796875,-0.974365234375,-0.0068359375,-0.3353658616542816,0.21341463923454285,0.4573170840740204,-14.399999618530273,-9.899999618530273,-8.550000190734863,37.19792175292969,0,
 220592,-0.038330078125,-0.97998046875,-0.008544921875,-0.7621951103210449,0.21341463923454285,-0.030487805604934692,-13.800000190734863,-9.600000381469727,-9.149999618530273,37.05415344238281,0,
 220602,-0.03857421875,-0.9765625,-0.009765625,-0.4268292784690857,0.27439025044441223,0.5182926654815674,-14.399999618530273,-9.449999809265137,-8.550000190734863,36.91038513183594,0,
 220622,-0.0419921875,-0.9775390625,-0.013916015625,-0.3353658616542816,0.4268292784690857,0.24390244483947754,-14.25,-10.050000190734863,-9.449999809265137,37.10207748413086,0,
 220642,-0.0380859375,-0.978515625,-0.00390625,-0.5182926654815674,0.5487805008888245,-0.060975611209869385,-15.0,-8.850000381469727,-9.149999618530273,37.006229400634766,0,
 220652,-0.040283203125,-0.978515625,-0.00341796875,-0.9756097793579102,0.4268292784690857,0.3658536672592163,-14.25,-11.25,-10.949999809265137,37.05415344238281,0,
 220662,-0.042724609375,-0.97705078125,-0.008056640625,-0.3048780560493469,0.3353658616542816,0.09146341681480408,-14.25,-11.25,-10.949999809265137,37.006229400634766,0,
 220672,-0.037841796875,-0.98046875,-0.008544921875,-0.3353658616542816,0.5182926654815674,0.060975611209869385,-14.399999618530273,-9.449999809265137,-8.550000190734863,37.19792175292969,0,
 220682,-0.039306640625,-0.981689453125,-0.006591796875,-0.5792682766914368,0.5792682766914368,0.27439025044441223,-14.699999809265137,-10.050000190734863,-7.199999809265137,36.86246109008789,0,
 220692,-0.04052734375,-0.979248046875,-0.005859375,-0.18292683362960815,0.3658536672592163,0.21341463923454285,-14.699999809265137,-10.350000381469727,-8.399999618530273,37.05415344238281,0,
 220702,-0.031982421875,-0.9775390625,-0.00732421875,-0.7621951103210449,0.4268292784690857,0.3048780560493469,-14.699999809265137,-10.350000381469727,-8.399999618530273,37.006229400634766,0,
 220712,-0.03564453125,-0.9775390625,-0.01171875,-0.7621951103210449,0.4878048896789551,0.09146341681480408,-14.699999809265137,-10.350000381469727,-8.399999618530273,36.86246109008789,0,
 220732,-0.039794921875,-0.977783203125,-0.007568359375,-0.4573170840740204,0.09146341681480408,0.5487805008888245,-14.399999618530273,-8.699999809265137,-7.050000190734863,37.05415344238281,0,
 220742,-0.037841796875,-0.976318359375,-0.0078125,-0.6097561120986938,0.09146341681480408,0.3353658616542816,-16.200000762939453,-10.050000190734863,-7.650000095367432,37.245845794677734,0,
 220752,-0.041015625,-0.97412109375,-0.00439453125,-0.4268292784690857,0.3353658616542816,0.21341463923454285,-14.25,-8.850000381469727,-10.949999809265137,37.006229400634766,0,
 220762,-0.03662109375,-0.977294921875,-0.011962890625,-0.3048780560493469,0.3353658616542816,0.396341472864151,-14.25,-8.850000381469727,-10.949999809265137,36.814537048339844,0,
 220772,-0.03955078125,-0.977294921875,-0.005126953125,-0.3353658616542816,0.0,0.396341472864151,-14.699999809265137,-8.399999618530273,-8.699999809265137,37.006229400634766,0,
 220782,-0.040283203125,-0.976806640625,-0.0078125,-0.12195122241973877,0.3048780560493469,0.3658536672592163,-15.449999809265137,-9.300000190734863,-7.650000095367432,37.006229400634766,0,
 220792,-0.036865234375,-0.977294921875,-0.0068359375,-0.5182926654815674,0.09146341681480408,-0.030487805604934692,-14.25,-9.300000190734863,-8.399999618530273,37.19792175292969,0,
 220812,-0.0390625,-0.979248046875,-0.007568359375,-0.4878048896789551,0.09146341681480408,0.15243902802467346,-14.699999809265137,-9.300000190734863,-9.449999809265137,36.86246109008789,0,
 220832,-0.037353515625,-0.97412109375,-0.016357421875,-0.6402438879013062,0.27439025044441223,0.4878048896789551,-14.850000381469727,-10.199999809265137,-9.0,37.006229400634766,0,
 220863,-0.042724609375,-0.97705078125,-0.01025390625,-0.5792682766914368,-0.030487805604934692,0.27439025044441223,-13.800000190734863,-10.350000381469727,-8.399999618530273,37.006229400634766,0,
 220873,-0.038818359375,-0.972412109375,-0.00732421875,-0.3658536672592163,0.3353658616542816,0.4878048896789551,-15.0,-10.800000190734863,-9.899999618530273,37.245845794677734,0,
 220883,-0.038330078125,-0.979248046875,-0.010986328125,-0.9451219439506531,0.0,0.21341463923454285,-14.399999618530273,-9.0,-8.25,37.05415344238281,0,
 220893,-0.035888671875,-0.97607421875,-0.005615234375,-0.6402438879013062,0.3658536672592163,0.060975611209869385,-15.449999809265137,-8.100000381469727,-7.199999809265137,36.814537048339844,0,
 220903,-0.03564453125,-0.9755859375,-0.010009765625,-0.5182926654815674,0.5792682766914368,0.24390244483947754,-15.449999809265137,-8.100000381469727,-7.199999809265137,37.006229400634766,0,
 220913,-0.037353515625,-0.98095703125,-0.01171875,-0.6707317233085632,0.27439025044441223,0.18292683362960815,-14.100000381469727,-10.649999618530273,-8.550000190734863,36.86246109008789,0,
 220933,-0.03662109375,-0.975830078125,-0.01416015625,-0.6707317233085632,0.3048780560493469,0.18292683362960815,-15.449999809265137,-8.399999618530273,-8.699999809265137,36.86246109008789,0,
 220943,-0.036376953125,-0.982177734375,-0.005615234375,-0.3658536672592163,0.5487805008888245,0.15243902802467346,-15.449999809265137,-8.399999618530273,-8.699999809265137,37.245845794677734,0,
 220953,-0.033935546875,-0.97802734375,-0.014892578125,-0.4268292784690857,0.21341463923454285,0.15243902802467346,-13.350000381469727,-9.899999618530273,-8.25,37.10207748413086,0,
 220963,-0.039794921875,-0.97607421875,-0.006591796875,-0.6402438879013062,0.4878048896789551,0.24390244483947754,-15.600000381469727,-9.449999809265137,-9.0,36.718692779541016,0,
 220973,-0.037841796875,-0.974853515625,-0.0087890625,-0.8231707215309143,0.4268292784690857,0.24390244483947754,-14.100000381469727,-9.899999618530273,-9.75,37.34169006347656,0,
 220983,-0.0400390625,-0.9775390625,-0.006591796875,-0.5487805008888245,0.3048780560493469,0.15243902802467346,-14.100000381469727,-10.949999809265137,-7.5,37.19792175292969,0,
 220993,-0.030517578125,-0.97998046875,-0.00537109375,-0.27439025044441223,0.27439025044441223,0.21341463923454285,-14.100000381469727,-10.949999809265137,-7.5,36.718692779541016,0,
 221003,-0.040283203125,-0.97998046875,-0.009521484375,-0.4573170840740204,0.4573170840740204,0.396341472864151,-13.5,-10.050000190734863,-8.699999809265137,37.05415344238281,0,
 221013,-0.0380859375,-0.9794921875,-0.00830078125,-0.6707317233085632,0.18292683362960815,0.09146341681480408,-14.850000381469727,-10.199999809265137,-8.25,37.006229400634766,0,
 221023,-0.038330078125,-0.97802734375,-0.009765625,-0.5487805008888245,0.21341463923454285,0.3048780560493469,-15.0,-10.350000381469727,-9.149999618530273,37.006229400634766,0,
 221053,-0.034423828125,-0.97216796875,-0.00537109375,-0.7012194991111755,0.3048780560493469,0.3658536672592163,-14.699999809265137,-10.050000190734863,-8.399999618530273,36.86246109008789,0,
 221063,-0.040283203125,-0.978515625,-0.008056640625,-0.21341463923454285,0.24390244483947754,0.21341463923454285,-14.699999809265137,-10.800000190734863,-9.899999618530273,37.006229400634766,0,
 221073,-0.0380859375,-0.97900390625,-0.009765625,-0.4878048896789551,0.5792682766914368,0.18292683362960815,-13.350000381469727,-10.949999809265137,-7.5,36.91038513183594,0,
 221083,-0.04052734375,-0.977294921875,-0.0087890625,-0.8231707215309143,0.5182926654815674,0.27439025044441223,-13.350000381469727,-10.949999809265137,-7.5,37.05415344238281,0,
 221093,-0.041259765625,-0.978271484375,-0.0107421875,-0.5487805008888245,0.24390244483947754,0.15243902802467346,-14.399999618530273,-9.899999618530273,-7.5,37.006229400634766,0,
 221103,-0.03759765625,-0.9765625,-0.01123046875,-0.6707317233085632,0.24390244483947754,0.18292683362960815,-14.25,-10.800000190734863,-9.149999618530273,36.86246109008789,0,
 221113,-0.03564453125,-0.980224609375,-0.004638671875,-0.4878048896789551,0.5487805008888245,0.15243902802467346,-14.850000381469727,-10.199999809265137,-8.550000190734863,36.86246109008789,0,
 221123,-0.0380859375,-0.98046875,-0.00732421875,-0.7012194991111755,0.21341463923454285,0.3353658616542816,-14.25,-9.300000190734863,-9.149999618530273,37.10207748413086,0,
 221143,-0.0419921875,-0.9755859375,-0.008056640625,-0.5792682766914368,0.21341463923454285,0.5182926654815674,-13.800000190734863,-11.25,-9.149999618530273,37.245845794677734,0,
 221163,-0.03857421875,-0.977294921875,-0.009521484375,-0.24390244483947754,0.3658536672592163,0.27439025044441223,-14.25,-6.0,-8.699999809265137,37.006229400634766,0,
 221173,-0.039794921875,-0.9775390625,-0.007568359375,-0.5182926654815674,-0.030487805604934692,0.060975611209869385,-14.25,-9.600000381469727,-7.650000095367432,37.10207748413086,0,
 221183,-0.04345703125,-0.974365234375,-0.013916015625,-0.15243902802467346,0.12195122241973877,0.27439025044441223,-14.25,-9.600000381469727,-7.650000095367432,37.05415344238281,0,
 221193,-0.03564453125,-0.9775390625,-0.0087890625,-0.7317073345184326,0.060975611209869385,0.24390244483947754,-15.899999618530273,-8.699999809265137,-8.550000190734863,37.10207748413086,0,
 221203,-0.039794921875,-0.97314453125,-0.00830078125,-0.3048780560493469,0.15243902802467346,0.18292683362960815,-15.149999618530273,-10.199999809265137,-9.0,37.245845794677734,0,
 221213,-0.039794921875,-0.9814453125,-0.0107421875,-0.5182926654815674,0.27439025044441223,0.030487805604934692,-16.200000762939453,-10.350000381469727,-7.650000095367432,37.006229400634766,0,
 221223,-0.036865234375,-0.977294921875,-0.0126953125,-0.24390244483947754,0.4878048896789551,0.09146341681480408,-16.200000762939453,-10.350000381469727,-7.650000095367432,37.10207748413086,0,
 221233,-0.03857421875,-0.98291015625,-0.0087890625,-0.3353658616542816,0.24390244483947754,0.4573170840740204,-13.350000381469727,-10.949999809265137,-8.25,36.91038513183594,0,
 221243,-0.03955078125,-0.97900390625,-0.007568359375,-0.4268292784690857,0.24390244483947754,0.4573170840740204,-14.399999618530273,-9.899999618530273,-9.300000190734863,37.19792175292969,0,
 221253,-0.038330078125,-0.97802734375,-0.01416015625,-0.5182926654815674,0.3048780560493469,0.5792682766914368,-14.699999809265137,-8.399999618530273,-7.650000095367432,36.814537048339844,0,
 221263,-0.034912109375,-0.9765625,-0.01220703125,-0.6097561120986938,0.4573170840740204,0.12195122241973877,-14.699999809265137,-9.600000381469727,-9.899999618530273,37.19792175292969,0,
 221283,-0.02685546875,-0.98046875,-0.007080078125,-0.8231707215309143,0.15243902802467346,0.3353658616542816,-13.649999618530273,-9.449999809265137,-8.550000190734863,36.86246109008789,0,
 221293,-0.041259765625,-0.97705078125,-0.0068359375,-0.12195122241973877,0.21341463923454285,0.15243902802467346,-13.050000190734863,-9.300000190734863,-6.900000095367432,37.10207748413086,0,
 221303,-0.04248046875,-0.97802734375,-0.0068359375,-0.5182926654815674,0.18292683362960815,0.4268292784690857,-13.800000190734863,-10.800000190734863,-7.949999809265137,36.86246109008789,0,
 221313,-0.03564453125,-0.979736328125,-0.00634765625,-0.4268292784690857,0.15243902802467346,0.12195122241973877,-14.699999809265137,-10.800000190734863,-7.949999809265137,37.10207748413086,0,
 221323,-0.042724609375,-0.977783203125,-0.008544921875,-0.7317073345184326,0.24390244483947754,0.4268292784690857,-14.699999809265137,-10.800000190734863,-7.949999809265137,37.34169006347656,0,
 221333,-0.03759765625,-0.9775390625,-0.0068359375,-0.4268292784690857,0.15243902802467346,0.3658536672592163,-12.899999618530273,-10.949999809265137,-7.800000190734863,37.006229400634766,0,
 221343,-0.040771484375,-0.978759765625,-0.005615234375,-0.396341472864151,0.27439025044441223,0.15243902802467346,-14.850000381469727,-9.449999809265137,-7.5,36.91038513183594,0,
 221353,-0.036865234375,-0.98046875,-0.00732421875,-0.6707317233085632,0.3048780560493469,0.4573170840740204,-12.899999618530273,-9.449999809265137,-8.550000190734863,37.10207748413086,0,
 221373,-0.0390625,-0.9794921875,-0.009033203125,-0.3048780560493469,0.12195122241973877,0.21341463923454285,-15.899999618530273,-12.600000381469727,-7.800000190734863,37.19792175292969,0,
 221383,-0.03515625,-0.9775390625,-0.008544921875,-0.27439025044441223,0.18292683362960815,0.3353658616542816,-14.100000381469727,-9.0,-8.25,36.91038513183594,0,
 221403,-0.0390625,-0.98388671875,-0.0068359375,-0.5487805008888245,0.396341472864151,0.4268292784690857,-14.25,-10.350000381469727,-7.949999809265137,36.814537048339844,0,
 221413,-0.04248046875,-0.98193359375,-0.0048828125,-0.18292683362960815,0.396341472864151,0.15243902802467346,-14.25,-10.350000381469727,-7.949999809265137,37.245845794677734,0,
 221423,-0.0400390625,-0.97509765625,-0.0087890625,-0.5792682766914368,0.12195122241973877,0.12195122241973877,-14.100000381469727,-9.449999809265137,-9.0,37.245845794677734,0,
 221433,-0.0400390625,-0.976806640625,-0.00634765625,-0.6402438879013062,0.4573170840740204,0.3353658616542816,-13.5,-8.399999618530273,-8.399999618530273,36.86246109008789,0,
 221443,-0.035888671875,-0.979248046875,-0.0078125,-0.5792682766914368,0.21341463923454285,0.3048780560493469,-13.5,-9.300000190734863,-7.199999809265137,37.10207748413086,0,
 221453,-0.034423828125,-0.9765625,-0.0107421875,-0.4268292784690857,0.15243902802467346,0.12195122241973877,-13.5,-10.350000381469727,-8.699999809265137,37.05415344238281,0,
 221473,-0.04150390625,-0.971435546875,-0.013916015625,-0.6402438879013062,0.3048780560493469,-0.030487805604934692,-14.100000381469727,-10.649999618530273,-10.5,37.245845794677734,0,
 221483,-0.042236328125,-0.975830078125,-0.004638671875,-0.24390244483947754,0.12195122241973877,0.4268292784690857,-14.25,-11.25,-8.699999809265137,37.10207748413086,0,
 221503,-0.046630859375,-0.979248046875,-0.01220703125,-0.396341472864151,0.3658536672592163,0.09146341681480408,-14.699999809265137,-10.050000190734863,-7.650000095367432,37.19792175292969,0,
 221513,-0.037353515625,-0.97607421875,-0.008544921875,-0.396341472864151,0.12195122241973877,0.3353658616542816,-14.699999809265137,-10.050000190734863,-7.650000095367432,37.006229400634766,0,
 221533,-0.039794921875,-0.9775390625,-0.008056640625,-0.4878048896789551,0.3658536672592163,0.4268292784690857,-15.75,-10.050000190734863,-8.699999809265137,37.34169006347656,0,
 221553,-0.031982421875,-0.976318359375,-0.006591796875,-0.4573170840740204,0.4268292784690857,0.4268292784690857,-15.75,-10.050000190734863,-8.699999809265137,37.006229400634766,0,
 221563,-0.037353515625,-0.977294921875,-0.01220703125,-0.4268292784690857,0.4268292784690857,0.12195122241973877,-14.699999809265137,-10.050000190734863,-7.949999809265137,37.05415344238281,0,
 221583,-0.03662109375,-0.97900390625,-0.010498046875,-0.396341472864151,0.24390244483947754,0.27439025044441223,-15.149999618530273,-10.199999809265137,-8.550000190734863,37.05415344238281,0,
 221593,-0.03271484375,-0.975830078125,-0.00634765625,-0.7317073345184326,0.3353658616542816,0.4268292784690857,-15.149999618530273,-10.199999809265137,-8.550000190734863,36.86246109008789,0,
 221603,-0.037841796875,-0.9794921875,-0.008056640625,-0.21341463923454285,0.3353658616542816,0.24390244483947754,-15.149999618530273,-10.199999809265137,-8.550000190734863,37.10207748413086,0,
 221613,-0.03759765625,-0.978515625,-0.0048828125,-0.4268292784690857,0.24390244483947754,0.0,-15.149999618530273,-10.649999618530273,-7.800000190734863,37.38961410522461,0,
 221624,-0.034912109375,-0.978759765625,-0.00830078125,-0.4268292784690857,0.3048780560493469,0.4268292784690857,-14.850000381469727,-9.449999809265137,-7.800000190734863,37.34169006347656,0,
 221644,-0.037841796875,-0.9814453125,-0.007568359375,-0.3353658616542816,0.060975611209869385,0.4878048896789551,-15.149999618530273,-9.449999809265137,-7.800000190734863,37.006229400634766,0,
 221654,-0.0380859375,-0.97900390625,-0.01025390625,-0.5487805008888245,0.3353658616542816,0.18292683362960815,-12.149999618530273,-9.449999809265137,-7.800000190734863,37.19792175292969,0,
 221664,-0.0390625,-0.978271484375,-0.008544921875,-0.5182926654815674,0.3353658616542816,0.3048780560493469,-15.149999618530273,-9.449999809265137,-9.0,37.006229400634766,0,
 221674,-0.037841796875,-0.974853515625,-0.010009765625,-0.3353658616542816,0.12195122241973877,0.21341463923454285,-15.0,-12.0,-9.149999618530273,37.006229400634766,0,
 221684,-0.038818359375,-0.9716796875,-0.014892578125,-0.4878048896789551,0.3353658616542816,0.3658536672592163,-15.0,-12.0,-9.149999618530273,37.19792175292969,0,
 221704,-0.034912109375,-0.978515625,-0.005859375,-0.6707317233085632,0.3353658616542816,0.09146341681480408,-12.600000381469727,-9.449999809265137,-10.050000190734863,37.006229400634766,0,
 221714,-0.04248046875,-0.9765625,-0.005615234375,-0.6707317233085632,0.24390244483947754,0.21341463923454285,-15.0,-9.300000190734863,-9.899999618530273,37.10207748413086,0,
 221724,-0.0380859375,-0.9794921875,-0.0087890625,-1.1280487775802612,0.396341472864151,0.18292683362960815,-14.100000381469727,-9.449999809265137,-8.550000190734863,36.86246109008789,0,
 221734,-0.03369140625,-0.97900390625,-0.005126953125,-0.6402438879013062,0.3048780560493469,0.6097561120986938,-14.100000381469727,-9.449999809265137,-8.550000190734863,36.91038513183594,0,
 221744,-0.044677734375,-0.977294921875,-0.008056640625,-0.4878048896789551,0.12195122241973877,0.15243902802467346,-15.0,-10.050000190734863,-9.149999618530273,36.86246109008789,0,
 221754,-0.041259765625,-0.977294921875,-0.0068359375,-0.792682945728302,0.3658536672592163,0.15243902802467346,-13.800000190734863,-10.350000381469727,-7.949999809265137,37.006229400634766,0,
 221764,-0.036865234375,-0.97705078125,-0.0068359375,-0.4573170840740204,0.3353658616542816,0.3658536672592163,-14.399999618530273,-8.699999809265137,-8.550000190734863,37.006229400634766,0,
 221774,-0.0390625,-0.97998046875,-0.0078125,-0.6707317233085632,0.18292683362960815,0.3658536672592163,-15.899999618530273,-10.949999809265137,-9.0,37.05415344238281,0,
 221784,-0.039306640625,-0.97705078125,-0.009765625,-0.3658536672592163,0.4573170840740204,0.27439025044441223,-15.899999618530273,-10.949999809265137,-9.0,36.86246109008789,0,
 221794,-0.041259765625,-0.975830078125,-0.01220703125,-0.27439025044441223,0.3353658616542816,0.5182926654815674,-14.399999618530273,-8.699999809265137,-7.800000190734863,37.006229400634766,0,
 221804,-0.04248046875,-0.977783203125,-0.008056640625,-0.5182926654815674,0.21341463923454285,0.030487805604934692,-15.75,-9.600000381469727,-10.199999809265137,37.10207748413086,0,
 221814,-0.04541015625,-0.97705078125,-0.00244140625,-0.3658536672592163,0.060975611209869385,0.18292683362960815,-12.899999618530273,-10.199999809265137,-7.800000190734863,37.006229400634766,0,
 221824,-0.03759765625,-0.9814453125,-0.007080078125,-0.4268292784690857,0.060975611209869385,0.21341463923454285,-12.899999618530273,-10.199999809265137,-7.800000190734863,37.19792175292969,0,
 221834,-0.0400390625,-0.98095703125,-0.006103515625,-0.5792682766914368,0.21341463923454285,0.030487805604934692,-12.75,-10.800000190734863,-9.149999618530273,37.006229400634766,0,
 221844,-0.03515625,-0.974609375,-0.01171875,-0.6707317233085632,0.4878048896789551,0.3353658616542816,-15.149999618530273,-8.25,-7.050000190734863,37.006229400634766,0,
 221874,-0.041015625,-0.9765625,-0.01025390625,-0.7317073345184326,0.3658536672592163,0.15243902802467346,-14.699999809265137,-9.600000381469727,-8.699999809265137,37.006229400634766,0,
 221884,-0.03662109375,-0.986572265625,-0.009033203125,-0.4268292784690857,0.09146341681480408,0.15243902802467346,-15.75,-12.449999809265137,-7.949999809265137,37.05415344238281,0,
 221894,-0.0380859375,-0.97607421875,-0.0107421875,-0.3658536672592163,0.5487805008888245,0.3658536672592163,-13.050000190734863,-10.800000190734863,-9.149999618530273,37.19792175292969,0,
 221904,-0.04150390625,-0.97607421875,-0.009033203125,-0.3353658616542816,0.060975611209869385,0.09146341681480408,-14.100000381469727,-10.649999618530273,-9.300000190734863,37.006229400634766,0,
 221914,-0.03564453125,-0.979248046875,-0.00830078125,-0.6097561120986938,0.3048780560493469,0.3048780560493469,-15.449999809265137,-10.050000190734863,-9.899999618530273,37.10207748413086,0,
 221924,-0.040283203125,-0.976806640625,-0.001708984375,-0.27439025044441223,0.4268292784690857,0.4878048896789551,-15.449999809265137,-10.050000190734863,-9.899999618530273,37.006229400634766,0,
 221934,-0.03857421875,-0.9736328125,-0.007080078125,-0.24390244483947754,0.396341472864151,0.4268292784690857,-13.800000190734863,-10.800000190734863,-8.699999809265137,37.34169006347656,0,
 221944,-0.039306640625,-0.978271484375,-0.0068359375,-0.5487805008888245,0.3658536672592163,0.396341472864151,-15.600000381469727,-10.199999809265137,-9.0,37.006229400634766,0,
 221954,-0.040283203125,-0.9794921875,-0.00830078125,-0.12195122241973877,0.396341472864151,0.24390244483947754,-14.100000381469727,-10.199999809265137,-9.0,37.19792175292969,0,
 221974,-0.03564453125,-0.979736328125,-0.0068359375,-0.5487805008888245,0.15243902802467346,0.09146341681480408,-14.100000381469727,-7.5,-10.050000190734863,37.19792175292969,0,
 221994,-0.04150390625,-0.979248046875,-0.008544921875,-0.8231707215309143,0.15243902802467346,0.6097561120986938,-15.600000381469727,-10.949999809265137,-9.0,37.10207748413086,0,
 222004,-0.03857421875,-0.974365234375,-0.0107421875,-0.4878048896789551,0.24390244483947754,0.27439025044441223,-15.0,-10.800000190734863,-7.949999809265137,37.006229400634766,0,
 222014,-0.037841796875,-0.9775390625,-0.009033203125,-0.5487805008888245,0.3353658616542816,0.3658536672592163,-15.0,-10.800000190734863,-7.949999809265137,37.006229400634766,0,
 222024,-0.03759765625,-0.974365234375,-0.0087890625,-0.4878048896789551,0.21341463923454285,0.21341463923454285,-14.699999809265137,-10.350000381469727,-7.949999809265137,37.05415344238281,0,
 222034,-0.04150390625,-0.976318359375,-0.006103515625,-0.4878048896789551,0.27439025044441223,0.396341472864151,-13.350000381469727,-9.449999809265137,-10.050000190734863,36.814537048339844,0,
 222044,-0.04150390625,-0.977294921875,-0.014404296875,-0.7012194991111755,0.21341463923454285,0.27439025044441223,-14.25,-10.800000190734863,-10.199999809265137,36.86246109008789,0,
 222054,-0.03759765625,-0.970458984375,-0.0078125,-0.6402438879013062,-0.18292683362960815,0.6707317233085632,-15.449999809265137,-11.25,-9.149999618530273,37.006229400634766,0,
 222064,-0.036376953125,-0.977783203125,-0.00537109375,-0.4573170840740204,0.3048780560493469,0.396341472864151,-15.449999809265137,-11.25,-9.149999618530273,37.245845794677734,0,
 222084,-0.040771484375,-0.974609375,-0.008544921875,-0.4878048896789551,0.27439025044441223,0.27439025044441223,-15.449999809265137,-10.050000190734863,-7.650000095367432,36.91038513183594,0,
 222094,-0.040283203125,-0.976318359375,-0.00927734375,-0.6097561120986938,0.060975611209869385,0.3658536672592163,-13.5,-11.25,-8.699999809265137,37.19792175292969,0,
 222104,-0.04150390625,-0.976806640625,-0.00439453125,-0.8231707215309143,0.3658536672592163,0.3658536672592163,-13.5,-11.25,-8.699999809265137,37.05415344238281,0,
 222114,-0.038330078125,-0.98046875,-0.00390625,-0.6707317233085632,0.24390244483947754,0.3353658616542816,-14.100000381469727,-7.800000190734863,-8.25,37.34169006347656,0,
 222124,-0.036376953125,-0.983642578125,-0.006103515625,-0.8231707215309143,0.3048780560493469,0.21341463923454285,-15.600000381469727,-8.699999809265137,-8.550000190734863,37.006229400634766,0,
 222154,-0.037841796875,-0.97705078125,-0.009765625,-0.3353658616542816,0.24390244483947754,0.3353658616542816,-14.100000381469727,-9.449999809265137,-9.0,37.10207748413086,0,
 222164,-0.041748046875,-0.97412109375,-0.00830078125,-0.15243902802467346,0.3353658616542816,0.15243902802467346,-16.950000762939453,-9.300000190734863,-8.699999809265137,36.814537048339844,0,
 222184,-0.036865234375,-0.9775390625,-0.005859375,-0.4268292784690857,0.24390244483947754,0.396341472864151,-15.0,-10.800000190734863,-10.199999809265137,37.006229400634766,0,
 222194,-0.033935546875,-0.9775390625,-0.003173828125,-0.6707317233085632,0.21341463923454285,0.3658536672592163,-14.399999618530273,-10.199999809265137,-9.0,37.006229400634766,0,
 222204,-0.037353515625,-0.97900390625,-0.009521484375,-0.4573170840740204,0.5487805008888245,0.0,-14.399999618530273,-10.199999809265137,-9.0,37.006229400634766,0,
 222214,-0.046875,-0.97509765625,-0.0078125,-0.5487805008888245,0.27439025044441223,0.09146341681480408,-14.850000381469727,-10.649999618530273,-9.0,37.19792175292969,0,
 222224,-0.036376953125,-0.973388671875,-0.008544921875,-0.792682945728302,0.396341472864151,0.396341472864151,-14.100000381469727,-9.899999618530273,-9.0,37.006229400634766,0,
 222234,-0.03515625,-0.976806640625,-0.013916015625,-0.4878048896789551,0.060975611209869385,0.3048780560493469,-14.399999618530273,-8.699999809265137,-8.550000190734863,37.006229400634766,0,
 222244,-0.0361328125,-0.986328125,0.000732421875,-0.7621951103210449,0.5182926654815674,0.24390244483947754,-14.399999618530273,-8.699999809265137,-8.550000190734863,36.86246109008789,0,
 222254,-0.03466796875,-0.982666015625,-0.00439453125,-1.1585365533828735,0.4573170840740204,0.7012194991111755,-14.100000381469727,-10.199999809265137,-9.300000190734863,36.91038513183594,0,
 222264,-0.03271484375,-0.961669921875,-0.01318359375,-1.2804877758026123,0.396341472864151,0.9451219439506531,-14.850000381469727,-10.949999809265137,-7.5,37.006229400634766,0,
 222274,-0.031005859375,-0.9833984375,-0.00439453125,-1.4634146690368652,0.6402438879013062,1.920731782913208,-15.75,-10.050000190734863,-9.149999618530273,37.006229400634766,0,
 222285,-0.04150390625,-0.984619140625,-0.009521484375,-2.1341464519500732,0.3048780560493469,1.737804889678955,-13.050000190734863,-11.25,-8.699999809265137,36.814537048339844,0,
 222295,-0.0390625,-0.997802734375,0.004638671875,-2.77439022064209,0.18292683362960815,2.9573171138763428,-13.050000190734863,-11.25,-8.699999809265137,37.10207748413086,0,
 222305,-0.039794921875,-1.02587890625,-0.005126953125,-3.9939024448394775,-0.12195122241973877,3.5975611209869385,-14.699999809265137,-9.600000381469727,-9.449999809265137,36.91038513183594,0,
 222315,-0.039306640625,-1.023193359375,-0.001953125,-6.341463565826416,-0.6097561120986938,5.579268455505371,-14.850000381469727,-10.199999809265137,-7.5,37.006229400634766,0,
 222325,-0.04833984375,-1.0380859375,0.001708984375,-8.536585807800293,-2.0426828861236572,9.17682933807373,-14.399999618530273,-9.899999618530273,-7.800000190734863,37.006229400634766,0,
 222335,-0.048583984375,-1.072509765625,-0.006591796875,-9.908536911010742,-4.359755992889404,15.396342277526855,-14.699999809265137,-9.600000381469727,-8.399999618530273,37.006229400634766,0,
 222345,-0.093505859375,-1.07666015625,-0.01708984375,-11.25,-7.286585330963135,21.280488967895508,-14.699999809265137,-9.600000381469727,-8.399999618530273,37.19792175292969,0,
 222355,-0.15625,-1.07861328125,-0.0048828125,-9.329268455505371,-7.195122241973877,25.54878044128418,-14.25,-9.600000381469727,-7.199999809265137,37.006229400634766,0,
 222365,-0.199951171875,-1.078369140625,0.046630859375,-0.27439025044441223,-3.9634146690368652,28.5060977935791,-14.850000381469727,-9.449999809265137,-7.800000190734863,36.814537048339844,0,
 222375,-0.232177734375,-1.344482421875,0.057861328125,19.84756088256836,-1.3719512224197388,28.719512939453125,-11.699999809265137,-10.199999809265137,-8.550000190734863,37.245845794677734,0,
 222385,-0.196044921875,-1.644287109375,-0.015869140625,32.34756088256836,0.3353658616542816,18.414634704589844,-11.699999809265137,-10.199999809265137,-8.550000190734863,37.34169006347656,0,
 222395,-0.19677734375,-1.739013671875,-0.114501953125,4.146341323852539,2.5609755516052246,-21.981708526611328,-14.100000381469727,-10.199999809265137,-10.5,37.006229400634766,0,
 222405,-0.266845703125,-1.502197265625,-0.135498046875,-11.52439022064209,6.615853786468506,-28.20121955871582,-12.899999618530273,-9.899999618530273,-10.050000190734863,37.006229400634766,0,
 222415,-0.322998046875,-1.190185546875,-0.101806640625,-13.384146690368652,13.04878044128418,-20.731708526611328,-11.550000190734863,-10.800000190734863,-9.149999618530273,37.006229400634766,0,
 222425,-0.34716796875,-0.94921875,-0.048583984375,-1.8597561120986938,21.158536911010742,-8.810976028442383,-14.100000381469727,-10.649999618530273,-10.050000190734863,36.91038513183594,0,
 222435,-0.32763671875,-0.939208984375,-0.025390625,11.585366249084473,29.63414764404297,-1.9817073345184326,-14.100000381469727,-10.649999618530273,-10.050000190734863,37.245845794677734,0,
 222445,-0.260986328125,-1.09521484375,-0.043701171875,15.487805366516113,35.73170852661133,-4.390244007110596,-11.399999618530273,-9.899999618530273,-8.25,37.10207748413086,0,
 222455,-0.18408203125,-1.189208984375,-0.05322265625,8.567073822021484,38.68902587890625,-9.84756088256836,-11.399999618530273,-9.899999618530273,-9.0,37.05415344238281,0,
 222465,-0.145751953125,-1.1083984375,-0.03662109375,0.5182926654815674,37.0121955871582,-11.09756088256836,-11.25,-10.350000381469727,-8.699999809265137,37.245845794677734,0,
 222475,-0.131103515625,-0.92724609375,0.0068359375,-2.865853786468506,31.79878044128418,-6.310975551605225,-11.25,-10.800000190734863,-10.199999809265137,36.718692779541016,0,
 222485,-0.110595703125,-0.78564453125,0.054443359375,-2.103658676147461,24.7560977935791,1.5548781156539917,-11.25,-10.800000190734863,-10.199999809265137,37.006229400634766,0,
 222495,-0.07275390625,-0.765625,0.066162109375,0.396341472864151,17.073171615600586,5.243902683258057,-12.149999618530273,-8.699999809265137,-9.75,37.245845794677734,0,
 222505,-0.031005859375,-0.8134765625,0.062255859375,1.3719512224197388,8.780488014221191,2.317073106765747,-11.25,-11.25,-10.199999809265137,37.05415344238281,0,
 222515,-0.010498046875,-0.8427734375,0.04541015625,-0.6707317233085632,1.1890244483947754,-3.6890244483947754,-9.449999809265137,-12.149999618530273,-9.75,37.10207748413086,0,
 222525,-0.0166015625,-0.816650390625,0.02880859375,-1.6463414430618286,-5.579268455505371,-11.158536911010742,-9.899999618530273,-11.850000381469727,-10.050000190734863,37.006229400634766,0,
 222535,-0.03955078125,-0.73193359375,0.015869140625,-1.5243902206420898,-10.487805366516113,-15.792683601379395,-9.899999618530273,-11.850000381469727,-10.050000190734863,37.245845794677734,0,
 222545,-0.0869140625,-0.63916015625,-0.0341796875,-2.0426828861236572,-12.865854263305664,-15.457317352294922,-8.699999809265137,-10.649999618530273,-10.5,37.10207748413086,0,
 222555,-0.16943359375,-0.510498046875,-0.0986328125,-2.1646342277526855,-13.170731544494629,-13.963415145874023,-10.949999809265137,-10.199999809265137,-9.75,37.006229400634766,0,
 222565,-0.18994140625,-0.500732421875,-0.12109375,-3.2317073345184326,-11.920731544494629,-12.77439022064209,-9.449999809265137,-10.949999809265137,-9.75,37.34169006347656,0,
 222575,-0.18603515625,-0.469482421875,-0.12548828125,-3.75,-8.32317066192627,-13.963415145874023,-9.449999809265137,-10.949999809265137,-9.75,36.718692779541016,0,
 222585,-0.17529296875,-0.44921875,-0.135498046875,-3.170731782913208,-4.054878234863281,-17.469512939453125,-9.149999618530273,-10.649999618530273,-9.300000190734863,37.245845794677734,0,
 222595,-0.162841796875,-0.43505859375,-0.12939453125,-2.865853786468506,-0.09146341681480408,-22.713415145874023,-9.449999809265137,-12.149999618530273,-10.800000190734863,37.10207748413086,0,
 222605,-0.13916015625,-0.456298828125,-0.133056640625,-1.1585365533828735,4.29878044128418,-32.43902587890625,-9.600000381469727,-10.050000190734863,-9.449999809265137,37.006229400634766,0,
 222615,-0.139404296875,-0.379150390625,-0.14306640625,-0.8536585569381714,8.20121955871582,-44.45122146606445,-9.899999618530273,-9.899999618530273,-9.75,36.86246109008789,0,
 222625,-0.162841796875,-0.174560546875,-0.113525390625,-6.402439117431641,12.408536911010742,-48.963417053222656,-9.899999618530273,-9.899999618530273,-9.75,36.86246109008789,0,
 222635,-0.16845703125,0.01611328125,-0.05859375,-10.0,15.060976028442383,-41.25,-7.5,-11.399999618530273,-9.300000190734863,37.10207748413086,0,
 222645,-0.125244140625,0.090576171875,-0.007080078125,-10.945121765136719,15.15243911743164,-24.329269409179688,-8.850000381469727,-10.800000190734863,-9.149999618530273,37.05415344238281,0,
 222655,-0.050537109375,0.07275390625,0.038818359375,-10.243902206420898,11.67682933807373,-6.036585330963135,-10.5,-9.300000190734863,-9.449999809265137,37.19792175292969,0,
 222665,0.013916015625,0.020263671875,0.066162109375,-9.664634704589844,4.603658676147461,9.02439022064209,-8.850000381469727,-8.850000381469727,-8.399999618530273,36.91038513183594,0,
 222675,0.050537109375,-0.02490234375,0.076416015625,-9.085366249084473,-3.5365853309631348,19.45121955871582,-8.850000381469727,-8.850000381469727,-8.399999618530273,37.006229400634766,0,
 222695,0.095947265625,-0.075439453125,0.0693359375,-5.152439117431641,-21.067073822021484,30.762195587158203,-8.399999618530273,-7.050000190734863,-10.050000190734863,36.814537048339844,0,
 222715,3.912353515625,2.484130859375,-3.28125,17.34756088256836,-162.7134246826172,203.506103515625,-8.550000190734863,-4.949999809265137,-7.949999809265137,37.19792175292969,0,
 222725,1.760009765625,0.76171875,0.41650390625,-7.256097793579102,83.75,-164.1768341064453,-8.550000190734863,-6.900000095367432,-9.899999618530273,36.814537048339844,0,
 222735,0.710205078125,-0.679443359375,0.31884765625,-58.44512176513672,5.5182929039001465,55.4878044128418,-9.449999809265137,-6.599999904632568,-9.0,37.19792175292969,0,
 222745,0.595458984375,-0.64794921875,-0.44580078125,-0.09146341681480408,-42.164634704589844,72.59146881103516,-8.399999618530273,-3.9000000953674316,-7.800000190734863,37.006229400634766,0,
 222755,0.08251953125,-0.919189453125,-0.3994140625,16.189023971557617,-58.47561264038086,98.99390411376953,-9.300000190734863,-4.050000190734863,-8.399999618530273,37.05415344238281,0,
 222765,-0.25537109375,-1.060302734375,-0.010009765625,7.835366249084473,-66.15853881835938,104.57317352294922,-9.300000190734863,-4.050000190734863,-8.399999618530273,37.245845794677734,0,
 222775,-0.440185546875,-1.223876953125,0.005615234375,18.841463088989258,-66.85975646972656,77.62195587158203,-7.050000190734863,-4.949999809265137,-7.650000095367432,36.86246109008789,0,
 222785,-0.516357421875,-1.073486328125,0.06884765625,6.615853786468506,-63.414634704589844,40.182926177978516,-8.550000190734863,-4.050000190734863,-7.199999809265137,37.05415344238281,0,
 222795,-0.267578125,-1.01513671875,0.0673828125,-5.0,-59.63414764404297,19.7560977935791,-8.399999618530273,-1.0499999523162842,-8.550000190734863,37.10207748413086,0,
 222805,-0.260986328125,-0.88330078125,0.029052734375,-11.554878234863281,-55.4878044128418,-1.4634146690368652,-7.5,-4.349999904632568,-6.75,36.91038513183594,0,
 222815,-0.335693359375,-0.860595703125,-0.052490234375,-7.286585330963135,-40.73170852661133,-14.817073822021484,-7.5,-4.349999904632568,-6.75,37.34169006347656,0,
 222835,-0.250244140625,-1.000244140625,0.0126953125,8.810976028442383,5.030488014221191,-33.932926177978516,-8.699999809265137,-4.349999904632568,-7.050000190734863,37.10207748413086,0,
 222845,-0.011474609375,-1.1494140625,0.052734375,-6.219512462615967,10.42682933807373,-42.378047943115234,-8.100000381469727,-3.75,-7.199999809265137,36.91038513183594,0,
 222855,0.085205078125,-1.101806640625,0.055908203125,-14.969512939453125,5.152439117431641,-26.707317352294922,-8.100000381469727,-3.75,-7.199999809265137,37.006229400634766,0,
 222865,0.09423828125,-0.955322265625,-0.03564453125,-11.036585807800293,5.182927131652832,-6.646341800689697,-8.399999618530273,-4.349999904632568,-5.25,36.86246109008789,0,
 222875,0.086181640625,-0.8603515625,-0.089599609375,-0.6707317233085632,3.7804877758026123,10.0,-7.349999904632568,-4.949999809265137,-6.900000095367432,37.006229400634766,0,
 222885,0.021240234375,-0.919921875,-0.052734375,5.670732021331787,1.9512195587158203,15.365854263305664,-8.850000381469727,-4.5,-6.900000095367432,37.10207748413086,0,
 222895,-0.04296875,-0.9765625,-0.0185546875,6.036585330963135,0.8536585569381714,14.268293380737305,-7.349999904632568,-4.5,-6.150000095367432,37.006229400634766,0,
 222915,-0.086181640625,-1.00390625,0.0048828125,0.15243902802467346,1.6158536672592163,6.432927131652832,-9.300000190734863,-3.299999952316284,-6.449999809265137,37.006229400634766,0,
 222935,-0.064453125,-0.978271484375,-0.0068359375,-0.6707317233085632,3.658536672592163,1.5548781156539917,-6.75,-3.450000047683716,-6.300000190734863,37.10207748413086,0,
 222955,-0.046875,-0.983154296875,-0.008544921875,-1.5243902206420898,2.682926893234253,0.060975611209869385,-8.100000381469727,-3.75,-6.150000095367432,36.86246109008789,0,
 222965,-0.044921875,-0.979248046875,-0.007080078125,-1.6463414430618286,2.1646342277526855,0.09146341681480408,-7.050000190734863,-4.949999809265137,-7.949999809265137,36.86246109008789,0,
 222975,-0.040283203125,-0.970458984375,-0.01318359375,-0.9756097793579102,1.2804877758026123,0.8231707215309143,-7.199999809265137,-5.400000095367432,-7.050000190734863,37.05415344238281,0,
 222985,-0.03564453125,-0.96533203125,-0.021484375,0.15243902802467346,0.060975611209869385,0.7621951103210449,-7.050000190734863,-5.25,-7.949999809265137,37.245845794677734,0,
 222996,-0.042724609375,-0.966796875,-0.023193359375,2.012195110321045,-0.5487805008888245,0.3048780560493469,-7.050000190734863,-5.25,-7.949999809265137,36.91038513183594,0,
 223016,-0.056884765625,-0.984130859375,-0.01123046875,2.5,-0.7012194991111755,-1.097561001777649,-6.449999809265137,-5.849999904632568,-10.050000190734863,36.814537048339844,0,
 223026,-0.052734375,-0.978759765625,0.002197265625,1.6463414430618286,-0.060975611209869385,-1.7073171138763428,-7.800000190734863,-2.549999952316284,-8.699999809265137,37.34169006347656,0,
 223036,-0.046875,-0.987060546875,-0.005615234375,1.5548781156539917,0.27439025044441223,-1.7682926654815674,-7.800000190734863,-5.25,-8.699999809265137,37.006229400634766,0,
 223046,-0.0361328125,-0.9833984375,-0.006591796875,1.0670732259750366,0.7317073345184326,-1.2195122241973877,-7.800000190734863,-5.25,-8.699999809265137,37.006229400634766,0,
 223056,-0.0400390625,-0.970947265625,-0.011962890625,0.9451219439506531,0.5487805008888245,-0.060975611209869385,-7.800000190734863,-4.5,-9.449999809265137,37.19792175292969,0,
 223066,-0.038818359375,-0.974365234375,-0.013671875,1.3719512224197388,0.7621951103210449,1.6768293380737305,-7.949999809265137,-4.650000095367432,-10.800000190734863,36.814537048339844,0,
 223086,-0.04638671875,-0.9755859375,-0.0146484375,1.1585365533828735,0.6707317233085632,3.170731782913208,-7.949999809265137,-4.349999904632568,-7.5,37.10207748413086,0,
 223106,-0.049072265625,-0.98388671875,-0.003173828125,1.8902438879013062,0.7621951103210449,2.5609755516052246,-6.0,-5.849999904632568,-9.75,37.05415344238281,0,
 223116,-0.055908203125,-0.982177734375,-0.0009765625,1.6158536672592163,1.0365853309631348,1.585365891456604,-7.5,-3.9000000953674316,-6.300000190734863,36.91038513183594,0,
 223126,-0.0546875,-0.9853515625,-0.006591796875,0.9756097793579102,0.5792682766914368,0.5487805008888245,-7.199999809265137,-3.9000000953674316,-7.050000190734863,37.34169006347656,0,
 223136,-0.04833984375,-0.976318359375,-0.0078125,0.7621951103210449,0.27439025044441223,-0.396341472864151,-7.199999809265137,-3.9000000953674316,-7.050000190734863,37.05415344238281,0,
 223146,-0.04833984375,-0.979248046875,-0.006103515625,0.5182926654815674,0.3658536672592163,-0.3658536672592163,-8.100000381469727,-4.5,-7.949999809265137,36.91038513183594,0,
 223186,-0.050048828125,-0.977294921875,-0.00146484375,-0.21341463923454285,0.3048780560493469,-0.4268292784690857,-7.949999809265137,-1.9500000476837158,-8.25,36.91038513183594,0,
 223206,-0.04736328125,-0.97802734375,-0.005126953125,0.3353658616542816,0.3353658616542816,0.27439025044441223,-7.349999904632568,-2.0999999046325684,-9.149999618530273,37.006229400634766,0,
 223216,-0.048583984375,-0.978271484375,-0.00634765625,0.21341463923454285,0.12195122241973877,0.6707317233085632,-7.800000190734863,-4.949999809265137,-7.650000095367432,36.91038513183594,0,
 223226,-0.04736328125,-0.9794921875,-0.002197265625,0.5792682766914368,0.3353658616542816,1.3109756708145142,-8.699999809265137,-2.25,-7.050000190734863,37.006229400634766,0,
 223246,-0.048583984375,-0.98046875,-0.011474609375,0.09146341681480408,0.5182926654815674,0.8231707215309143,-9.449999809265137,-2.700000047683716,-8.25,36.814537048339844,0,
 223256,-0.04736328125,-0.9775390625,0.003173828125,0.15243902802467346,0.24390244483947754,0.6707317233085632,-7.349999904632568,-4.050000190734863,-7.199999809265137,37.19792175292969,0,
 223266,-0.051513671875,-0.980712890625,-0.001953125,-0.12195122241973877,0.27439025044441223,0.3048780560493469,-8.850000381469727,-4.949999809265137,-7.199999809265137,37.245845794677734,0,
 223276,-0.055419921875,-0.97119140625,-0.003662109375,-0.3658536672592163,0.21341463923454285,-0.3353658616542816,-8.850000381469727,-4.949999809265137,-7.199999809265137,37.006229400634766,0,
 223296,-0.052490234375,-0.9814453125,-0.00439453125,-0.5792682766914368,0.15243902802467346,0.0,-7.949999809265137,-3.450000047683716,-7.5,37.006229400634766,0,
 223316,-0.0537109375,-0.978271484375,-0.008544921875,-0.8536585569381714,-0.12195122241973877,0.030487805604934692,-7.050000190734863,-5.699999809265137,-7.650000095367432,37.245845794677734,0,
 223326,-0.05029296875,-0.9775390625,-0.00439453125,-0.7012194991111755,0.27439025044441223,0.24390244483947754,-7.050000190734863,-5.699999809265137,-7.650000095367432,37.006229400634766,0,
 223336,-0.052734375,-0.974853515625,-0.004150390625,-0.4268292784690857,0.3353658616542816,0.396341472864151,-8.850000381469727,-3.75,-7.949999809265137,37.05415344238281,0,
 223346,-0.048095703125,-0.9755859375,-0.002197265625,-0.5487805008888245,0.3353658616542816,0.15243902802467346,-8.550000190734863,-5.25,-8.699999809265137,37.006229400634766,0,
 223356,-0.05078125,-0.976806640625,-0.00732421875,-0.5792682766914368,0.4878048896789551,0.3353658616542816,-8.399999618530273,-4.650000095367432,-7.5,36.814537048339844,0,
 223366,-0.0478515625,-0.979248046875,-0.000244140625,-0.6402438879013062,0.3353658616542816,0.060975611209869385,-9.300000190734863,-6.0,-7.199999809265137,37.006229400634766,0,
 223376,-0.05224609375,-0.978271484375,-0.005615234375,-0.4573170840740204,0.3048780560493469,0.12195122241973877,-9.300000190734863,-6.0,-7.199999809265137,36.86246109008789,0,
 223386,-0.05029296875,-0.972412109375,-0.00830078125,-0.7317073345184326,0.3658536672592163,0.24390244483947754,-8.850000381469727,-4.949999809265137,-7.949999809265137,37.19792175292969,0,
 223396,-0.04541015625,-0.976806640625,-0.003662109375,-0.8536585569381714,0.3353658616542816,0.15243902802467346,-7.949999809265137,-5.099999904632568,-8.25,37.006229400634766,0,
 223406,-0.048095703125,-0.98193359375,-0.0029296875,-0.6402438879013062,0.3048780560493469,0.3353658616542816,-7.949999809265137,-4.650000095367432,-6.300000190734863,37.006229400634766,0,
 223426,-0.043701171875,-0.982421875,-0.00537109375,-0.9451219439506531,0.15243902802467346,0.09146341681480408,-8.100000381469727,-3.75,-6.900000095367432,37.05415344238281,0,
 223436,-0.05126953125,-0.97998046875,-0.00830078125,-0.7317073345184326,0.21341463923454285,0.12195122241973877,-8.100000381469727,-3.75,-7.650000095367432,37.006229400634766,0,
 223446,-0.050048828125,-0.9814453125,-0.005615234375,-0.7317073345184326,0.4268292784690857,-0.060975611209869385,-8.550000190734863,-4.050000190734863,-7.949999809265137,37.006229400634766,0,
 223456,-0.05078125,-0.972412109375,-0.003173828125,-0.7012194991111755,0.24390244483947754,0.030487805604934692,-8.850000381469727,-5.25,-7.650000095367432,36.91038513183594,0,
 223466,-0.046875,-0.97705078125,-0.003173828125,-0.5487805008888245,0.3353658616542816,0.5792682766914368,-8.850000381469727,-5.25,-7.650000095367432,37.10207748413086,0,
 223476,-0.0517578125,-0.978271484375,-0.010498046875,-0.6402438879013062,0.21341463923454285,0.24390244483947754,-7.800000190734863,-4.949999809265137,-7.199999809265137,36.814537048339844,0,
 223486,-0.045654296875,-0.974609375,-0.003662109375,-0.4268292784690857,0.396341472864151,0.27439025044441223,-6.75,-4.650000095367432,-7.800000190734863,37.19792175292969,0,
 223496,-0.045654296875,-0.97412109375,-0.006103515625,-0.5792682766914368,0.396341472864151,0.030487805604934692,-7.800000190734863,-4.949999809265137,-9.149999618530273,37.19792175292969,0,
 223506,-0.052490234375,-0.979248046875,-0.00634765625,-0.7317073345184326,0.24390244483947754,0.3658536672592163,-9.449999809265137,-4.349999904632568,-7.5,37.05415344238281,0,
 223616,-0.047607421875,-0.98388671875,-0.0107421875,-0.21341463923454285,0.24390244483947754,0.3048780560493469,-7.949999809265137,-2.25,-9.0,36.91038513183594,0,
 223626,-0.04833984375,-0.974853515625,-0.0078125,-0.21341463923454285,0.4268292784690857,0.4573170840740204,-8.399999618530273,-4.650000095367432,-8.25,37.10207748413086,0,
 223646,-0.047119140625,-0.974365234375,-0.00439453125,-0.396341472864151,0.21341463923454285,0.21341463923454285,-7.349999904632568,-4.5,-7.199999809265137,37.245845794677734,0,
 223656,-0.048095703125,-0.97509765625,-0.002685546875,-0.030487805604934692,0.030487805604934692,0.18292683362960815,-7.349999904632568,-4.5,-7.199999809265137,36.814537048339844,0,
 223686,-0.049072265625,-0.98291015625,-0.004150390625,-0.4268292784690857,0.4878048896789551,0.27439025044441223,-8.699999809265137,-4.349999904632568,-7.5,37.34169006347656,0,
 223706,-0.055419921875,-0.97607421875,-0.00927734375,-0.4573170840740204,0.3658536672592163,0.12195122241973877,-8.399999618530273,-5.099999904632568,-8.550000190734863,37.05415344238281,0,
 223987,-0.199462890625,-1.121826171875,-0.076904296875,16.920732498168945,27.28658676147461,-12.865854263305664,-4.650000095367432,-4.5,-9.149999618530273,37.245845794677734,0,
 223997,-0.101318359375,-0.963623046875,0.033203125,1.4939024448394775,28.567073822021484,-23.628049850463867,-5.099999904632568,-6.900000095367432,-7.949999809265137,36.86246109008789,0,
 224007,-0.051025390625,-0.74658203125,0.10693359375,-0.8536585569381714,23.567073822021484,-33.75,-4.5,-6.599999904632568,-7.800000190734863,37.006229400634766,0,
 224027,-0.01220703125,-0.59423828125,0.060302734375,18.292682647705078,8.170731544494629,-40.914634704589844,-4.949999809265137,-6.300000190734863,-8.550000190734863,37.19792175292969,0,
 224037,-0.022216796875,-0.539794921875,0.013671875,19.908536911010742,2.4390244483947754,-37.92683029174805,-5.400000095367432,-8.100000381469727,-7.650000095367432,37.245845794677734,0,
 224047,-0.052978515625,-0.4501953125,-0.03515625,16.859756469726562,-0.6402438879013062,-31.79878044128418,-5.25,-7.5,-9.75,37.006229400634766,0,
 224057,-0.08740234375,-0.378173828125,-0.081298828125,16.280488967895508,-0.030487805604934692,-24.725610733032227,-4.5,-8.699999809265137,-8.550000190734863,37.19792175292969,0,
 224067,-0.11083984375,-0.37841796875,-0.139892578125,17.957317352294922,4.45121955871582,-18.5060977935791,-4.199999809265137,-8.699999809265137,-8.25,37.05415344238281,0,
 224077,-0.11376953125,-0.399169921875,-0.19287109375,18.658536911010742,11.493903160095215,-15.884146690368652,-4.199999809265137,-8.699999809265137,-8.25,36.91038513183594,0,
 224087,-0.102783203125,-0.398193359375,-0.223388671875,18.231708526611328,20.579269409179688,-18.475610733032227,-4.949999809265137,-8.25,-7.800000190734863,37.05415344238281,0,
 224097,-0.10205078125,-0.324462890625,-0.243408203125,15.640244483947754,30.213415145874023,-23.140243530273438,-4.349999904632568,-7.199999809265137,-8.399999618530273,36.91038513183594,0,
 224107,-0.103271484375,-0.22216796875,-0.2373046875,11.25,39.54268264770508,-25.18292808532715,-6.75,-7.050000190734863,-10.050000190734863,37.05415344238281,0,
 224117,-0.09326171875,-0.134521484375,-0.22412109375,8.140244483947754,47.9878044128418,-24.08536720275879,-5.400000095367432,-7.199999809265137,-7.949999809265137,37.05415344238281,0,
 224127,-0.07666015625,-0.080810546875,-0.21142578125,5.640244007110596,55.57926940917969,-20.579269409179688,-5.400000095367432,-7.199999809265137,-7.949999809265137,37.19792175292969,0,
 224137,-0.0361328125,-0.069091796875,-0.187255859375,4.207317352294922,61.82926940917969,-16.859756469726562,-5.25,-8.25,-8.550000190734863,37.19792175292969,0,
 224147,-0.00927734375,-0.045654296875,-0.180419921875,3.0182926654815674,66.5243911743164,-14.45121955871582,-7.199999809265137,-5.400000095367432,-9.0,36.86246109008789,0,
 224157,0.006591796875,-0.009033203125,-0.16845703125,-0.6402438879013062,69.66463470458984,-11.25,-5.699999809265137,-6.300000190734863,-9.0,37.19792175292969,0,
 224177,0.08935546875,-0.039794921875,-0.115478515625,-6.890244007110596,72.3780517578125,-2.5304877758026123,-6.75,-7.5,-10.050000190734863,37.19792175292969,0,
 224187,0.176025390625,-0.087158203125,-0.06884765625,-9.908536911010742,68.84146881103516,-0.8841463327407837,-6.599999904632568,-5.25,-9.149999618530273,37.19792175292969,0,
 224197,0.258544921875,-0.08984375,-0.01318359375,-14.329268455505371,59.8780517578125,-0.9451219439506531,-6.300000190734863,-5.699999809265137,-10.199999809265137,37.10207748413086,0,
 224207,0.311767578125,-0.059814453125,0.045654296875,-19.45121955871582,27.378049850463867,3.1402440071105957,-6.75,-4.650000095367432,-11.550000190734863,36.91038513183594,0,
 224227,-4.28173828125,-5.0625,-2.96435546875,-124.17683410644531,35.70122146606445,-332.68292236328125,-6.0,-4.349999904632568,-10.800000190734863,37.19792175292969,0,
 224237,3.91015625,-1.528076171875,0.474609375,-178.9329376220703,-70.48780822753906,-15.42682933807373,-7.050000190734863,-5.25,-10.649999618530273,36.86246109008789,0,
 224247,1.185791015625,1.3515625,-0.045654296875,10.640244483947754,-85.94512176513672,101.34146881103516,-5.699999809265137,-4.650000095367432,-8.550000190734863,37.19792175292969,0,
 224257,0.4814453125,0.14501953125,-0.97412109375,70.3963394165039,-77.43902587890625,158.68902587890625,-9.149999618530273,-4.650000095367432,-8.550000190734863,37.245845794677734,0,
 224267,0.242431640625,-1.95849609375,-1.418701171875,28.719512939453125,-67.5,135.7926788330078,-9.149999618530273,-4.650000095367432,-8.550000190734863,37.19792175292969,0,
 224277,-0.261474609375,-0.806396484375,-0.119873046875,52.164634704589844,-66.06707763671875,115.91463470458984,-7.050000190734863,-2.549999952316284,-8.699999809265137,36.91038513183594,0,
 224287,-0.425537109375,-1.365234375,0.101806640625,23.871952056884766,-73.04878234863281,78.84146881103516,-5.099999904632568,-3.75,-8.399999618530273,36.86246109008789,0,
 224297,-0.315185546875,-1.25146484375,0.23583984375,-11.79878044128418,-94.57317352294922,47.5,-5.849999904632568,-3.299999952316284,-8.699999809265137,36.814537048339844,0,
 224307,-0.205322265625,-1.11865234375,0.19091796875,-38.20122146606445,-112.01219940185547,20.15243911743164,-5.849999904632568,-3.299999952316284,-8.699999809265137,37.006229400634766,0,
 224317,-0.179443359375,-0.872802734375,0.111328125,-40.975608825683594,-110.06098175048828,-3.658536672592163,-3.9000000953674316,-2.8499999046325684,-7.199999809265137,37.006229400634766,0,
 224327,-0.302001953125,-0.722900390625,0.0341796875,-23.9939022064209,-87.25609588623047,-22.98780632019043,-5.400000095367432,-3.299999952316284,-7.199999809265137,37.05415344238281,0,
 224337,-0.541748046875,-0.725830078125,-0.10009765625,-2.682926893234253,-49.817073822021484,-36.280487060546875,-2.549999952316284,-2.700000047683716,-11.25,36.814537048339844,0,
 224347,-0.630126953125,-0.81396484375,-0.103271484375,11.737805366516113,-13.292683601379395,-45.51829528808594,-4.650000095367432,-2.8499999046325684,-7.949999809265137,37.006229400634766,0,
 224357,-0.4658203125,-0.968994140625,-0.003173828125,12.37804889678955,8.018292427062988,-59.57317352294922,-4.650000095367432,-2.8499999046325684,-7.949999809265137,37.05415344238281,0,
 224367,-0.140380859375,-1.06640625,0.051513671875,-0.060975611209869385,17.469512939453125,-67.74390411376953,-5.25,-1.9500000476837158,-7.5,36.91038513183594,0,
 224377,0.115478515625,-1.141357421875,-0.027587890625,-7.9268293380737305,25.0,-64.78659057617188,-5.849999904632568,-5.25,-7.650000095367432,37.10207748413086,0,
 224387,0.186767578125,-1.02685546875,0.02099609375,-12.164634704589844,19.664634704589844,-47.13414764404297,-6.75,-3.9000000953674316,-8.25,36.91038513183594,0,
 224397,0.15966796875,-0.910888671875,-0.025146484375,-15.884146690368652,10.70121955871582,-22.012195587158203,-4.949999809265137,-3.450000047683716,-7.800000190734863,37.245845794677734,0,
 224447,-0.076171875,-1.03662109375,0.042236328125,2.5609755516052246,9.420731544494629,19.69512176513672,-6.449999809265137,-1.0499999523162842,-9.300000190734863,37.10207748413086,0,
 224467,-0.083740234375,-0.974365234375,-0.00341796875,-8.109756469726562,10.97560977935791,13.59756088256836,-5.400000095367432,-3.75,-7.949999809265137,37.05415344238281,0,
 224477,-0.064697265625,-0.96240234375,-0.01806640625,-7.957317352294922,12.042683601379395,11.52439022064209,-6.449999809265137,-3.9000000953674316,-7.050000190734863,37.05415344238281,0,
 224498,-0.05810546875,-0.96044921875,-0.027099609375,-5.731707572937012,7.743902683258057,5.5182929039001465,-5.699999809265137,-3.450000047683716,-7.050000190734863,37.05415344238281,0,
 224508,-0.067626953125,-0.945556640625,-0.039306640625,-4.29878044128418,4.481707572937012,1.1585365533828735,-6.449999809265137,-4.349999904632568,-7.800000190734863,37.006229400634766,0,
 224518,-0.079345703125,-0.94091796875,-0.0419921875,-0.792682945728302,1.6463414430618286,-2.9268293380737305,-6.75,-2.700000047683716,-7.050000190734863,37.006229400634766,0,
 224528,-0.0751953125,-0.949951171875,-0.0263671875,2.6219513416290283,0.030487805604934692,-7.134146690368652,-5.099999904632568,-4.949999809265137,-8.399999618530273,37.05415344238281,0,
 224538,-0.074951171875,-0.96533203125,-0.019775390625,5.54878044128418,-1.0670732259750366,-10.518293380737305,-5.25,-3.9000000953674316,-7.800000190734863,37.006229400634766,0,
 224548,-0.076904296875,-0.974609375,-0.008056640625,6.981707572937012,-1.7987805604934692,-13.353658676147461,-5.25,-3.9000000953674316,-7.800000190734863,36.91038513183594,0,
 224558,-0.0673828125,-0.993408203125,0.00244140625,6.707317352294922,-0.6402438879013062,-14.908536911010742,-5.25,-3.1500000953674316,-7.5,37.10207748413086,0,
 224578,-0.0224609375,-1.001220703125,0.006103515625,3.932926893234253,0.4268292784690857,-11.37195110321045,-6.449999809265137,-3.9000000953674316,-8.25,37.006229400634766,0,
 224598,-0.0263671875,-0.987548828125,-0.00634765625,0.6097561120986938,1.4634146690368652,1.0060975551605225,-7.5,-3.450000047683716,-6.0,37.05415344238281,0,
 224608,-0.039306640625,-0.975830078125,-0.011474609375,-0.24390244483947754,1.4939024448394775,5.853658676147461,-7.349999904632568,-2.8499999046325684,-7.949999809265137,37.006229400634766,0,
 224618,-0.04736328125,-0.97705078125,-0.01123046875,0.6402438879013062,1.7987805604934692,8.353658676147461,-4.199999809265137,-4.349999904632568,-8.25,36.718692779541016,0,
 224638,-0.06103515625,-0.97998046875,0.000732421875,0.3658536672592163,1.7073171138763428,9.115854263305664,-6.0,-3.450000047683716,-7.5,37.006229400634766,0,
 224648,-0.0693359375,-0.97802734375,-0.0029296875,0.060975611209869385,1.8597561120986938,7.77439022064209,-7.800000190734863,-4.949999809265137,-8.399999618530273,37.10207748413086,0,
 224658,-0.075439453125,-0.969482421875,-0.0068359375,-0.6097561120986938,1.5548781156539917,3.5975611209869385,-6.449999809265137,-4.650000095367432,-7.5,36.814537048339844,0,
 224668,-0.07568359375,-0.97119140625,-0.006103515625,0.18292683362960815,1.25,1.3109756708145142,-7.050000190734863,-2.0999999046325684,-7.650000095367432,37.05415344238281,0,
 224678,-0.071533203125,-0.972412109375,-0.008056640625,0.5792682766914368,0.9451219439506531,-0.6707317233085632,-6.75,-3.1500000953674316,-7.5,36.91038513183594,0,
 224688,-0.067138671875,-0.968994140625,-0.008544921875,0.9756097793579102,0.7621951103210449,-2.7134146690368652,-6.75,-3.1500000953674316,-7.5,36.86246109008789,0,
 224698,-0.0703125,-0.9755859375,-0.0029296875,1.1585365533828735,0.6402438879013062,-4.329268455505371,-6.75,-3.9000000953674316,-6.75,37.10207748413086,0,
 224708,-0.0625,-0.97802734375,-0.009033203125,1.9512195587158203,0.396341472864151,-4.542683124542236,-6.449999809265137,-3.450000047683716,-7.5,37.05415344238281,0,
 224718,-0.052734375,-0.9765625,-0.009521484375,2.2560975551605225,0.9146341681480408,-3.5365853309631348,-6.0,-4.650000095367432,-7.050000190734863,36.718692779541016,0,
 224728,-0.05615234375,-0.976806640625,0.0,1.9512195587158203,0.4573170840740204,-2.2865853309631348,-6.0,-4.650000095367432,-7.050000190734863,36.86246109008789,0,
 224738,-0.04638671875,-0.986572265625,-0.004150390625,1.5548781156539917,0.5182926654815674,-0.24390244483947754,-5.699999809265137,-4.349999904632568,-9.0,36.91038513183594,0,
 224748,-0.04296875,-0.984130859375,0.00048828125,1.0060975551605225,0.6707317233085632,1.4634146690368652,-2.8499999046325684,-5.25,-8.699999809265137,37.10207748413086,0,
 224758,-0.05126953125,-0.98583984375,-0.000244140625,1.0060975551605225,0.8231707215309143,3.262195110321045,-7.800000190734863,-3.299999952316284,-6.449999809265137,37.006229400634766,0,
 224768,-0.049072265625,-0.976318359375,-0.002685546875,0.4268292784690857,0.8231707215309143,3.5060975551605225,-5.849999904632568,-2.8499999046325684,-7.650000095367432,36.86246109008789,0,
 224778,-0.056396484375,-0.979248046875,0.0009765625,0.27439025044441223,1.2195122241973877,3.841463565826416,-5.849999904632568,-2.8499999046325684,-7.650000095367432,36.718692779541016,0,
 224788,-0.060302734375,-0.975830078125,-0.005126953125,0.18292683362960815,1.097561001777649,3.2926828861236572,-4.949999809265137,-4.349999904632568,-7.800000190734863,36.86246109008789,0,
 224798,-0.066162109375,-0.98095703125,-0.00341796875,-0.15243902802467346,1.25,2.5609755516052246,-5.699999809265137,-2.700000047683716,-6.300000190734863,37.10207748413086,0,
 224808,-0.064453125,-0.979248046875,-0.003662109375,-0.5792682766914368,0.792682945728302,1.3719512224197388,-6.449999809265137,-4.650000095367432,-7.800000190734863,36.91038513183594,0,
 224818,-0.0654296875,-0.973388671875,-0.005126953125,-0.396341472864151,0.4878048896789551,0.21341463923454285,-5.849999904632568,-4.5,-8.699999809265137,37.34169006347656,0,
 224828,-0.06494140625,-0.97314453125,0.000732421875,-0.3353658616542816,0.27439025044441223,-0.4573170840740204,-5.849999904632568,-4.5,-8.699999809265137,36.718692779541016,0,
 224838,-0.05712890625,-0.974365234375,0.000244140625,-0.24390244483947754,0.24390244483947754,-0.9451219439506531,-6.75,-4.650000095367432,-8.25,37.245845794677734,0,
 224848,-0.060302734375,-0.978515625,-0.000244140625,0.396341472864151,0.4573170840740204,-1.1585365533828735,-7.050000190734863,-1.350000023841858,-10.199999809265137,37.10207748413086,0,
 224858,-0.0625,-0.974853515625,0.000732421875,0.15243902802467346,-0.12195122241973877,-0.3658536672592163,-7.5,-4.349999904632568,-7.050000190734863,37.006229400634766,0,
 224868,-0.056396484375,-0.98046875,0.00048828125,0.18292683362960815,0.3353658616542816,-0.6402438879013062,-7.5,-4.349999904632568,-7.050000190734863,37.19792175292969,0,
 224878,-0.055419921875,-0.9794921875,0.000244140625,-0.27439025044441223,0.4268292784690857,0.030487805604934692,-6.75,-4.650000095367432,-7.5,37.006229400634766,0,
 224888,-0.0556640625,-0.9794921875,0.001708984375,-0.18292683362960815,0.396341472864151,0.5487805008888245,-6.0,-2.700000047683716,-7.800000190734863,36.91038513183594,0,
 224898,-0.0595703125,-0.98046875,-0.0009765625,-0.4268292784690857,0.27439025044441223,0.8841463327407837,-6.300000190734863,-2.8499999046325684,-7.949999809265137,37.05415344238281,0,
 224908,-0.0634765625,-0.96875,-0.004638671875,-0.09146341681480408,0.4268292784690857,1.1280487775802612,-6.300000190734863,-4.050000190734863,-7.650000095367432,37.006229400634766,0,
 224918,-0.055908203125,-0.978759765625,-0.000732421875,-0.6402438879013062,0.396341472864151,0.7012194991111755,-6.300000190734863,-4.050000190734863,-7.650000095367432,37.006229400634766,0,
 224928,-0.063232421875,-0.9755859375,-0.002685546875,-1.0365853309631348,0.27439025044441223,0.792682945728302,-6.449999809265137,-5.099999904632568,-7.800000190734863,36.91038513183594,0,
 224938,-0.05517578125,-0.971435546875,-0.00390625,-0.9756097793579102,0.4573170840740204,0.15243902802467346,-5.400000095367432,-4.050000190734863,-9.149999618530273,37.05415344238281,0,
 224948,-0.062255859375,-0.97412109375,-0.00048828125,-1.3109756708145142,0.18292683362960815,0.396341472864151,-5.400000095367432,-2.8499999046325684,-7.199999809265137,36.86246109008789,0,
 224958,-0.056884765625,-0.97998046875,-0.00146484375,-1.25,-0.060975611209869385,0.12195122241973877,-5.699999809265137,-5.099999904632568,-10.050000190734863,37.006229400634766,0,
 224968,-0.06298828125,-0.9765625,0.000244140625,-1.2195122241973877,0.4268292784690857,0.18292683362960815,-5.699999809265137,-5.099999904632568,-10.050000190734863,37.10207748413086,0,
 224978,-0.06103515625,-0.9794921875,-0.00341796875,-0.7317073345184326,0.15243902802467346,-0.21341463923454285,-6.75,-2.700000047683716,-7.5,36.67076873779297,0,
 224988,-0.056884765625,-0.974609375,-0.0029296875,-0.7012194991111755,0.18292683362960815,-0.18292683362960815,-6.449999809265137,-3.1500000953674316,-7.5,36.86246109008789,0,
 224998,-0.0576171875,-0.9814453125,-0.004638671875,-0.8231707215309143,0.3048780560493469,-0.09146341681480408,-7.050000190734863,-4.050000190734863,-6.900000095367432,37.10207748413086,0,
 225008,-0.063232421875,-0.97998046875,-0.0029296875,-1.1280487775802612,0.5182926654815674,-0.3658536672592163,-6.599999904632568,-2.8499999046325684,-8.699999809265137,37.10207748413086,0,
 225038,-0.059814453125,-0.97412109375,-0.005126953125,-0.9756097793579102,0.12195122241973877,0.27439025044441223,-7.050000190734863,-3.299999952316284,-7.949999809265137,37.006229400634766,0,
 225048,-0.05615234375,-0.974853515625,-0.001708984375,-1.1585365533828735,0.030487805604934692,0.24390244483947754,-6.75,-2.700000047683716,-7.5,37.006229400634766,0,
 225078,-0.059814453125,-0.97314453125,-0.001953125,-1.3109756708145142,-0.24390244483947754,0.4878048896789551,-5.699999809265137,-4.650000095367432,-9.300000190734863,37.006229400634766,0,
 225088,-0.061767578125,-0.969970703125,-0.001220703125,-1.3719512224197388,-0.18292683362960815,0.3048780560493469,-7.050000190734863,-3.299999952316284,-7.949999809265137,36.86246109008789,0,
 225098,-0.054443359375,-0.97412109375,0.001953125,-1.920731782913208,-0.3658536672592163,0.3658536672592163,-7.349999904632568,-3.299999952316284,-7.199999809265137,36.86246109008789,0,
 225108,-0.056640625,-0.976806640625,-0.00146484375,-2.3475611209869385,0.15243902802467346,0.18292683362960815,-7.349999904632568,-3.299999952316284,-7.199999809265137,37.05415344238281,0,
 225118,-0.061279296875,-0.977783203125,-0.0029296875,-2.408536672592163,0.060975611209869385,0.6402438879013062,-6.75,-5.099999904632568,-8.550000190734863,36.814537048339844,0,
 225129,-0.059326171875,-0.9775390625,-0.00439453125,-1.9512195587158203,0.15243902802467346,0.6402438879013062,-6.0,-3.9000000953674316,-7.5,36.91038513183594,0,
 225149,-0.0546875,-0.98583984375,-0.01123046875,-2.5304877758026123,0.8231707215309143,2.682926893234253,-6.0,-3.450000047683716,-7.5,37.10207748413086,0,
 225159,-0.048583984375,-0.985595703125,0.002685546875,-3.6890244483947754,0.9146341681480408,4.6646342277526855,-6.0,-3.450000047683716,-7.5,37.19792175292969,0,
 225169,-0.039306640625,-0.99658203125,0.0048828125,-5.762195110321045,0.5487805008888245,7.560975551605225,-7.349999904632568,-3.299999952316284,-7.949999809265137,37.006229400634766,0,
 225189,-0.021484375,-1.003662109375,0.008544921875,-11.189024925231934,0.060975611209869385,19.664634704589844,-4.650000095367432,-3.299999952316284,-8.399999618530273,37.006229400634766,0,
 225259,-0.247802734375,-1.04931640625,-0.03076171875,6.829268455505371,16.067073822021484,62.13414764404297,-6.0,-1.0499999523162842,-9.0,37.34169006347656,0,
 225269,-0.1318359375,-1.7978515625,0.07080078125,34.48170852661133,11.280488014221191,39.17683029174805,-3.9000000953674316,-4.050000190734863,-5.400000095367432,36.86246109008789,0,
 225289,-0.208984375,-1.70654296875,-0.101318359375,1.5243902206420898,-8.445121765136719,-41.158538818359375,-4.349999904632568,-3.299999952316284,-6.900000095367432,37.19792175292969,0,
 225299,-0.380615234375,-1.0654296875,-0.03759765625,-28.871952056884766,-12.012195587158203,-55.121952056884766,-4.349999904632568,-3.299999952316284,-6.900000095367432,37.006229400634766,0,
 225309,-0.456787109375,-0.667236328125,0.0263671875,-28.14024543762207,-6.7682929039001465,-46.280487060546875,-3.1500000953674316,-3.450000047683716,-8.25,36.86246109008789,0,
 225319,-0.409423828125,-0.775634765625,-0.00390625,-3.7195122241973877,3.262195110321045,-27.34756088256836,-4.199999809265137,-6.599999904632568,-6.300000190734863,36.86246109008789,0,
 225329,-0.281494140625,-1.096923828125,-0.0703125,12.77439022064209,14.45121955871582,-14.603658676147461,-4.199999809265137,-6.599999904632568,-6.300000190734863,37.05415344238281,0,
 225339,-0.152587890625,-1.25634765625,-0.0693359375,8.75,21.0060977935791,-13.170731544494629,-4.199999809265137,-6.599999904632568,-6.300000190734863,37.05415344238281,0,
 225349,-0.08544921875,-1.140869140625,-0.009521484375,-4.115853786468506,21.189023971557617,-17.83536720275879,-4.349999904632568,-5.400000095367432,-8.550000190734863,37.245845794677734,0,
 225369,-0.06591796875,-0.837890625,0.063232421875,-3.2926828861236572,15.335366249084473,-19.268293380737305,-3.75,-5.400000095367432,-7.800000190734863,36.86246109008789,0,
 225379,-0.03466796875,-0.889892578125,0.037353515625,5.792683124542236,11.554878234863281,-15.243903160095215,-3.75,-5.400000095367432,-7.800000190734863,36.91038513183594,0,
 225389,0.00146484375,-0.93115234375,0.008056640625,8.932927131652832,7.804878234863281,-14.17682933807373,-3.75,-5.400000095367432,-7.800000190734863,37.006229400634766,0,
 225409,-0.00634765625,-0.827880859375,-0.023681640625,8.384146690368652,0.030487805604934692,-15.731707572937012,-3.9000000953674316,-5.25,-8.699999809265137,37.19792175292969,0,
 225419,-0.00732421875,-0.78173828125,-0.0498046875,10.609756469726562,-1.8597561120986938,-14.146341323852539,-4.199999809265137,-7.050000190734863,-7.5,36.86246109008789,0,
 225429,0.001953125,-0.79931640625,-0.091552734375,12.5,-3.1402440071105957,-11.52439022064209,-4.199999809265137,-7.050000190734863,-7.5,37.006229400634766,0,
 225439,0.009033203125,-0.8203125,-0.133544921875,12.286585807800293,-2.6524391174316406,-10.15243911743164,-4.949999809265137,-7.050000190734863,-7.050000190734863,37.245845794677734,0,
 225449,0.007568359375,-0.822265625,-0.158203125,10.060976028442383,-1.585365891456604,-11.189024925231934,-4.5,-6.599999904632568,-6.75,37.245845794677734,0,
 225459,0.01123046875,-0.80517578125,-0.173828125,8.04878044128418,0.27439025044441223,-13.59756088256836,-3.5999999046325684,-8.399999618530273,-11.399999618530273,37.006229400634766,0,
 225469,0.012451171875,-0.768798828125,-0.174072265625,6.006097793579102,2.9573171138763428,-16.707317352294922,-3.5999999046325684,-8.399999618530273,-11.399999618530273,37.05415344238281,0,
 225479,0.00537109375,-0.71142578125,-0.175048828125,4.878048896789551,5.640244007110596,-18.35365867614746,-3.9000000953674316,-9.600000381469727,-6.900000095367432,36.86246109008789,0,
 225489,0.00390625,-0.650390625,-0.17236328125,3.7804877758026123,8.658536911010742,-19.05487823486328,-4.949999809265137,-9.0,-8.25,37.19792175292969,0,
 225509,-0.022216796875,-0.536376953125,-0.16064453125,0.0,11.79878044128418,-17.34756088256836,-4.949999809265137,-7.5,-8.25,37.006229400634766,0,
 225519,-0.0439453125,-0.47607421875,-0.1513671875,-2.378048896789551,11.036585807800293,-14.939024925231934,-4.949999809265137,-7.5,-8.25,37.38961410522461,0,
 225529,-0.06787109375,-0.456298828125,-0.14794921875,-5.304878234863281,8.932927131652832,-11.036585807800293,-3.5999999046325684,-7.199999809265137,-8.399999618530273,36.86246109008789,0,
 225539,-0.074951171875,-0.452880859375,-0.135498046875,-6.981707572937012,6.219512462615967,-7.835366249084473,-5.25,-8.699999809265137,-8.25,37.006229400634766,0,
 225559,-0.052001953125,-0.411376953125,-0.0927734375,-2.5304877758026123,-0.060975611209869385,-16.524391174316406,-3.1500000953674316,-9.300000190734863,-10.199999809265137,37.19792175292969,0,
 225569,-0.038330078125,-0.3740234375,-0.070068359375,-0.24390244483947754,-2.378048896789551,-21.768293380737305,-3.1500000953674316,-9.300000190734863,-10.199999809265137,37.05415344238281,0,
 225579,-0.028564453125,-0.324462890625,-0.05126953125,0.9451219439506531,-4.939024448394775,-27.225610733032227,-5.400000095367432,-8.100000381469727,-8.699999809265137,37.19792175292969,0,
 225599,-0.046142578125,-0.235107421875,-0.06201171875,-6.646341800689697,-9.02439022064209,-29.207317352294922,-3.75,-8.699999809265137,-9.75,37.006229400634766,0,
 225609,-0.081298828125,-0.100341796875,-0.056884765625,-11.432927131652832,-9.207317352294922,-20.88414764404297,-3.75,-8.699999809265137,-9.75,36.86246109008789,0,
 225639,0.0,-0.053466796875,0.002197265625,-10.640244483947754,-12.195121765136719,0.5182926654815674,-6.75,-6.599999904632568,-8.550000190734863,37.245845794677734,0,
 225659,0.064208984375,-0.07421875,0.007568359375,-9.17682933807373,-16.585365295410156,6.341463565826416,-6.449999809265137,-5.849999904632568,-7.050000190734863,37.006229400634766,0,
 225669,0.075439453125,-0.1103515625,-0.0185546875,211.15853881835938,-6.310975551605225,46.64634323120117,-6.449999809265137,-4.650000095367432,-9.300000190734863,37.006229400634766,0,
 225679,-7.822509765625,-3.5908203125,8.0,111.92073059082031,22.98780632019043,-226.28048706054688,-7.199999809265137,-3.450000047683716,-8.550000190734863,37.10207748413086,0,
 225689,-0.007080078125,-4.3447265625,1.230224609375,-133.71951293945312,-2.6219513416290283,-54.14634323120117,-8.699999809265137,-5.849999904632568,-8.25,37.05415344238281,0,
 225699,1.440673828125,0.343994140625,0.735107421875,-79.05487823486328,-29.207317352294922,58.871952056884766,-7.199999809265137,-5.400000095367432,-7.800000190734863,37.10207748413086,0,
 225709,0.669677734375,0.572998046875,-0.206298828125,0.4268292784690857,-42.560977935791016,127.43902587890625,-7.199999809265137,-5.400000095367432,-7.800000190734863,37.006229400634766,0,
 225739,-0.366943359375,-1.295166015625,0.1748046875,34.024391174316406,-2.4695122241973877,78.04878234863281,-7.050000190734863,-2.549999952316284,-7.650000095367432,37.05415344238281,0,
 225810,-0.023681640625,-1.08203125,0.021240234375,9.57317066192627,25.30487823486328,-55.30487823486328,-5.400000095367432,-4.949999809265137,-8.399999618530273,36.86246109008789,0,
 225820,0.1298828125,-1.138671875,-0.004638671875,1.7987805604934692,17.225610733032227,-55.88414764404297,-7.050000190734863,-5.25,-7.650000095367432,37.245845794677734,0,
 225830,0.16064453125,-0.9951171875,-0.024658203125,-3.1402440071105957,7.652439117431641,-42.22561264038086,-6.0,-4.349999904632568,-7.800000190734863,37.006229400634766,0,
 225840,0.1513671875,-0.913330078125,-0.043701171875,-2.012195110321045,3.445122003555298,-17.7439022064209,-7.050000190734863,-3.75,-8.399999618530273,37.19792175292969,0,
 225850,0.0517578125,-0.947998046875,-0.027099609375,3.75,1.402438998222351,5.853658676147461,-7.050000190734863,-3.75,-8.399999618530273,37.05415344238281,0,
 225860,-0.03271484375,-1.001220703125,-0.00341796875,5.4268293380737305,0.09146341681480408,16.890243530273438,-7.949999809265137,-5.099999904632568,-8.550000190734863,37.006229400634766,0,
 225870,-0.060546875,-0.995849609375,-0.005126953125,3.9939024448394775,-1.8292683362960815,17.865854263305664,-7.050000190734863,-5.25,-9.149999618530273,37.05415344238281,0,
 225880,-0.07470703125,-0.983154296875,-0.00732421875,2.408536672592163,-2.4695122241973877,15.70121955871582,-6.0,-4.349999904632568,-7.800000190734863,37.245845794677734,0,
 225890,-0.0751953125,-0.984130859375,-0.001953125,0.4573170840740204,-1.4634146690368652,13.719512939453125,-6.0,-4.349999904632568,-7.800000190734863,37.006229400634766,0,
 225900,-0.0673828125,-0.997802734375,0.00048828125,-1.432926893234253,-0.396341472864151,12.408536911010742,-7.199999809265137,-5.099999904632568,-9.0,37.05415344238281,0,
 225910,-0.068603515625,-0.98486328125,-0.00537109375,-3.658536672592163,0.6402438879013062,10.945121765136719,-6.449999809265137,-4.650000095367432,-8.25,37.006229400634766,0,
 225920,-0.05908203125,-0.979736328125,-0.020263671875,-4.695122241973877,0.8231707215309143,10.12195110321045,-6.75,-3.1500000953674316,-7.800000190734863,37.245845794677734,0,
 225930,-0.058349609375,-0.970947265625,-0.018798828125,-4.45121955871582,0.8231707215309143,9.756097793579102,-5.849999904632568,-3.299999952316284,-7.199999809265137,37.19792175292969,0,
 225940,-0.0576171875,-0.96240234375,-0.025146484375,-3.9024391174316406,0.7621951103210449,9.390244483947754,-5.849999904632568,-3.299999952316284,-7.199999809265137,37.006229400634766,0,
 225950,-0.069091796875,-0.958251953125,-0.030029296875,-2.2865853309631348,0.7621951103210449,8.59756088256836,-6.75,-3.1500000953674316,-8.25,37.10207748413086,0,
 225960,-0.08837890625,-0.9580078125,-0.029541015625,-1.0670732259750366,0.15243902802467346,7.256097793579102,-7.349999904632568,-4.949999809265137,-7.650000095367432,37.05415344238281,0,
 225970,-0.0947265625,-0.96826171875,-0.0283203125,0.24390244483947754,0.5792682766914368,4.481707572937012,-3.75,-4.349999904632568,-10.5,37.19792175292969,0,
 225980,-0.0888671875,-0.970947265625,-0.022705078125,1.3719512224197388,0.8536585569381714,1.0060975551605225,-7.050000190734863,-3.75,-7.650000095367432,37.05415344238281,0,
 226010,-0.078369140625,-0.970458984375,-0.01806640625,2.9573171138763428,3.628048896789551,-10.304878234863281,-3.5999999046325684,-2.0999999046325684,-10.649999618530273,37.006229400634766,0,
 226020,-0.0556640625,-0.97802734375,-0.017333984375,2.6219513416290283,3.841463565826416,-9.329268455505371,-7.199999809265137,-5.849999904632568,-8.550000190734863,37.245845794677734,0,
 226030,-0.047607421875,-0.987548828125,-0.0048828125,2.1646342277526855,3.658536672592163,-6.981707572937012,-7.199999809265137,-5.849999904632568,-8.550000190734863,36.814537048339844,0,
 226040,-0.0244140625,-0.99267578125,-0.007080078125,1.25,2.4695122241973877,-3.2926828861236572,-5.699999809265137,-3.9000000953674316,-8.550000190734863,36.86246109008789,0,
 226060,-0.03564453125,-0.980224609375,-0.01171875,0.15243902802467346,0.9756097793579102,3.1402440071105957,-5.699999809265137,-3.9000000953674316,-7.5,37.006229400634766,0,
 226070,-0.040771484375,-0.978515625,-0.014404296875,-0.3353658616542816,0.3353658616542816,5.304878234863281,-7.800000190734863,-2.8499999046325684,-7.949999809265137,37.006229400634766,0,
 226080,-0.056884765625,-0.9814453125,-0.0166015625,0.15243902802467346,0.5182926654815674,5.762195110321045,-7.800000190734863,-2.8499999046325684,-7.949999809265137,37.19792175292969,0,
 226090,-0.05908203125,-0.97314453125,-0.0068359375,-0.5487805008888245,-0.030487805604934692,5.091463565826416,-5.699999809265137,-4.650000095367432,-7.800000190734863,37.006229400634766,0,
 226100,-0.06787109375,-0.9765625,-0.012451171875,-0.6707317233085632,-0.09146341681480408,3.567073345184326,-4.349999904632568,-2.549999952316284,-8.699999809265137,36.86246109008789,0,
 226110,-0.068359375,-0.973388671875,-0.018310546875,-0.8841463327407837,0.3658536672592163,1.8597561120986938,-5.400000095367432,-4.050000190734863,-7.650000095367432,37.19792175292969,0,
 226120,-0.07470703125,-0.97314453125,-0.021728515625,-1.1585365533828735,0.21341463923454285,-0.21341463923454285,-5.25,-2.25,-8.25,37.10207748413086,0,
 226130,-0.07080078125,-0.963134765625,-0.018310546875,-0.060975611209869385,0.396341472864151,-2.1341464519500732,-5.25,-2.25,-8.25,37.05415344238281,0,
 226150,-0.0693359375,-0.96533203125,-0.017578125,0.7317073345184326,0.27439025044441223,-4.45121955871582,-7.050000190734863,-4.5,-8.699999809265137,37.006229400634766,0,
 226160,-0.0673828125,-0.97216796875,-0.014404296875,1.4634146690368652,0.24390244483947754,-4.756097793579102,-6.300000190734863,-3.75,-7.199999809265137,37.19792175292969,0,
 226180,-0.045654296875,-0.98193359375,-0.009033203125,1.4634146690368652,1.0060975551605225,-2.317073106765747,-5.400000095367432,-5.25,-7.650000095367432,37.10207748413086,0,
 226190,-0.0419921875,-0.9794921875,-0.01025390625,1.0060975551605225,0.7621951103210449,-0.4573170840740204,-5.099999904632568,-4.949999809265137,-7.949999809265137,37.245845794677734,0,
 226210,-0.05126953125,-0.97802734375,-0.016357421875,0.396341472864151,0.6402438879013062,2.195122003555298,-6.599999904632568,-4.5,-7.199999809265137,37.006229400634766,0,
 226220,-0.05419921875,-0.9814453125,-0.01513671875,-0.18292683362960815,0.4268292784690857,3.3231709003448486,-6.599999904632568,-4.5,-7.199999809265137,37.10207748413086,0,
 226230,-0.059326171875,-0.976806640625,-0.006591796875,-0.4573170840740204,0.5487805008888245,3.1097562313079834,-7.349999904632568,-4.050000190734863,-7.650000095367432,37.19792175292969,0,
 226250,-0.06298828125,-0.974853515625,-0.016845703125,-0.5792682766914368,0.060975611209869385,1.920731782913208,-5.849999904632568,-3.299999952316284,-8.399999618530273,36.86246109008789,0,
 226370,-0.0576171875,-0.97607421875,-0.01611328125,-0.4268292784690857,0.27439025044441223,0.4268292784690857,-5.25,-4.349999904632568,-7.800000190734863,37.006229400634766,0,
 226380,-0.05517578125,-0.979736328125,-0.01123046875,-0.7012194991111755,0.4268292784690857,0.4573170840740204,-4.5,-2.25,-9.75,37.006229400634766,0,
 226400,-0.059326171875,-0.980224609375,-0.011474609375,-0.9756097793579102,0.09146341681480408,0.060975611209869385,-6.449999809265137,-3.9000000953674316,-8.25,37.245845794677734,0,
 226410,-0.054931640625,-0.974853515625,-0.012939453125,-0.5792682766914368,0.3353658616542816,0.3353658616542816,-6.449999809265137,-3.9000000953674316,-8.25,37.10207748413086,0,
 226420,-0.056396484375,-0.98095703125,-0.0146484375,-0.6402438879013062,0.24390244483947754,-0.12195122241973877,-7.5,-3.1500000953674316,-6.75,37.006229400634766,0,
 226430,-0.05859375,-0.979248046875,-0.01171875,-0.7621951103210449,0.18292683362960815,0.27439025044441223,-5.849999904632568,-4.949999809265137,-7.199999809265137,37.006229400634766,0,
 226450,-0.054931640625,-0.9736328125,-0.013916015625,-0.3048780560493469,0.3048780560493469,0.6097561120986938,-6.449999809265137,-3.450000047683716,-7.5,37.006229400634766,0,
 226470,-0.058837890625,-0.98095703125,-0.008544921875,-0.5487805008888245,0.4268292784690857,0.09146341681480408,-6.300000190734863,-7.199999809265137,-9.149999618530273,37.10207748413086,0,
 226480,-0.05712890625,-0.971923828125,-0.01220703125,-0.4573170840740204,0.21341463923454285,0.3048780560493469,-8.100000381469727,-2.549999952316284,-11.399999618530273,37.05415344238281,0,
 226490,-0.060302734375,-0.97998046875,-0.0107421875,-0.792682945728302,0.4573170840740204,0.18292683362960815,-4.5,-4.349999904632568,-9.0,37.006229400634766,0,
 226501,-0.054443359375,-0.979248046875,-0.0107421875,-0.5182926654815674,0.3658536672592163,0.27439025044441223,-4.5,-4.349999904632568,-9.0,37.006229400634766,0,
 226511,-0.0576171875,-0.975830078125,-0.010498046875,-0.4573170840740204,0.3658536672592163,0.24390244483947754,-5.699999809265137,-3.9000000953674316,-7.800000190734863,37.05415344238281,0,
 226521,-0.0556640625,-0.971435546875,-0.008056640625,-0.8231707215309143,0.060975611209869385,0.030487805604934692,-6.599999904632568,-2.8499999046325684,-7.949999809265137,37.05415344238281,0,
 226531,-0.057861328125,-0.975341796875,-0.005615234375,-1.0365853309631348,0.3048780560493469,0.09146341681480408,-5.849999904632568,-3.75,-6.449999809265137,37.19792175292969,0,
 226561,-0.06201171875,-0.979248046875,-0.014892578125,-0.4573170840740204,0.15243902802467346,0.09146341681480408,-5.849999904632568,-5.25,-7.949999809265137,37.006229400634766,0,
 226571,-0.055419921875,-0.9755859375,-0.0107421875,-0.7012194991111755,0.3048780560493469,-0.060975611209869385,-7.199999809265137,-5.849999904632568,-8.25,37.19792175292969,0,
 226581,-0.060302734375,-0.976318359375,-0.0126953125,-0.6097561120986938,0.15243902802467346,0.21341463923454285,-4.650000095367432,-5.25,-8.699999809265137,37.05415344238281,0,
 226591,-0.056884765625,-0.9765625,-0.0048828125,-0.4268292784690857,-0.060975611209869385,0.18292683362960815,-4.650000095367432,-5.25,-8.699999809265137,36.91038513183594,0,
 226601,-0.0615234375,-0.975830078125,-0.01123046875,-0.8536585569381714,0.21341463923454285,0.09146341681480408,-6.599999904632568,-3.75,-6.150000095367432,36.86246109008789,0,
 226611,-0.0576171875,-0.976806640625,-0.013916015625,-1.0060975551605225,0.12195122241973877,0.24390244483947754,-5.699999809265137,-3.9000000953674316,-8.550000190734863,37.05415344238281,0,
 226631,-0.05712890625,-0.98291015625,-0.01171875,-0.9756097793579102,0.030487805604934692,0.09146341681480408,-5.849999904632568,-4.5,-8.399999618530273,37.006229400634766,0,
 226641,-0.056640625,-0.98095703125,-0.01904296875,-1.3414634466171265,0.4573170840740204,0.4573170840740204,-5.849999904632568,-4.5,-8.399999618530273,36.86246109008789,0,
 226651,-0.056640625,-0.97412109375,-0.006591796875,-1.5548781156539917,0.18292683362960815,0.396341472864151,-5.699999809265137,-3.450000047683716,-9.0,36.86246109008789,0,
 226661,-0.0576171875,-0.97998046875,-0.01806640625,-1.3109756708145142,0.3353658616542816,0.3353658616542816,-5.400000095367432,-5.699999809265137,-7.949999809265137,37.245845794677734,0,
 226671,-0.060302734375,-0.97412109375,-0.014892578125,-1.6463414430618286,0.18292683362960815,0.4878048896789551,-4.650000095367432,-3.299999952316284,-7.949999809265137,37.10207748413086,0,
 226681,-0.055419921875,-0.9765625,-0.01318359375,-1.0365853309631348,0.030487805604934692,0.3353658616542816,-6.300000190734863,-3.299999952316284,-8.699999809265137,37.10207748413086,0,
 226691,-0.05419921875,-0.97705078125,-0.015869140625,-1.1280487775802612,0.24390244483947754,0.4573170840740204,-6.300000190734863,-3.299999952316284,-8.699999809265137,36.814537048339844,0,
 226701,-0.056396484375,-0.9794921875,-0.01513671875,-1.1585365533828735,0.24390244483947754,0.3048780560493469,-6.300000190734863,-4.5,-6.900000095367432,37.10207748413086,0,
 226711,-0.0615234375,-0.97900390625,-0.018798828125,-1.2195122241973877,0.21341463923454285,0.5182926654815674,-6.300000190734863,-3.75,-6.900000095367432,37.05415344238281,0,
 226721,-0.06005859375,-0.982177734375,-0.009521484375,-1.402438998222351,0.15243902802467346,0.7012194991111755,-6.599999904632568,-4.050000190734863,-7.199999809265137,37.05415344238281,0,
 226731,-0.0546875,-0.98193359375,-0.011474609375,-1.3414634466171265,0.3658536672592163,1.1585365533828735,-6.599999904632568,-4.050000190734863,-7.199999809265137,37.245845794677734,0,
 226741,-0.054443359375,-0.983154296875,-0.01806640625,-1.7073171138763428,0.4878048896789551,1.585365891456604,-5.849999904632568,-2.8499999046325684,-7.949999809265137,37.006229400634766,0,
 226751,-0.053955078125,-0.98046875,-0.01806640625,-2.1341464519500732,0.24390244483947754,2.0426828861236572,-5.849999904632568,-4.050000190734863,-7.650000095367432,37.05415344238281,0,
 226761,-0.052978515625,-0.97998046875,-0.013671875,-1.737804889678955,0.5182926654815674,2.103658676147461,-5.849999904632568,-4.5,-8.699999809265137,37.34169006347656,0,
 226771,-0.056396484375,-0.978271484375,-0.01611328125,-1.6768293380737305,0.5487805008888245,2.682926893234253,-5.699999809265137,-3.9000000953674316,-9.0,37.19792175292969,0,
 226781,-0.057861328125,-0.975341796875,-0.01123046875,-1.8292683362960815,0.5487805008888245,3.2317073345184326,-5.699999809265137,-3.9000000953674316,-9.0,37.006229400634766,0,
 226791,-0.061767578125,-0.986083984375,-0.012939453125,-2.2865853309631348,0.4878048896789551,3.8109757900238037,-3.1500000953674316,-2.8499999046325684,-8.699999809265137,36.86246109008789,0,
 226801,-0.05322265625,-0.986572265625,-0.01220703125,-2.4390244483947754,0.7317073345184326,4.817073345184326,-6.599999904632568,-2.8499999046325684,-8.399999618530273,37.245845794677734,0,
 226811,-0.04248046875,-0.997802734375,-0.005615234375,-3.2317073345184326,0.8231707215309143,6.5853657722473145,-6.300000190734863,-3.75,-7.650000095367432,37.006229400634766,0,
 226831,-0.01416015625,-1.031982421875,0.005859375,-7.347561359405518,1.6768293380737305,16.676830291748047,-6.300000190734863,-2.8499999046325684,-9.149999618530273,37.10207748413086,0,
 226841,-0.000244140625,-1.042724609375,0.011962890625,-11.52439022064209,1.8597561120986938,25.762195587158203,-6.0,-4.349999904632568,-7.5,36.91038513183594,0,
 226851,0.00341796875,-1.060546875,0.01416015625,-16.341463088989258,1.7987805604934692,37.95731735229492,-3.9000000953674316,-4.5,-7.199999809265137,37.10207748413086,0,
 226861,-0.0048828125,-1.086181640625,0.0146484375,-21.859756469726562,1.0670732259750366,51.85975646972656,-4.199999809265137,-2.700000047683716,-7.050000190734863,36.91038513183594,0,
 226871,-0.03564453125,-1.082275390625,0.001708984375,-26.768293380737305,0.7012194991111755,65.48780822753906,-4.199999809265137,-2.700000047683716,-7.050000190734863,36.86246109008789,0,
 226881,-0.062744140625,-1.08154296875,-0.010498046875,-30.426830291748047,0.18292683362960815,79.57317352294922,-3.1500000953674316,-4.949999809265137,-8.399999618530273,37.245845794677734,0,
 226891,-0.145263671875,-1.069091796875,-0.00634765625,-30.670732498168945,-0.3048780560493469,91.58536529541016,-4.949999809265137,-0.75,-8.25,37.19792175292969,0,
 226901,-0.1630859375,-1.008056640625,0.07861328125,-22.621952056884766,-1.3719512224197388,97.74390411376953,-3.0,-2.700000047683716,-7.5,37.245845794677734,0,
 226911,-0.1015625,-1.160400390625,0.33837890625,63.68902587890625,-38.506099700927734,63.75,-3.9000000953674316,-2.0999999046325684,-8.399999618530273,36.814537048339844,0,
 226921,-0.020263671875,-1.785888671875,0.4482421875,83.78048706054688,-69.69512176513672,8.140244483947754,-3.9000000953674316,-2.0999999046325684,-8.399999618530273,37.10207748413086,0,
 226931,-0.019287109375,-2.28466796875,0.15478515625,45.64024353027344,-91.46341705322266,-45.182926177978516,-3.75,-2.700000047683716,-6.75,37.006229400634766,0,
 226941,-0.26171875,-2.093994140625,-0.112548828125,-11.859756469726562,-93.07926940917969,-69.90853881835938,-5.099999904632568,-2.0999999046325684,-7.650000095367432,37.34169006347656,0,
 226951,-0.545654296875,-1.357177734375,-0.163330078125,-35.213417053222656,-74.08536529541016,-68.17073059082031,-3.299999952316284,-4.650000095367432,-7.800000190734863,37.006229400634766,0,
 226961,-0.701416015625,-0.642333984375,-0.095947265625,-13.384146690368652,-41.585365295410156,-49.42073440551758,-2.549999952316284,-3.9000000953674316,-7.800000190734863,37.19792175292969,0,
 226971,-0.7421875,-0.43994140625,-0.089599609375,22.5,-3.7804877758026123,-28.93292808532715,-2.549999952316284,-3.9000000953674316,-7.800000190734863,37.10207748413086,0,
 226981,-0.5810546875,-0.761962890625,-0.163818359375,34.45122146606445,28.109756469726562,-20.213415145874023,-4.199999809265137,-4.349999904632568,-7.050000190734863,36.86246109008789,0,
 226991,-0.334716796875,-1.179931640625,-0.195556640625,18.018293380737305,44.63414764404297,-24.115854263305664,-3.75,-5.400000095367432,-6.0,37.245845794677734,0,
 227001,-0.1376953125,-1.271728515625,-0.12646484375,-2.408536672592163,46.34146499633789,-33.23170852661133,-3.0,-6.300000190734863,-9.300000190734863,37.006229400634766,0,
 227011,-0.03759765625,-1.067626953125,0.023681640625,-7.195122241973877,38.68902587890625,-38.719512939453125,-3.0,-6.300000190734863,-9.300000190734863,37.006229400634766,0,
 227021,-0.01416015625,-0.80126953125,0.13818359375,3.658536672592163,26.463415145874023,-36.67683029174805,-3.0,-5.400000095367432,-9.0,37.245845794677734,0,
 227031,-0.001953125,-0.686279296875,0.160888671875,16.128049850463867,13.75,-30.975610733032227,-3.1500000953674316,-6.900000095367432,-8.699999809265137,36.86246109008789,0,
 227041,0.00634765625,-0.71337890625,0.123291015625,20.975610733032227,2.865853786468506,-24.817073822021484,-2.549999952316284,-6.599999904632568,-9.0,36.91038513183594,0,
 227051,-0.0048828125,-0.764404296875,0.048828125,18.93292808532715,-5.396341800689697,-20.609756469726562,-3.5999999046325684,-5.25,-7.949999809265137,37.05415344238281,0,
 227061,-0.023193359375,-0.750732421875,-0.000244140625,16.676830291748047,-9.146341323852539,-16.768293380737305,-3.5999999046325684,-5.25,-7.949999809265137,37.05415344238281,0,
 227071,-0.054443359375,-0.713623046875,-0.091552734375,16.43292808532715,-8.04878044128418,-15.457317352294922,-4.5,-6.599999904632568,-7.800000190734863,37.006229400634766,0,
 227081,-0.0419921875,-0.736083984375,-0.134033203125,17.591463088989258,-3.9939024448394775,-16.768293380737305,-2.8499999046325684,-5.699999809265137,-9.149999618530273,36.86246109008789,0,
 227091,-0.031494140625,-0.69580078125,-0.170166015625,16.189023971557617,2.77439022064209,-21.524391174316406,-3.75,-6.599999904632568,-8.550000190734863,36.86246109008789,0,
 227101,-0.032470703125,-0.591796875,-0.18359375,12.591464042663574,10.15243911743164,-25.15243911743164,-3.9000000953674316,-8.399999618530273,-9.149999618530273,37.05415344238281,0,
 227121,-0.069091796875,-0.3876953125,-0.198486328125,8.231707572937012,25.792682647705078,-26.03658676147461,-4.5,-7.5,-6.75,37.006229400634766,0,
 227131,-0.091796875,-0.31591796875,-0.2060546875,5.70121955871582,33.59756088256836,-22.378049850463867,-3.9000000953674316,-8.100000381469727,-9.449999809265137,36.718692779541016,0,
 227141,-0.088134765625,-0.300537109375,-0.20703125,4.02439022064209,40.94512176513672,-17.286584854125977,-4.949999809265137,-7.800000190734863,-8.25,37.19792175292969,0,
 227181,-0.0361328125,-0.212890625,-0.1982421875,-7.408536911010742,64.42073059082031,-13.20121955871582,-3.9000000953674316,-6.449999809265137,-8.699999809265137,37.006229400634766,0,
 227191,-0.03369140625,-0.158935546875,-0.193359375,-9.603658676147461,69.78659057617188,-13.140244483947754,-3.5999999046325684,-6.900000095367432,-9.899999618530273,37.05415344238281,0,
 227201,-0.015869140625,-0.11767578125,-0.16552734375,-12.103658676147461,74.32926940917969,-11.432927131652832,-3.5999999046325684,-6.900000095367432,-9.899999618530273,37.05415344238281,0,
 227211,0.01220703125,-0.092529296875,-0.1484375,-14.57317066192627,77.04268646240234,-8.87195110321045,-4.949999809265137,-5.099999904632568,-8.550000190734863,37.19792175292969,0,
 227221,0.048095703125,-0.0810546875,-0.125,-17.591463088989258,77.53048706054688,-5.9146342277526855,-6.300000190734863,-5.699999809265137,-9.149999618530273,37.34169006347656,0,
 227232,0.0888671875,-0.064697265625,-0.08642578125,-20.975610733032227,74.8780517578125,-2.103658676147461,-4.5,-4.650000095367432,-8.550000190734863,37.006229400634766,0,
 227242,0.147705078125,-0.07080078125,-0.045166015625,-23.628049850463867,68.10975646972656,1.7987805604934692,-5.849999904632568,-4.5,-9.149999618530273,37.10207748413086,0,
 227252,0.231201171875,-0.10302734375,0.00244140625,-26.310976028442383,56.85975646972656,5.457317352294922,-5.849999904632568,-4.5,-9.149999618530273,37.006229400634766,0,
 227262,0.302001953125,-0.128173828125,0.04345703125,-28.170732498168945,40.64024353027344,6.707317352294922,-6.599999904632568,-4.949999809265137,-9.899999618530273,37.006229400634766,0,
 227272,2.583984375,-7.999755859375,-3.504150390625,-27.98780632019043,20.975610733032227,7.865853786468506,-6.449999809265137,-3.450000047683716,-9.300000190734863,37.34169006347656,0,
 227282,-8.0,-4.669677734375,2.537841796875,-12.134146690368652,63.78049087524414,62.8658561706543,-6.300000190734863,-2.8499999046325684,-10.649999618530273,36.814537048339844,0,
 227292,2.933349609375,-0.551025390625,0.523193359375,-94.08536529541016,36.64634323120117,-301.8597717285156,-7.050000190734863,-4.949999809265137,-8.399999618530273,37.19792175292969,0,
 227302,0.98974609375,1.02001953125,-0.010009765625,-161.5853729248047,-56.92073440551758,-25.762195587158203,-7.050000190734863,-4.949999809265137,-8.399999618530273,37.245845794677734,0,
 227312,0.505126953125,-0.248046875,-1.464111328125,-38.17073440551758,-64.1463394165039,99.84756469726562,-6.75,-6.599999904632568,-9.75,36.86246109008789,0,
 227412,-0.633544921875,-0.922119140625,-0.0439453125,18.780488967895508,-0.5182926654815674,-49.39024353027344,-3.9000000953674316,-2.549999952316284,-9.899999618530273,37.006229400634766,0,
 227422,-0.3212890625,-1.050048828125,0.0419921875,10.0,6.615853786468506,-65.1524429321289,-6.0,-3.9000000953674316,-7.5,36.86246109008789,0,
 227432,-0.1767578125,-1.072998046875,0.049560546875,0.6707317233085632,13.109756469726562,-66.67683410644531,-4.199999809265137,-2.700000047683716,-7.050000190734863,37.05415344238281,0,
 227442,-0.1474609375,-0.990478515625,-0.0107421875,1.402438998222351,22.774391174316406,-62.89634323120117,-4.199999809265137,-2.700000047683716,-7.050000190734863,36.86246109008789,0,
 227452,-0.117431640625,-0.96875,-0.050537109375,4.847560882568359,30.030488967895508,-56.371952056884766,-5.099999904632568,-4.949999809265137,-8.699999809265137,36.91038513183594,0,
 227472,0.059814453125,-1.0341796875,-0.039794921875,4.878048896789551,26.463415145874023,-36.432926177978516,-6.300000190734863,-4.949999809265137,-9.899999618530273,36.814537048339844,0,
 227512,-0.013671875,-0.972412109375,-0.03076171875,3.9634146690368652,1.097561001777649,19.542682647705078,-7.199999809265137,-4.650000095367432,-9.75,37.19792175292969,0,
 227532,-0.056640625,-1.0,-0.010009765625,-4.29878044128418,-0.792682945728302,24.268293380737305,-6.75,-3.9000000953674316,-7.800000190734863,37.006229400634766,0,
 227542,-0.080322265625,-0.960693359375,-0.028564453125,-7.22560977935791,-1.4634146690368652,23.963415145874023,-6.300000190734863,-4.050000190734863,-7.949999809265137,37.10207748413086,0,
 227552,-0.09326171875,-0.949951171875,-0.036865234375,-5.579268455505371,-0.7317073345184326,22.530488967895508,-7.199999809265137,-2.700000047683716,-9.0,37.10207748413086,0,
 227562,-0.101806640625,-0.95263671875,-0.0322265625,-3.7804877758026123,-0.4268292784690857,19.237804412841797,-6.449999809265137,-2.700000047683716,-8.550000190734863,36.86246109008789,0,
 227572,-0.122314453125,-0.953857421875,-0.035888671875,-2.012195110321045,-0.4573170840740204,13.932927131652832,-6.0,-2.25,-7.800000190734863,36.91038513183594,0,
 227582,-0.13720703125,-0.9443359375,-0.037353515625,-1.25,-0.6097561120986938,6.493902683258057,-6.0,-2.25,-7.800000190734863,37.19792175292969,0,
 227592,-0.1298828125,-0.9521484375,-0.036865234375,1.097561001777649,-0.15243902802467346,-1.2195122241973877,-6.0,-3.9000000953674316,-7.5,36.86246109008789,0,
 227602,-0.115478515625,-0.953857421875,-0.0341796875,3.353658676147461,0.3658536672592163,-8.780488014221191,-6.75,-3.9000000953674316,-7.5,37.006229400634766,0,
 227612,-0.108154296875,-0.956787109375,-0.04052734375,4.695122241973877,0.24390244483947754,-14.390244483947754,-4.199999809265137,-2.700000047683716,-9.0,37.19792175292969,0,
 227622,-0.09423828125,-0.95947265625,-0.03564453125,6.7682929039001465,0.8536585569381714,-18.719512939453125,-4.199999809265137,-2.700000047683716,-9.0,36.718692779541016,0,
 227632,-0.07275390625,-0.975341796875,-0.023681640625,8.04878044128418,1.0670732259750366,-21.371952056884766,-6.300000190734863,-4.5,-8.399999618530273,37.05415344238281,0,
 227642,-0.05517578125,-0.985595703125,-0.02197265625,8.932927131652832,1.5548781156539917,-21.64634132385254,-6.599999904632568,-4.050000190734863,-8.399999618530273,37.05415344238281,0,
 227652,-0.0361328125,-0.9921875,-0.01171875,9.054878234863281,1.8292683362960815,-19.817073822021484,-7.349999904632568,-3.299999952316284,-6.900000095367432,36.814537048339844,0,
 227662,-0.020263671875,-1.00048828125,-0.0068359375,8.079268455505371,1.5548781156539917,-15.945122718811035,-7.199999809265137,-3.450000047683716,-9.0,37.006229400634766,0,
 227692,-0.036865234375,-0.98681640625,-0.00439453125,1.737804889678955,0.6097561120986938,2.378048896789551,-6.75,-4.349999904632568,-9.0,36.91038513183594,0,
 227732,-0.0732421875,-0.975830078125,-0.013427734375,-0.9451219439506531,1.0060975551605225,5.853658676147461,-5.699999809265137,-3.450000047683716,-7.050000190734863,37.245845794677734,0,
 227772,-0.06591796875,-0.973876953125,-0.017578125,1.25,0.24390244483947754,-2.0426828861236572,-5.25,-2.700000047683716,-7.050000190734863,37.006229400634766,0,
 227782,-0.05908203125,-0.97265625,-0.019287109375,2.103658676147461,-0.12195122241973877,-3.079268455505371,-6.449999809265137,-2.700000047683716,-8.25,37.006229400634766,0,
 227802,-0.05224609375,-0.982666015625,-0.012939453125,2.4695122241973877,0.3353658616542816,-2.6524391174316406,-5.25,-2.700000047683716,-9.300000190734863,37.10207748413086,0,
 227812,-0.048828125,-0.977783203125,-0.01318359375,1.737804889678955,0.7012194991111755,0.15243902802467346,-5.25,-2.700000047683716,-9.300000190734863,37.006229400634766,0,
 227822,-0.046875,-0.985107421875,-0.008544921875,1.0670732259750366,0.5182926654815674,1.4939024448394775,-7.800000190734863,-4.050000190734863,-7.650000095367432,37.006229400634766,0,
 227842,-0.05322265625,-0.9794921875,-0.0087890625,-0.24390244483947754,0.7621951103210449,2.4695122241973877,-7.949999809265137,-3.1500000953674316,-7.5,37.006229400634766,0,
 227862,-0.070556640625,-0.9736328125,-0.014892578125,-0.060975611209869385,0.6402438879013062,1.6158536672592163,-5.25,-3.9000000953674316,-8.25,37.05415344238281,0,
 227873,-0.06103515625,-0.97802734375,-0.009521484375,-0.4573170840740204,0.27439025044441223,1.1585365533828735,-7.050000190734863,-4.050000190734863,-7.949999809265137,37.245845794677734,0,
 227883,-0.060791015625,-0.974365234375,-0.01416015625,-0.4268292784690857,0.15243902802467346,0.09146341681480408,-7.800000190734863,-2.549999952316284,-8.699999809265137,37.05415344238281,0,
 227893,-0.054931640625,-0.972412109375,-0.009765625,-0.21341463923454285,0.3658536672592163,-0.09146341681480408,-6.75,-4.349999904632568,-9.0,37.05415344238281,0,
 227903,-0.061279296875,-0.97265625,-0.010498046875,-0.09146341681480408,0.18292683362960815,-1.0365853309631348,-6.75,-4.349999904632568,-9.0,37.006229400634766,0,
 227913,-0.056884765625,-0.979248046875,-0.0068359375,-0.3658536672592163,0.21341463923454285,-0.6402438879013062,-7.199999809265137,-3.1500000953674316,-7.800000190734863,37.006229400634766,0,
 227923,-0.066650390625,-0.980712890625,-0.01220703125,0.060975611209869385,0.21341463923454285,-0.5792682766914368,-7.949999809265137,-4.650000095367432,-8.25,37.006229400634766,0,
 227953,-0.06103515625,-0.980224609375,-0.0126953125,-0.396341472864151,0.6402438879013062,0.09146341681480408,-6.300000190734863,-4.050000190734863,-7.949999809265137,37.10207748413086,0,
 227963,-0.055419921875,-0.982666015625,-0.008544921875,-1.0670732259750366,0.030487805604934692,0.3048780560493469,-6.0,-3.450000047683716,-9.0,37.006229400634766,0,
 227983,-0.06005859375,-0.981201171875,-0.010986328125,-1.1280487775802612,0.060975611209869385,0.18292683362960815,-6.599999904632568,-2.549999952316284,-7.199999809265137,37.05415344238281,0,
 227993,-0.05859375,-0.9775390625,-0.0107421875,-1.3414634466171265,0.396341472864151,0.09146341681480408,-4.650000095367432,-3.75,-9.899999618530273,36.86246109008789,0,
 228003,-0.0634765625,-0.96923828125,-0.015380859375,-1.1585365533828735,0.24390244483947754,0.21341463923454285,-4.650000095367432,-3.75,-9.899999618530273,37.245845794677734,0,
 228013,-0.06201171875,-0.975341796875,-0.01318359375,-1.0060975551605225,0.3353658616542816,0.09146341681480408,-5.849999904632568,-3.75,-6.900000095367432,36.718692779541016,0,
 228023,-0.058349609375,-0.978759765625,-0.01171875,-0.8231707215309143,0.18292683362960815,0.24390244483947754,-6.300000190734863,-4.050000190734863,-12.449999809265137,37.34169006347656,0,
 228033,-0.058349609375,-0.9716796875,-0.00927734375,-1.5548781156539917,0.396341472864151,-0.060975611209869385,-6.75,-3.9000000953674316,-8.25,37.006229400634766,0,
 228043,-0.05859375,-0.97265625,-0.006103515625,-0.5792682766914368,-0.060975611209869385,0.15243902802467346,-6.75,-3.9000000953674316,-8.25,37.006229400634766,0,
 228053,-0.056640625,-0.971435546875,-0.01416015625,-1.2195122241973877,0.12195122241973877,0.3048780560493469,-6.75,-3.9000000953674316,-8.25,37.19792175292969,0,
 228063,-0.050048828125,-0.9736328125,-0.010986328125,-0.5792682766914368,0.0,0.24390244483947754,-6.0,-3.1500000953674316,-8.25,37.006229400634766,0,
 228073,-0.060791015625,-0.977294921875,-0.01220703125,-0.792682945728302,0.0,0.27439025044441223,-7.349999904632568,-3.299999952316284,-8.699999809265137,37.05415344238281,0,
 228083,-0.061279296875,-0.974853515625,-0.01416015625,-0.7012194991111755,0.09146341681480408,0.12195122241973877,-6.75,-5.400000095367432,-8.25,37.006229400634766,0,
 228093,-0.056640625,-0.96875,-0.015869140625,-0.8536585569381714,0.3353658616542816,0.3353658616542816,-6.75,-5.400000095367432,-8.25,37.05415344238281,0,
 228103,-0.061767578125,-0.97705078125,-0.012451171875,-0.9451219439506531,0.27439025044441223,0.12195122241973877,-5.699999809265137,-3.9000000953674316,-7.050000190734863,37.05415344238281,0,
 228123,-0.06201171875,-0.9794921875,-0.011474609375,-0.7317073345184326,0.18292683362960815,0.15243902802467346,-7.050000190734863,-2.549999952316284,-7.949999809265137,37.05415344238281,0,
 228133,-0.0625,-0.97900390625,-0.013427734375,-0.7012194991111755,0.12195122241973877,0.15243902802467346,-7.5,-5.099999904632568,-7.050000190734863,37.006229400634766,0,
 228143,-0.05810546875,-0.9775390625,-0.015380859375,-0.6097561120986938,0.3048780560493469,0.15243902802467346,-7.5,-5.099999904632568,-7.050000190734863,37.34169006347656,0,
 228153,-0.05859375,-0.97900390625,-0.0107421875,-0.4878048896789551,0.27439025044441223,0.3658536672592163,-6.300000190734863,-3.75,-7.650000095367432,37.34169006347656,0,
 228163,-0.0625,-0.979248046875,-0.015869140625,-0.4878048896789551,0.3353658616542816,0.3048780560493469,-6.75,-3.9000000953674316,-7.800000190734863,37.006229400634766,0,
 228173,-0.066162109375,-0.974853515625,-0.011962890625,-0.6097561120986938,0.24390244483947754,0.12195122241973877,-5.400000095367432,-4.5,-8.699999809265137,37.006229400634766,0,
 228183,-0.0595703125,-0.97412109375,-0.016357421875,-0.27439025044441223,0.24390244483947754,0.060975611209869385,-5.400000095367432,-4.5,-8.699999809265137,37.05415344238281,0,
 228223,-0.059814453125,-0.973876953125,-0.0107421875,-0.12195122241973877,0.24390244483947754,0.21341463923454285,-6.300000190734863,-4.949999809265137,-8.699999809265137,37.05415344238281,0,
 228233,-0.06005859375,-0.97509765625,-0.010498046875,-0.27439025044441223,0.060975611209869385,0.4268292784690857,-6.300000190734863,-4.949999809265137,-8.699999809265137,37.19792175292969,0,
 228243,-0.056884765625,-0.974853515625,-0.013671875,-0.396341472864151,0.27439025044441223,0.3353658616542816,-6.0,-4.650000095367432,-7.5,37.006229400634766,0,
 228253,-0.056640625,-0.977294921875,-0.019287109375,-0.3353658616542816,0.3658536672592163,0.4268292784690857,-6.300000190734863,-3.299999952316284,-6.900000095367432,37.19792175292969,0,
 228263,-0.06005859375,-0.973876953125,-0.016357421875,-0.12195122241973877,0.060975611209869385,0.396341472864151,-4.349999904632568,-4.949999809265137,-7.199999809265137,37.19792175292969,0,
 228273,-0.06103515625,-0.97509765625,-0.00927734375,-0.3658536672592163,0.18292683362960815,0.4878048896789551,-7.050000190734863,-3.299999952316284,-7.949999809265137,37.006229400634766,0,
 228283,-0.054443359375,-0.974365234375,-0.006591796875,-0.5487805008888245,0.3353658616542816,0.5487805008888245,-7.050000190734863,-3.299999952316284,-7.949999809265137,37.05415344238281,0,
 228293,-0.056640625,-0.9814453125,-0.010009765625,-0.4878048896789551,0.15243902802467346,0.396341472864151,-5.25,-3.1500000953674316,-7.800000190734863,37.05415344238281,0,
 228303,-0.056640625,-0.979736328125,-0.015869140625,-0.5182926654815674,0.12195122241973877,0.4268292784690857,-7.050000190734863,-4.5,-9.149999618530273,36.814537048339844,0,
 228313,-0.0615234375,-0.97412109375,-0.010986328125,-0.7317073345184326,0.12195122241973877,0.4268292784690857,-7.5,-2.700000047683716,-8.550000190734863,37.006229400634766,0,
 228323,-0.057373046875,-0.975830078125,-0.011474609375,-0.5487805008888245,0.12195122241973877,0.4268292784690857,-7.5,-2.700000047683716,-8.550000190734863,37.006229400634766,0,
 228373,-0.05615234375,-0.998779296875,-0.00537109375,-3.4146342277526855,1.1280487775802612,4.542683124542236,-5.25,-4.650000095367432,-7.050000190734863,37.19792175292969,0,
 228383,-0.043212890625,-1.02294921875,0.005126953125,-6.95121955871582,0.792682945728302,7.896341800689697,-6.300000190734863,-4.050000190734863,-7.650000095367432,37.34169006347656,0,
 228393,-0.032470703125,-1.023681640625,0.010986328125,-10.579268455505371,0.8841463327407837,13.384146690368652,-8.399999618530273,-2.25,-8.25,37.19792175292969,0,
 228403,-0.02734375,-1.029296875,0.016845703125,-15.457317352294922,2.22560977935791,21.79878044128418,-6.599999904632568,-3.299999952316284,-7.650000095367432,36.814537048339844,0,
 228413,-0.002197265625,-1.0712890625,0.03759765625,-23.018293380737305,1.7987805604934692,34.878047943115234,-6.0,-2.25,-6.0,36.86246109008789,0,
 228423,-0.038818359375,-1.0849609375,0.010498046875,-29.7560977935791,2.5609755516052246,48.99390411376953,-6.0,-2.25,-6.0,37.006229400634766,0,
 228453,-0.07275390625,-1.1640625,0.0537109375,-32.74390411376953,9.146341323852539,62.89634323120117,-4.949999809265137,-3.1500000953674316,-7.800000190734863,36.91038513183594,0,
 228463,0.11962890625,-1.338134765625,0.222900390625,-21.524391174316406,3.47560977935791,44.17683029174805,-4.949999809265137,-3.1500000953674316,-7.800000190734863,37.10207748413086,0,
 228473,0.19140625,-1.6943359375,0.291259765625,4.207317352294922,-13.20121955871582,4.481707572937012,-3.75,-4.349999904632568,-7.800000190734863,37.006229400634766,0,
 228483,0.116455078125,-1.677978515625,0.177490234375,19.268293380737305,-34.756099700927734,-40.853660583496094,-4.949999809265137,-2.700000047683716,-6.75,36.91038513183594,0,
 228493,-0.146484375,-1.337158203125,0.068359375,12.77439022064209,-49.085365295410156,-71.00609588623047,-5.400000095367432,-4.949999809265137,-6.449999809265137,37.34169006347656,0,
 228503,-0.363525390625,-0.94873046875,-0.008544921875,2.5,-52.19512176513672,-70.03048706054688,-6.300000190734863,-5.25,-6.449999809265137,36.814537048339844,0,
 228523,-0.431884765625,-0.95556640625,-0.164306640625,12.469512939453125,-29.69512176513672,-32.317073822021484,-4.650000095367432,-6.449999809265137,-6.449999809265137,37.245845794677734,0,
 228533,-0.328369140625,-1.163818359375,-0.207275390625,12.65243911743164,-14.45121955871582,-19.512195587158203,-8.550000190734863,-3.299999952316284,-6.900000095367432,37.006229400634766,0,
 228543,-0.246826171875,-1.197021484375,-0.176513671875,3.0182926654815674,-2.896341562271118,-16.95121955871582,-7.349999904632568,-6.900000095367432,-7.199999809265137,36.86246109008789,0,
 228553,-0.19287109375,-1.084228515625,-0.09912109375,-5.030488014221191,3.7804877758026123,-17.19512176513672,-6.0,-5.400000095367432,-4.5,36.86246109008789,0,
 228563,-0.15478515625,-0.986572265625,-0.0439453125,-5.884146690368652,6.128048896789551,-16.43292808532715,-6.0,-5.400000095367432,-4.5,37.19792175292969,0,
 228573,-0.114501953125,-0.9794921875,-0.005615234375,-2.2560975551605225,5.4268293380737305,-13.018293380737305,-5.400000095367432,-6.0,-6.900000095367432,37.05415344238281,0,
 228584,-0.06005859375,-0.999267578125,0.008056640625,1.4634146690368652,2.4390244483947754,-10.792683601379395,-4.5,-5.849999904632568,-8.25,37.19792175292969,0,
 228594,-0.0380859375,-0.990966796875,0.005126953125,4.146341323852539,-1.432926893234253,-10.884146690368652,-5.400000095367432,-6.449999809265137,-7.199999809265137,37.006229400634766,0,
 228604,-0.031982421875,-0.943603515625,-0.00390625,4.878048896789551,-5.853658676147461,-11.981707572937012,-5.400000095367432,-6.449999809265137,-7.199999809265137,36.86246109008789,0,
 228614,-0.040283203125,-0.895751953125,-0.030029296875,6.493902683258057,-9.268292427062988,-11.585366249084473,-4.650000095367432,-8.399999618530273,-5.400000095367432,37.19792175292969,0,
 228624,-0.056396484375,-0.85986328125,-0.070068359375,8.567073822021484,-10.12195110321045,-10.457317352294922,-4.199999809265137,-6.599999904632568,-7.800000190734863,37.05415344238281,0,
 228634,-0.058837890625,-0.8271484375,-0.103271484375,9.085366249084473,-9.57317066192627,-8.719511985778809,-4.199999809265137,-6.599999904632568,-7.050000190734863,37.10207748413086,0,
 228644,-0.046630859375,-0.8076171875,-0.12451171875,7.957317352294922,-7.713414669036865,-5.609755992889404,-3.1500000953674316,-7.199999809265137,-9.449999809265137,37.245845794677734,0,
 228654,-0.03515625,-0.78173828125,-0.1396484375,7.0731706619262695,-4.847560882568359,-4.115853786468506,-3.1500000953674316,-7.199999809265137,-9.449999809265137,37.006229400634766,0,
 228664,-0.00537109375,-0.759765625,-0.145751953125,6.52439022064209,-2.1646342277526855,-3.841463565826416,-4.650000095367432,-8.100000381469727,-6.449999809265137,37.38961410522461,0,
 228674,0.009521484375,-0.72802734375,-0.15478515625,6.8597564697265625,0.792682945728302,-5.5182929039001465,-5.25,-9.899999618530273,-6.0,37.34169006347656,0,
 228684,0.01953125,-0.683837890625,-0.14794921875,6.432927131652832,3.567073345184326,-7.469512462615967,-4.650000095367432,-9.300000190734863,-6.900000095367432,37.006229400634766,0,
 228694,0.027099609375,-0.628173828125,-0.155029296875,7.378048896789551,6.7682929039001465,-10.27439022064209,-4.949999809265137,-9.899999618530273,-7.050000190734863,37.006229400634766,0,
 228704,0.006591796875,-0.564697265625,-0.177001953125,8.32317066192627,10.0,-12.37804889678955,-4.949999809265137,-9.899999618530273,-7.050000190734863,37.10207748413086,0,
 228714,-0.03564453125,-0.492431640625,-0.198974609375,7.896341800689697,21.463415145874023,-11.219511985778809,-3.299999952316284,-9.0,-7.5,37.19792175292969,0,
 228724,-0.06640625,-0.43017578125,-0.2294921875,6.829268455505371,29.84756088256836,-9.329268455505371,-4.199999809265137,-8.699999809265137,-7.5,37.006229400634766,0,
 228734,-0.0830078125,-0.378662109375,-0.25146484375,3.9939024448394775,38.780487060546875,-6.615853786468506,-5.099999904632568,-8.850000381469727,-6.900000095367432,37.006229400634766,0,
 228744,-0.083251953125,-0.32861328125,-0.261474609375,-0.09146341681480408,47.469512939453125,-2.9573171138763428,-5.099999904632568,-8.850000381469727,-6.900000095367432,36.86246109008789,0,
 228754,-0.08349609375,-0.2783203125,-0.25390625,-4.054878234863281,54.72561264038086,1.3719512224197388,-4.5,-9.0,-8.25,37.006229400634766,0,
 228764,-0.066650390625,-0.224365234375,-0.221435546875,-7.347561359405518,59.78658676147461,5.609755992889404,-6.449999809265137,-10.649999618530273,-8.550000190734863,37.006229400634766,0,
 228774,-0.037841796875,-0.178955078125,-0.189697265625,-7.9268293380737305,62.83536911010742,8.262195587158203,-6.0,-8.699999809265137,-7.800000190734863,37.10207748413086,0,
 228784,-0.010009765625,-0.1748046875,-0.16552734375,-8.414634704589844,63.93292999267578,8.384146690368652,-5.400000095367432,-9.600000381469727,-7.949999809265137,37.34169006347656,0,
 228794,0.019775390625,-0.18212890625,-0.145263671875,-8.445121765136719,63.47561264038086,5.243902683258057,-5.400000095367432,-9.600000381469727,-7.949999809265137,36.814537048339844,0,
 228804,0.042236328125,-0.182861328125,-0.119873046875,-8.32317066192627,61.89024353027344,0.7621951103210449,-6.300000190734863,-8.850000381469727,-9.449999809265137,37.19792175292969,0,
 228814,0.066162109375,-0.156494140625,-0.103759765625,-9.756097793579102,57.65243911743164,-1.3109756708145142,-5.25,-7.050000190734863,-7.5,37.006229400634766,0,
 228824,0.09423828125,-0.12890625,-0.079833984375,-12.37804889678955,50.54878234863281,-1.4939024448394775,-6.300000190734863,-7.650000095367432,-8.399999618530273,37.006229400634766,0,
 228834,0.129638671875,-0.116943359375,-0.05126953125,-14.786585807800293,40.3658561706543,-1.3719512224197388,-7.199999809265137,-5.849999904632568,-9.300000190734863,37.006229400634766,0,
 228844,0.17919921875,-0.124267578125,-0.01318359375,-16.128049850463867,27.68292808532715,-1.2195122241973877,-7.199999809265137,-5.849999904632568,-9.300000190734863,36.814537048339844,0,
 228854,0.23583984375,-0.14794921875,0.0048828125,-17.34756088256836,12.804878234863281,-1.920731782913208,-6.599999904632568,-5.699999809265137,-8.699999809265137,37.10207748413086,0,
 228864,0.278564453125,-0.219482421875,0.01220703125,398.1707458496094,-140.94512939453125,216.31097412109375,-6.75,-4.650000095367432,-7.800000190734863,37.245845794677734,0,
 228874,2.49560546875,7.145263671875,0.3935546875,82.34756469726562,84.14634704589844,-266.9817199707031,-8.100000381469727,-3.299999952316284,-10.949999809265137,37.34169006347656,0,
 228884,0.70263671875,-0.6142578125,0.42333984375,-129.0548858642578,-18.658536911010742,-53.07926940917969,-8.100000381469727,-3.299999952316284,-10.949999809265137,37.10207748413086,0,
 228894,0.56396484375,0.354248046875,-0.55126953125,-90.7317123413086,-36.55487823486328,39.29878234863281,-8.699999809265137,-3.9000000953674316,-10.050000190734863,36.814537048339844,0,
 228904,0.540283203125,-0.97900390625,-0.5458984375,-33.658538818359375,-53.719512939453125,119.63414764404297,-8.550000190734863,-5.25,-7.199999809265137,37.006229400634766,0,
 228914,0.0771484375,-0.461181640625,-0.277099609375,-4.6646342277526855,-44.48170852661133,120.51829528808594,-7.050000190734863,-5.25,-7.949999809265137,37.10207748413086,0,
 228924,-0.2021484375,-1.034912109375,-0.13720703125,31.524391174316406,-41.64634323120117,112.34756469726562,-7.949999809265137,-4.349999904632568,-7.800000190734863,37.05415344238281,0,
 228934,-0.380126953125,-1.285400390625,0.127685546875,30.060976028442383,-45.914634704589844,97.1036605834961,-7.949999809265137,-4.349999904632568,-7.800000190734863,37.19792175292969,0,
 228944,-0.271484375,-1.25537109375,0.14892578125,7.713414669036865,-54.2378044128418,64.96951293945312,-8.399999618530273,-3.450000047683716,-9.75,36.86246109008789,0,
 228954,-0.15380859375,-1.082763671875,0.12255859375,-20.39634132385254,-69.08536529541016,34.878047943115234,-5.849999904632568,-4.5,-7.949999809265137,37.006229400634766,0,
 228964,-0.237548828125,-0.834716796875,-0.00927734375,-34.2378044128418,-76.79878234863281,10.82317066192627,-5.699999809265137,-4.349999904632568,-7.050000190734863,36.814537048339844,0,
 228974,-0.4775390625,-0.684814453125,-0.125732421875,-24.878049850463867,-65.42683410644531,-6.829268455505371,-5.699999809265137,-4.349999904632568,-7.050000190734863,37.10207748413086,0,
 228984,-0.603271484375,-0.707275390625,-0.16357421875,-3.170731782913208,-37.0121955871582,-16.615854263305664,-5.699999809265137,-4.349999904632568,-7.050000190734863,37.006229400634766,0,
 228994,-0.42529296875,-0.92041015625,-0.059814453125,17.89634132385254,-5.457317352294922,-26.158536911010742,-5.099999904632568,-3.75,-7.650000095367432,37.006229400634766,0,
 229004,-0.1943359375,-1.091796875,0.049072265625,22.530488967895508,10.457317352294922,-42.835365295410156,-7.800000190734863,-4.5,-6.449999809265137,37.19792175292969,0,
 229014,-0.10693359375,-1.074462890625,0.03759765625,11.585366249084473,10.97560977935791,-53.99390411376953,-7.800000190734863,-4.5,-6.150000095367432,37.006229400634766,0,
 229024,-0.11572265625,-0.979248046875,-0.021484375,2.4695122241973877,12.164634704589844,-55.60975646972656,-7.800000190734863,-4.5,-6.150000095367432,37.05415344238281,0,
 229034,-0.088623046875,-0.951904296875,-0.061767578125,3.7195122241973877,19.390243530273438,-50.79268264770508,-8.399999618530273,-2.25,-9.0,37.34169006347656,0,
 229044,0.049560546875,-1.041259765625,-0.045166015625,8.414634704589844,26.09756088256836,-42.530487060546875,-8.550000190734863,-3.75,-7.949999809265137,36.814537048339844,0,
 229054,0.168212890625,-1.064208984375,0.01318359375,7.469512462615967,22.469512939453125,-30.39634132385254,-7.5,-4.349999904632568,-8.550000190734863,37.10207748413086,0,
 229064,0.151123046875,-1.00341796875,0.00537109375,2.0426828861236572,10.518293380737305,-15.640244483947754,-7.5,-4.349999904632568,-8.550000190734863,37.006229400634766,0,
 229074,0.027099609375,-0.9345703125,-0.04443359375,0.09146341681480408,1.585365891456604,-0.4878048896789551,-7.5,-4.349999904632568,-8.550000190734863,37.006229400634766,0,
 229084,-0.026123046875,-0.9580078125,-0.044189453125,4.146341323852539,1.0670732259750366,10.670731544494629,-7.800000190734863,-3.299999952316284,-6.300000190734863,37.10207748413086,0,
 229094,-0.040771484375,-1.005615234375,-0.001220703125,7.042683124542236,1.7987805604934692,16.463415145874023,-7.199999809265137,-3.450000047683716,-8.550000190734863,37.006229400634766,0,
