timestamp,accl_x,accl_y,accl_z,gyro_x,gyro_y,gyro_z,mag_x,mag_y,mag_z,temp,emg,
 245948,-0.049560546875,-0.97802734375,-0.00537109375,-0.5182926654815674,0.396341472864151,0.4878048896789551,-7.800000190734863,-1.649999976158142,-10.649999618530273,37.19792175292969,0,
 245958,-0.049560546875,-0.97607421875,-0.008056640625,-0.7012194991111755,0.3353658616542816,0.030487805604934692,-9.300000190734863,-2.549999952316284,-8.399999618530273,37.05415344238281,0,
 245968,-0.051513671875,-0.97900390625,-0.003662109375,-0.4573170840740204,0.18292683362960815,0.3353658616542816,-9.300000190734863,-5.25,-10.949999809265137,37.19792175292969,0,
 245978,-0.048828125,-0.97705078125,-0.003662109375,-0.4878048896789551,0.24390244483947754,0.4268292784690857,-8.850000381469727,-4.949999809265137,-8.399999618530273,37.245845794677734,0,
 245998,-0.050537109375,-0.980224609375,-0.0068359375,-0.5487805008888245,0.4268292784690857,0.24390244483947754,-8.100000381469727,-3.299999952316284,-8.399999618530273,37.05415344238281,0,
 246018,-0.05078125,-0.976318359375,-0.00830078125,-0.21341463923454285,0.15243902802467346,0.3353658616542816,-10.050000190734863,-3.299999952316284,-7.949999809265137,37.245845794677734,0,
 246028,-0.052978515625,-0.980712890625,-0.002685546875,-0.12195122241973877,0.15243902802467346,0.5182926654815674,-7.949999809265137,-5.400000095367432,-9.300000190734863,37.34169006347656,0,
 246038,-0.0478515625,-0.9775390625,-0.012939453125,-0.396341472864151,0.060975611209869385,0.396341472864151,-9.449999809265137,-3.9000000953674316,-8.550000190734863,37.006229400634766,0,
 246068,-0.052978515625,-0.976806640625,-0.009521484375,-0.15243902802467346,0.27439025044441223,0.030487805604934692,-7.949999809265137,-5.099999904632568,-9.75,37.19792175292969,0,
 246078,-0.049072265625,-0.97607421875,-0.001708984375,-0.18292683362960815,0.12195122241973877,0.18292683362960815,-8.699999809265137,-3.9000000953674316,-9.300000190734863,37.34169006347656,0,
 246088,-0.04833984375,-0.9775390625,-0.004150390625,-0.3048780560493469,0.27439025044441223,0.5182926654815674,-8.699999809265137,-3.9000000953674316,-9.300000190734863,37.05415344238281,0,
 246108,-0.04638671875,-0.9755859375,-0.005615234375,-0.4268292784690857,0.24390244483947754,0.3048780560493469,-9.449999809265137,-5.099999904632568,-9.300000190734863,37.05415344238281,0,
 246128,-0.0498046875,-0.974609375,-0.0107421875,-0.4878048896789551,0.24390244483947754,0.6097561120986938,-8.100000381469727,-4.949999809265137,-7.949999809265137,37.34169006347656,0,
 246148,-0.05029296875,-0.9814453125,-0.00341796875,-0.21341463923454285,0.3048780560493469,0.27439025044441223,-7.949999809265137,-5.849999904632568,-11.550000190734863,37.006229400634766,0,
 246158,-0.0576171875,-0.982421875,-0.002197265625,-0.396341472864151,0.21341463923454285,0.6707317233085632,-7.349999904632568,-4.050000190734863,-9.449999809265137,37.19792175292969,0,
 246168,-0.053955078125,-0.97802734375,-0.007080078125,-0.3353658616542816,0.4268292784690857,0.24390244483947754,-8.850000381469727,-5.699999809265137,-9.449999809265137,37.19792175292969,0,
 246178,-0.0517578125,-0.97998046875,-0.001708984375,-0.4573170840740204,0.21341463923454285,0.15243902802467346,-10.050000190734863,-4.5,-8.699999809265137,37.05415344238281,0,
 246188,-0.049560546875,-0.98291015625,-0.00341796875,-0.6707317233085632,0.060975611209869385,0.3658536672592163,-10.050000190734863,-4.5,-8.699999809265137,37.245845794677734,0,
 246198,-0.05419921875,-0.97900390625,-0.005126953125,-0.9756097793579102,0.27439025044441223,0.060975611209869385,-7.5,-4.349999904632568,-10.050000190734863,37.006229400634766,0,
 246208,-0.056396484375,-0.9755859375,-0.006591796875,-0.9451219439506531,0.21341463923454285,0.24390244483947754,-8.699999809265137,-4.349999904632568,-9.0,37.05415344238281,0,
 246218,-0.05419921875,-0.97900390625,-0.0068359375,-0.6097561120986938,0.27439025044441223,0.09146341681480408,-9.600000381469727,-5.699999809265137,-9.149999618530273,37.19792175292969,0,
 246228,-0.052978515625,-0.977294921875,-0.00537109375,-0.792682945728302,0.18292683362960815,-0.060975611209869385,-9.600000381469727,-5.699999809265137,-9.149999618530273,37.006229400634766,0,
 246268,-0.048583984375,-0.978271484375,-0.009521484375,-0.5487805008888245,0.3048780560493469,0.09146341681480408,-9.149999618530273,-3.450000047683716,-9.0,37.10207748413086,0,
 246278,-0.0517578125,-0.973876953125,-0.0048828125,-0.9146341681480408,0.3353658616542816,0.060975611209869385,-9.149999618530273,-3.450000047683716,-9.0,37.245845794677734,0,
 246288,-0.05078125,-0.9765625,-0.009521484375,-0.5487805008888245,0.4268292784690857,-0.030487805604934692,-9.300000190734863,-5.25,-9.449999809265137,37.19792175292969,0,
 246298,-0.04736328125,-0.978515625,-0.00341796875,-0.6707317233085632,0.3048780560493469,0.15243902802467346,-9.449999809265137,-6.300000190734863,-9.0,37.006229400634766,0,
 246308,-0.0517578125,-0.9755859375,-0.00244140625,-0.6707317233085632,0.24390244483947754,0.09146341681480408,-9.300000190734863,-4.949999809265137,-7.949999809265137,37.05415344238281,0,
 246318,-0.0556640625,-0.976806640625,-0.010009765625,-0.4573170840740204,0.396341472864151,0.27439025044441223,-9.300000190734863,-4.949999809265137,-7.949999809265137,37.19792175292969,0,
 246328,-0.04833984375,-0.97509765625,-0.0068359375,-0.6402438879013062,0.3048780560493469,0.3658536672592163,-9.149999618530273,-4.650000095367432,-9.75,37.10207748413086,0,
 246338,-0.052734375,-0.9765625,-0.00830078125,-0.18292683362960815,0.09146341681480408,0.27439025044441223,-9.149999618530273,-4.650000095367432,-8.550000190734863,37.05415344238281,0,
 246348,-0.05078125,-0.978271484375,-0.006591796875,-0.27439025044441223,0.21341463923454285,0.27439025044441223,-8.399999618530273,-1.9500000476837158,-10.050000190734863,36.91038513183594,0,
 246358,-0.052490234375,-0.981201171875,-0.005615234375,-0.060975611209869385,0.7621951103210449,0.6097561120986938,-7.199999809265137,-5.099999904632568,-9.0,37.006229400634766,0,
 246368,-0.04833984375,-0.974853515625,-0.00341796875,-0.5792682766914368,0.4268292784690857,0.060975611209869385,-7.199999809265137,-5.099999904632568,-9.0,37.245845794677734,0,
 246378,-0.04833984375,-0.97509765625,-0.001953125,-0.7317073345184326,0.27439025044441223,0.24390244483947754,-9.300000190734863,-4.5,-9.149999618530273,37.006229400634766,0,
 246388,-0.051025390625,-0.98193359375,0.0,-0.8536585569381714,0.396341472864151,0.0,-9.300000190734863,-5.25,-9.449999809265137,37.38961410522461,0,
 246398,-0.05029296875,-0.977294921875,-0.00048828125,-0.7621951103210449,0.15243902802467346,0.396341472864151,-8.550000190734863,-4.949999809265137,-9.149999618530273,37.245845794677734,0,
 246408,-0.051513671875,-0.981201171875,-0.00341796875,-0.7317073345184326,0.060975611209869385,-0.15243902802467346,-8.550000190734863,-4.050000190734863,-7.199999809265137,37.19792175292969,0,
 246418,-0.052734375,-0.975341796875,-0.0048828125,-0.5487805008888245,0.3353658616542816,-0.030487805604934692,-8.550000190734863,-4.050000190734863,-7.199999809265137,37.34169006347656,0,
 246428,-0.0498046875,-0.97900390625,-0.002197265625,-0.7317073345184326,0.12195122241973877,0.09146341681480408,-8.699999809265137,-5.099999904632568,-8.550000190734863,37.05415344238281,0,
 246448,-0.054931640625,-0.9765625,-0.0078125,-0.5487805008888245,0.21341463923454285,-0.3048780560493469,-8.550000190734863,-2.549999952316284,-9.449999809265137,37.19792175292969,0,
 246458,-0.052490234375,-0.97802734375,-0.007568359375,-0.7621951103210449,0.4878048896789551,-0.15243902802467346,-8.550000190734863,-2.549999952316284,-9.449999809265137,37.05415344238281,0,
 246468,-0.05126953125,-0.974609375,-0.00341796875,-0.27439025044441223,0.4878048896789551,-0.4878048896789551,-8.699999809265137,-5.849999904632568,-8.550000190734863,37.10207748413086,0,
 246478,-0.0537109375,-0.979736328125,-0.005615234375,-0.4573170840740204,0.24390244483947754,-0.4268292784690857,-8.850000381469727,-4.5,-7.949999809265137,37.19792175292969,0,
 246488,-0.043701171875,-0.981689453125,-0.009521484375,-0.6097561120986938,0.030487805604934692,-0.15243902802467346,-8.399999618530273,-5.099999904632568,-8.25,37.05415344238281,0,
 246498,-0.0546875,-0.9716796875,-0.00732421875,-0.3048780560493469,0.27439025044441223,0.18292683362960815,-8.399999618530273,-5.099999904632568,-8.25,37.006229400634766,0,
 246508,-0.047119140625,-0.975830078125,-0.003173828125,-0.5182926654815674,0.060975611209869385,0.18292683362960815,-8.399999618530273,-5.099999904632568,-8.25,37.19792175292969,0,
 246518,-0.046630859375,-0.976318359375,-0.001953125,-0.5792682766914368,0.09146341681480408,-0.030487805604934692,-8.550000190734863,-3.299999952316284,-9.449999809265137,37.34169006347656,0,
 246528,-0.048828125,-0.98291015625,-0.006103515625,-0.7317073345184326,0.3048780560493469,-0.3048780560493469,-9.600000381469727,-4.949999809265137,-9.149999618530273,37.10207748413086,0,
 246538,-0.053466796875,-0.97705078125,-0.00732421875,-0.792682945728302,0.060975611209869385,0.12195122241973877,-8.399999618530273,-3.450000047683716,-9.75,37.05415344238281,0,
 246558,-0.048583984375,-0.973388671875,-0.003173828125,-0.7012194991111755,0.12195122241973877,-0.4268292784690857,-8.699999809265137,-4.650000095367432,-8.25,37.05415344238281,0,
 246568,-0.05126953125,-0.973388671875,0.000732421875,-1.0670732259750366,0.4268292784690857,-0.396341472864151,-8.699999809265137,-5.099999904632568,-8.25,37.34169006347656,0,
 246578,-0.04931640625,-0.980712890625,-0.0078125,-0.7621951103210449,0.18292683362960815,-0.5182926654815674,-9.149999618530273,-3.450000047683716,-8.25,36.86246109008789,0,
 246588,-0.045654296875,-0.97607421875,-0.005859375,-0.7621951103210449,0.4573170840740204,-0.5182926654815674,-8.699999809265137,-3.450000047683716,-9.75,37.05415344238281,0,
 246608,-0.04638671875,-0.979736328125,-0.006591796875,-0.7012194991111755,0.18292683362960815,-1.0365853309631348,-7.949999809265137,-4.650000095367432,-8.25,37.245845794677734,0,
 246618,-0.048583984375,-0.975830078125,-0.00341796875,-1.1280487775802612,0.21341463923454285,-0.27439025044441223,-9.449999809265137,-5.099999904632568,-8.550000190734863,37.10207748413086,0,
 246628,-0.04833984375,-0.980224609375,-0.00634765625,-0.8536585569381714,0.18292683362960815,-0.21341463923454285,-8.399999618530273,-3.9000000953674316,-9.300000190734863,36.86246109008789,0,
 246638,-0.046875,-0.974609375,-0.006591796875,-1.2195122241973877,0.5487805008888245,-0.396341472864151,-9.449999809265137,-3.9000000953674316,-8.550000190734863,37.05415344238281,0,
 246669,-0.048828125,-0.978759765625,-0.00732421875,-0.7012194991111755,0.24390244483947754,-0.5487805008888245,-9.300000190734863,-4.5,-8.399999618530273,37.34169006347656,0,
 246689,-0.05029296875,-0.97705078125,-0.0087890625,-0.4268292784690857,0.15243902802467346,-1.1890244483947754,-8.100000381469727,-4.5,-8.699999809265137,37.19792175292969,0,
 246699,-0.049560546875,-0.975830078125,-0.00537109375,-0.3353658616542816,0.396341472864151,-1.402438998222351,-8.100000381469727,-4.5,-8.699999809265137,37.10207748413086,0,
 246709,-0.04638671875,-0.97900390625,-0.01025390625,-0.7621951103210449,0.18292683362960815,-1.097561001777649,-8.550000190734863,-4.949999809265137,-9.149999618530273,37.006229400634766,0,
 246719,-0.0498046875,-0.973388671875,-0.009521484375,-0.8231707215309143,0.12195122241973877,-0.8231707215309143,-8.699999809265137,-4.650000095367432,-8.25,37.245845794677734,0,
 246729,-0.05029296875,-0.9833984375,-0.00146484375,-0.9451219439506531,0.18292683362960815,-0.7012194991111755,-9.449999809265137,-4.650000095367432,-7.800000190734863,37.006229400634766,0,
 246739,-0.0439453125,-0.982421875,-0.00634765625,-0.8536585569381714,0.27439025044441223,-0.8841463327407837,-9.449999809265137,-4.650000095367432,-7.800000190734863,37.006229400634766,0,
 246749,-0.04443359375,-0.978759765625,-0.0068359375,-1.1585365533828735,0.09146341681480408,-0.7317073345184326,-9.149999618530273,-4.349999904632568,-9.75,37.581302642822266,0,
 246759,-0.04443359375,-0.978271484375,-0.002685546875,-1.1890244483947754,0.396341472864151,-0.4268292784690857,-9.149999618530273,-1.9500000476837158,-9.75,37.10207748413086,0,
 246769,-0.048828125,-0.97705078125,-0.004638671875,-0.7317073345184326,0.3658536672592163,-0.3048780560493469,-9.899999618530273,-4.650000095367432,-7.800000190734863,37.245845794677734,0,
 246779,-0.04541015625,-0.98046875,-0.005859375,-0.7317073345184326,0.15243902802467346,-1.0365853309631348,-8.850000381469727,-4.050000190734863,-8.399999618530273,37.006229400634766,0,
 246789,-0.0439453125,-0.977294921875,-0.00927734375,-0.5182926654815674,-0.030487805604934692,-1.0670732259750366,-8.850000381469727,-4.050000190734863,-8.399999618530273,37.006229400634766,0,
 246799,-0.039306640625,-0.97509765625,-0.00830078125,-1.0060975551605225,0.3658536672592163,-0.792682945728302,-8.850000381469727,-5.699999809265137,-9.449999809265137,37.05415344238281,0,
 246809,-0.044921875,-0.974365234375,-0.006591796875,-0.3048780560493469,0.18292683362960815,-0.792682945728302,-9.449999809265137,-4.650000095367432,-8.550000190734863,37.05415344238281,0,
 246819,-0.044189453125,-0.973388671875,-0.004638671875,-0.3353658616542816,0.12195122241973877,-1.1585365533828735,-8.699999809265137,-6.300000190734863,-8.550000190734863,37.10207748413086,0,
 246829,-0.039306640625,-0.9775390625,-0.00244140625,-0.5487805008888245,0.18292683362960815,-0.7012194991111755,-9.449999809265137,-7.5,-8.550000190734863,37.05415344238281,0,
 246869,-0.04541015625,-0.974609375,-0.009033203125,-0.4573170840740204,0.4878048896789551,-0.7317073345184326,-8.550000190734863,-5.25,-9.899999618530273,37.05415344238281,0,
 246879,-0.04443359375,-0.974365234375,-0.005126953125,-0.7317073345184326,0.09146341681480408,-1.1890244483947754,-8.550000190734863,-5.25,-9.899999618530273,37.006229400634766,0,
 246889,-0.04443359375,-0.974365234375,-0.012451171875,0.0,0.21341463923454285,-1.1280487775802612,-8.699999809265137,-5.400000095367432,-9.300000190734863,37.245845794677734,0,
 246899,-0.04345703125,-0.98046875,-0.003662109375,0.21341463923454285,0.21341463923454285,-2.1646342277526855,-10.050000190734863,-4.5,-7.949999809265137,37.245845794677734,0,
 246909,-0.047119140625,-0.9794921875,-0.000732421875,0.27439025044441223,0.3353658616542816,-2.378048896789551,-7.349999904632568,-4.949999809265137,-8.699999809265137,37.05415344238281,0,
 246919,-0.0419921875,-0.976318359375,-0.00732421875,0.3048780560493469,0.396341472864151,-2.6219513416290283,-7.800000190734863,-5.25,-7.949999809265137,37.19792175292969,0,
 246929,-0.045166015625,-0.98291015625,-0.0087890625,0.18292683362960815,0.396341472864151,-3.353658676147461,-7.800000190734863,-5.25,-7.949999809265137,37.10207748413086,0,
 246939,-0.044921875,-0.985107421875,-0.00732421875,0.5487805008888245,0.6707317233085632,-3.841463565826416,-8.699999809265137,-5.400000095367432,-9.75,37.10207748413086,0,
 246949,-0.042724609375,-0.980712890625,-0.0078125,1.3414634466171265,0.396341472864151,-4.420732021331787,-8.550000190734863,-4.050000190734863,-9.149999618530273,37.05415344238281,0,
 246959,-0.043701171875,-0.97998046875,-0.009033203125,2.012195110321045,0.5182926654815674,-5.609755992889404,-8.399999618530273,-4.650000095367432,-8.550000190734863,37.245845794677734,0,
 246969,-0.03857421875,-0.983154296875,-0.005126953125,2.4390244483947754,0.6707317233085632,-6.52439022064209,-8.699999809265137,-5.099999904632568,-8.25,37.006229400634766,0,
 246979,-0.046142578125,-0.98046875,-0.01171875,2.5304877758026123,0.4268292784690857,-7.9268293380737305,-8.699999809265137,-5.099999904632568,-8.25,37.10207748413086,0,
 246989,-0.044189453125,-0.98876953125,-0.013916015625,3.2926828861236572,0.3048780560493469,-9.390244483947754,-10.199999809265137,-3.9000000953674316,-8.550000190734863,37.10207748413086,0,
 246999,-0.0556640625,-0.989990234375,-0.01513671875,3.8109757900238037,0.9756097793579102,-11.768293380737305,-9.600000381469727,-5.25,-8.699999809265137,36.814537048339844,0,
 247009,-0.052978515625,-1.0107421875,-0.021240234375,5.609755992889404,1.585365891456604,-15.640244483947754,-7.800000190734863,-2.8499999046325684,-8.699999809265137,37.34169006347656,0,
 247019,-0.053466796875,-1.042724609375,-0.0234375,7.012195110321045,2.0426828861236572,-22.225610733032227,-7.800000190734863,-2.8499999046325684,-8.699999809265137,37.10207748413086,0,
 247029,-0.06103515625,-1.095703125,-0.02587890625,9.939024925231934,2.6524391174316406,-31.03658676147461,-9.149999618530273,-5.099999904632568,-9.75,37.006229400634766,0,
 247039,-0.0625,-1.124755859375,-0.03564453125,11.737805366516113,3.7804877758026123,-40.060977935791016,-10.5,-4.5,-9.149999618530273,37.245845794677734,0,
 247049,-0.0625,-1.09326171875,-0.020263671875,12.408536911010742,4.603658676147461,-47.22561264038086,-9.600000381469727,-5.25,-8.699999809265137,37.34169006347656,0,
 247059,-0.03857421875,-1.083740234375,0.014404296875,13.018293380737305,4.72560977935791,-50.274391174316406,-9.149999618530273,-7.050000190734863,-10.050000190734863,37.34169006347656,0,
 247069,0.00341796875,-1.014892578125,0.031494140625,13.384146690368652,3.841463565826416,-52.835365295410156,-9.149999618530273,-7.050000190734863,-10.050000190734863,37.006229400634766,0,
 247079,0.05029296875,-0.968017578125,0.0390625,12.560976028442383,2.7134146690368652,-52.103660583496094,-9.600000381469727,-4.949999809265137,-7.199999809265137,37.34169006347656,0,
 247089,0.057373046875,-0.950927734375,0.041259765625,10.518293380737305,1.4939024448394775,-48.29268264770508,-10.649999618530273,-5.400000095367432,-8.550000190734863,37.006229400634766,0,
 247099,0.04833984375,-0.980224609375,0.0263671875,7.9268293380737305,0.8536585569381714,-44.45122146606445,-12.149999618530273,-6.599999904632568,-8.550000190734863,37.245845794677734,0,
 247109,0.025390625,-1.02099609375,0.0224609375,6.52439022064209,1.1585365533828735,-43.932926177978516,-11.399999618530273,-7.5,-9.75,37.10207748413086,0,
 247119,0.015625,-1.06396484375,0.0283203125,6.890244007110596,0.6402438879013062,-46.7378044128418,-11.399999618530273,-7.5,-9.75,36.814537048339844,0,
 247129,0.0185546875,-1.07763671875,0.02294921875,8.414634704589844,-0.6402438879013062,-51.006099700927734,-10.649999618530273,-6.300000190734863,-10.050000190734863,37.05415344238281,0,
 247139,0.025634765625,-1.06201171875,0.001708984375,10.060976028442383,-0.7012194991111755,-55.3658561706543,-9.899999618530273,-6.300000190734863,-9.0,37.245845794677734,0,
 247149,0.0400390625,-1.0380859375,-0.011962890625,9.359756469726562,0.0,-58.2621955871582,-10.5,-7.199999809265137,-9.899999618530273,37.34169006347656,0,
 247159,0.060546875,-1.011474609375,-0.027587890625,7.865853786468506,2.77439022064209,-60.30487823486328,-10.5,-7.199999809265137,-9.899999618530273,37.05415344238281,0,
 247169,0.07373046875,-0.946044921875,-0.027099609375,7.469512462615967,5.579268455505371,-61.28049087524414,-10.5,-5.25,-10.199999809265137,37.05415344238281,0,
 247179,0.113037109375,-0.873291015625,-0.009765625,6.707317352294922,7.987804889678955,-58.6280517578125,-12.600000381469727,-9.0,-10.050000190734863,37.05415344238281,0,
 247189,0.15283203125,-0.8701171875,0.01318359375,5.609755992889404,9.786585807800293,-53.01829528808594,-11.25,-9.300000190734863,-9.449999809265137,37.34169006347656,0,
 247199,0.159912109375,-0.8701171875,0.034423828125,5.762195110321045,10.335366249084473,-48.47561264038086,-12.149999618530273,-7.5,-10.050000190734863,37.245845794677734,0,
 247209,0.150634765625,-0.903076171875,0.04833984375,5.54878044128418,9.939024925231934,-44.32926940917969,-12.149999618530273,-7.5,-10.050000190734863,37.006229400634766,0,
 247219,0.160400390625,-0.941650390625,0.070068359375,5.762195110321045,9.02439022064209,-41.55487823486328,-12.600000381469727,-8.699999809265137,-9.75,37.19792175292969,0,
 247229,0.1533203125,-0.95703125,0.0771484375,8.567073822021484,6.95121955871582,-41.79878234863281,-12.600000381469727,-8.699999809265137,-9.300000190734863,37.006229400634766,0,
 247239,0.165283203125,-0.958740234375,0.080322265625,10.335366249084473,4.5731706619262695,-41.34146499633789,-13.800000190734863,-8.399999618530273,-9.899999618530273,37.006229400634766,0,
 247249,0.162109375,-0.95654296875,0.05224609375,14.664634704589844,1.5243902206420898,-42.19512176513672,-12.149999618530273,-8.25,-10.5,37.006229400634766,0,
 247259,0.1796875,-0.90625,0.0361328125,15.792683601379395,-0.030487805604934692,-40.82317352294922,-12.149999618530273,-8.25,-10.5,37.006229400634766,0,
 247269,0.2109375,-0.8408203125,0.03759765625,13.780488014221191,0.3353658616542816,-35.30487823486328,-12.600000381469727,-8.25,-10.050000190734863,37.006229400634766,0,
 247279,0.229248046875,-0.798095703125,0.0498046875,8.414634704589844,1.8902438879013062,-19.207317352294922,-12.300000190734863,-10.050000190734863,-10.649999618530273,37.245845794677734,0,
 247289,0.23681640625,-0.75830078125,0.079345703125,6.829268455505371,0.9756097793579102,-9.664634704589844,-12.149999618530273,-9.0,-9.75,37.006229400634766,0,
 247299,0.25,-0.750244140625,0.1142578125,6.067073345184326,-1.585365891456604,-0.3048780560493469,-12.149999618530273,-9.0,-9.75,37.10207748413086,0,
 247309,0.236083984375,-0.7919921875,0.1025390625,0.4573170840740204,-3.170731782913208,10.12195110321045,-13.050000190734863,-10.050000190734863,-10.649999618530273,36.91038513183594,0,
 247319,0.240478515625,-0.741943359375,0.08447265625,-10.304878234863281,-2.6219513416290283,24.115854263305664,-12.899999618530273,-8.699999809265137,-10.5,37.006229400634766,0,
 247329,0.265869140625,-0.714599609375,0.094482421875,-18.323171615600586,-1.432926893234253,39.14634323120117,-13.800000190734863,-8.399999618530273,-12.149999618530273,37.006229400634766,0,
 247339,0.246826171875,-0.6337890625,0.05810546875,-32.9878044128418,0.3048780560493469,63.14024353027344,-13.050000190734863,-9.300000190734863,-11.399999618530273,37.38961410522461,0,
 247349,0.279052734375,-0.452392578125,0.048828125,-58.17073440551758,5.457317352294922,100.9756088256836,-13.050000190734863,-9.300000190734863,-11.399999618530273,37.10207748413086,0,
 247359,0.362548828125,-0.203369140625,0.076416015625,-78.29268646240234,9.146341323852539,147.5,-12.300000190734863,-8.100000381469727,-10.199999809265137,36.814537048339844,0,
 247369,0.44775390625,-0.12255859375,0.125732421875,-81.85975646972656,5.731707572937012,190.60975646972656,-13.050000190734863,-8.399999618530273,-9.899999618530273,37.19792175292969,0,
 247379,0.378173828125,-0.1923828125,0.128173828125,-73.87195587158203,-3.3841464519500732,229.84756469726562,-12.149999618530273,-8.699999809265137,-10.800000190734863,37.34169006347656,0,
 247389,0.316650390625,-0.4404296875,0.048828125,-58.2621955871582,-16.067073822021484,271.6463623046875,-10.649999618530273,-7.050000190734863,-8.25,37.34169006347656,0,
 247400,0.085693359375,-1.544921875,-0.1904296875,-17.042682647705078,-32.317073822021484,294.4817199707031,-10.649999618530273,-7.050000190734863,-8.25,37.245845794677734,0,
 247410,-1.505615234375,-2.026611328125,0.19580078125,-34.78658676147461,5.121951103210449,16.920732498168945,-9.600000381469727,-4.949999809265137,-8.699999809265137,36.86246109008789,0,
 247420,-0.855712890625,-1.034912109375,-0.088134765625,-37.0121955871582,5.945122241973877,25.365854263305664,-8.850000381469727,-5.25,-7.949999809265137,37.19792175292969,0,
 247430,-0.23193359375,-0.692626953125,-0.16455078125,-28.018293380737305,1.4634146690368652,20.70121955871582,-8.699999809265137,-5.849999904632568,-7.050000190734863,37.245845794677734,0,
 247440,-0.0283203125,-0.697265625,-0.155029296875,-8.292682647705078,14.02439022064209,14.268293380737305,-8.699999809265137,-5.849999904632568,-7.050000190734863,37.10207748413086,0,
 247450,0.05419921875,-0.98583984375,-0.04052734375,6.95121955871582,17.68292808532715,22.439023971557617,-8.100000381469727,-4.5,-8.699999809265137,37.05415344238281,0,
 247460,0.029052734375,-1.047119140625,0.00537109375,6.25,10.396341323852539,16.219512939453125,-8.550000190734863,-5.699999809265137,-8.699999809265137,37.006229400634766,0,
 247470,-0.1044921875,-0.98583984375,-0.04248046875,-0.7621951103210449,-1.8597561120986938,8.32317066192627,-8.699999809265137,-4.349999904632568,-9.75,37.19792175292969,0,
 247480,-0.159423828125,-0.898193359375,-0.092041015625,-0.7012194991111755,-3.7804877758026123,0.060975611209869385,-6.599999904632568,-7.199999809265137,-10.199999809265137,37.19792175292969,0,
 247490,-0.07763671875,-0.946533203125,-0.046875,6.829268455505371,1.3109756708145142,-4.5731706619262695,-6.599999904632568,-7.199999809265137,-10.199999809265137,37.05415344238281,0,
 247500,-0.054443359375,-0.995361328125,-0.02392578125,8.262195587158203,1.25,-7.256097793579102,-8.550000190734863,-6.0,-7.949999809265137,37.006229400634766,0,
 247510,-0.07861328125,-0.95263671875,-0.052978515625,5.884146690368652,-2.0426828861236572,-11.890244483947754,-8.850000381469727,-5.25,-9.149999618530273,37.006229400634766,0,
 247520,-0.09326171875,-0.927001953125,-0.068603515625,8.506097793579102,-2.7439024448394775,-16.890243530273438,-9.149999618530273,-5.099999904632568,-8.550000190734863,37.006229400634766,0,
 247530,-0.06640625,-0.951416015625,-0.05908203125,13.689024925231934,-2.4695122241973877,-20.94512176513672,-9.149999618530273,-5.849999904632568,-8.25,36.91038513183594,0,
 247540,-0.041015625,-0.984619140625,-0.036865234375,17.65243911743164,-2.591463565826416,-22.560976028442383,-9.149999618530273,-5.849999904632568,-8.25,37.245845794677734,0,
 247550,-0.004150390625,-0.998046875,-0.017333984375,18.59756088256836,-2.6524391174316406,-19.664634704589844,-8.850000381469727,-6.0,-9.149999618530273,37.10207748413086,0,
 247580,-0.048583984375,-1.013671875,-0.005859375,9.84756088256836,-0.7012194991111755,-0.7012194991111755,-10.649999618530273,-4.650000095367432,-8.25,36.91038513183594,0,
 247590,-0.072265625,-0.98681640625,-0.022705078125,7.560975551605225,-0.6402438879013062,-1.1280487775802612,-10.199999809265137,-7.050000190734863,-9.75,37.006229400634766,0,
 247600,-0.085693359375,-0.967529296875,-0.0458984375,7.713414669036865,-0.27439025044441223,-6.036585330963135,-8.699999809265137,-4.650000095367432,-9.0,37.34169006347656,0,
 247610,-0.07373046875,-0.970458984375,-0.041015625,11.432927131652832,0.396341472864151,-13.109756469726562,-9.449999809265137,-5.099999904632568,-8.550000190734863,37.05415344238281,0,
 247630,-0.066162109375,-0.99267578125,-0.049560546875,17.957317352294922,2.2865853309631348,-24.176830291748047,-8.399999618530273,-5.099999904632568,-8.550000190734863,37.245845794677734,0,
 247640,-0.03564453125,-1.01611328125,-0.03369140625,21.43292808532715,4.054878234863281,-28.323171615600586,-10.949999809265137,-6.599999904632568,-9.300000190734863,37.006229400634766,0,
 247650,-0.029541015625,-1.05810546875,-0.023681640625,22.439023971557617,5.213414669036865,-30.426830291748047,-10.199999809265137,-5.099999904632568,-9.300000190734863,37.34169006347656,0,
 247660,-0.024658203125,-1.046630859375,-0.019775390625,23.323171615600586,6.707317352294922,-34.26829528808594,-11.399999618530273,-3.450000047683716,-9.300000190734863,36.86246109008789,0,
 247670,-0.019287109375,-1.0234375,0.008544921875,21.981708526611328,7.77439022064209,-34.664634704589844,-10.050000190734863,-4.949999809265137,-9.899999618530273,36.91038513183594,0,
 247680,0.0166015625,-0.97900390625,0.046630859375,19.573171615600586,6.280488014221191,-31.158536911010742,-10.050000190734863,-4.949999809265137,-9.899999618530273,37.245845794677734,0,
 247690,0.045654296875,-0.966552734375,0.07080078125,15.853658676147461,4.512195110321045,-26.981708526611328,-10.199999809265137,-5.099999904632568,-10.800000190734863,37.006229400634766,0,
 247700,0.0390625,-0.960205078125,0.087890625,12.103658676147461,1.8902438879013062,-21.55487823486328,-10.649999618530273,-4.650000095367432,-9.0,37.006229400634766,0,
 247710,0.043212890625,-0.93212890625,0.0771484375,6.6768293380737305,-1.3109756708145142,-16.524391174316406,-8.699999809265137,-5.849999904632568,-9.300000190734863,37.006229400634766,0,
 247720,0.062744140625,-0.908935546875,0.073974609375,0.6707317233085632,-3.353658676147461,-10.579268455505371,-8.699999809265137,-5.849999904632568,-9.300000190734863,37.10207748413086,0,
 247730,0.0849609375,-0.85400390625,0.073974609375,-9.359756469726562,-7.0731706619262695,6.95121955871582,-11.699999809265137,-5.400000095367432,-9.300000190734863,37.006229400634766,0,
 247740,0.083251953125,-0.8515625,0.05224609375,-12.591464042663574,-8.414634704589844,17.439023971557617,-11.25,-4.949999809265137,-10.199999809265137,37.10207748413086,0,
 247750,0.0771484375,-0.8466796875,0.0341796875,-15.213415145874023,-9.054878234863281,28.90243911743164,-11.25,-3.299999952316284,-10.649999618530273,37.006229400634766,0,
 247760,0.064453125,-0.8720703125,0.004150390625,-19.08536720275879,-8.59756088256836,41.55487823486328,-10.199999809265137,-5.849999904632568,-10.5,37.10207748413086,0,
 247770,0.056640625,-0.989501953125,-0.020263671875,-25.365854263305664,-6.006097793579102,52.8658561706543,-10.199999809265137,-5.849999904632568,-10.5,37.245845794677734,0,
 247780,0.008544921875,-1.220458984375,0.013671875,-30.54878044128418,-2.317073106765747,51.7378044128418,-10.050000190734863,-6.449999809265137,-8.699999809265137,37.10207748413086,0,
 247790,-0.048583984375,-1.2119140625,0.011962890625,-31.615854263305664,-1.9817073345184326,43.38414764404297,-10.800000190734863,-7.199999809265137,-9.899999618530273,37.006229400634766,0,
 247800,-0.061279296875,-1.04345703125,-0.0400390625,-28.079269409179688,-2.1646342277526855,45.15243911743164,-10.050000190734863,-5.25,-9.149999618530273,37.19792175292969,0,
 247810,-0.081298828125,-0.986328125,-0.064453125,-22.042682647705078,1.4939024448394775,53.99390411376953,-10.949999809265137,-5.099999904632568,-8.550000190734863,37.19792175292969,0,
 247820,-0.059814453125,-0.969482421875,-0.065673828125,-15.670732498168945,8.140244483947754,65.57926940917969,-10.949999809265137,-5.099999904632568,-8.550000190734863,37.05415344238281,0,
 247830,-0.031494140625,-0.994140625,-0.03662109375,-13.079268455505371,11.859756469726562,77.59146881103516,-8.850000381469727,-7.199999809265137,-7.650000095367432,36.91038513183594,0,
 247840,-0.01611328125,-1.02880859375,-0.0107421875,-14.786585807800293,12.65243911743164,86.34146881103516,-9.449999809265137,-5.400000095367432,-9.0,37.10207748413086,0,
 247850,-0.034423828125,-1.049560546875,0.0029296875,-17.80487823486328,11.341464042663574,91.18902587890625,-9.899999618530273,-5.099999904632568,-9.300000190734863,37.006229400634766,0,
 247860,-0.0849609375,-1.0263671875,-0.016357421875,-19.115854263305664,10.670731544494629,92.7743911743164,-9.899999618530273,-5.099999904632568,-9.300000190734863,37.19792175292969,0,
 247880,-0.154541015625,-0.96435546875,-0.040771484375,-18.170732498168945,10.853658676147461,87.13414764404297,-6.300000190734863,-3.75,-7.949999809265137,37.05415344238281,0,
 247940,-0.11572265625,-1.643310546875,-0.195556640625,53.53658676147461,-4.756097793579102,-185.73170471191406,-7.199999809265137,-3.1500000953674316,-9.0,37.19792175292969,0,
 247950,-0.49560546875,-0.5927734375,-0.15380859375,-12.103658676147461,-18.780488967895508,-209.6341552734375,-7.949999809265137,-5.099999904632568,-7.800000190734863,37.006229400634766,0,
 247960,-0.77294921875,0.447509765625,0.00830078125,-42.19512176513672,-21.280488967895508,-179.39024353027344,-7.949999809265137,-5.099999904632568,-7.800000190734863,37.10207748413086,0,
 247970,-0.813232421875,0.58447265625,0.02001953125,-11.067073822021484,-9.664634704589844,-121.67683410644531,-9.899999618530273,-5.400000095367432,-7.5,37.34169006347656,0,
 247980,-0.575927734375,-0.1796875,-0.146240234375,35.51829528808594,7.713414669036865,-71.06707763671875,-10.949999809265137,-7.5,-9.300000190734863,37.19792175292969,0,
 247990,-0.28466796875,-0.842529296875,-0.278076171875,43.353660583496094,19.542682647705078,-54.2378044128418,-10.949999809265137,-4.349999904632568,-12.0,37.006229400634766,0,
 248000,-0.1025390625,-0.939697265625,-0.188720703125,15.97560977935791,20.18292808532715,-58.353660583496094,-10.949999809265137,-4.349999904632568,-12.0,37.006229400634766,0,
 248010,1.597900390625,-2.856689453125,1.128173828125,40.30487823486328,-10.82317066192627,-37.408538818359375,-8.399999618530273,-7.050000190734863,-9.0,37.19792175292969,0,
 248020,-0.62060546875,-1.65625,-0.24951171875,32.13414764404297,8.963415145874023,-121.64634704589844,-10.649999618530273,-5.400000095367432,-11.25,37.10207748413086,0,
 248040,0.27685546875,-0.888427734375,0.207763671875,8.292682647705078,17.073171615600586,-76.46341705322266,-10.800000190734863,-6.449999809265137,-9.449999809265137,37.19792175292969,0,
 248050,-0.219970703125,-0.70751953125,-0.055419921875,44.32926940917969,0.030487805604934692,-91.15853881835938,-10.800000190734863,-6.449999809265137,-9.449999809265137,36.86246109008789,0,
 248060,0.109619140625,-0.54541015625,0.09375,27.042682647705078,0.5792682766914368,-73.32317352294922,-12.0,-8.100000381469727,-10.949999809265137,37.245845794677734,0,
 248070,0.3408203125,-0.640869140625,0.15966796875,9.84756088256836,4.29878044128418,-51.067073822021484,-12.75,-7.650000095367432,-9.449999809265137,37.34169006347656,0,
 248080,0.26611328125,-0.53369140625,0.112548828125,-3.6890244483947754,7.743902683258057,-34.5121955871582,-12.300000190734863,-6.900000095367432,-9.449999809265137,37.05415344238281,0,
 248090,0.268798828125,-0.606201171875,0.154052734375,-9.329268455505371,4.359755992889404,-13.567073822021484,-10.949999809265137,-8.25,-10.050000190734863,37.05415344238281,0,
 248100,0.245361328125,-0.638916015625,0.139404296875,-8.20121955871582,-2.77439022064209,5.5182929039001465,-10.949999809265137,-8.25,-10.050000190734863,36.91038513183594,0,
 248110,0.23046875,-0.64697265625,0.109130859375,-10.670731544494629,-9.02439022064209,25.579269409179688,-11.25,-6.449999809265137,-9.899999618530273,37.245845794677734,0,
 248121,0.198486328125,-0.62060546875,0.073486328125,-11.646341323852539,-13.292683601379395,43.23170852661133,-12.899999618530273,-7.5,-10.5,37.38961410522461,0,
 248131,0.206787109375,-0.532958984375,0.039794921875,-13.658536911010742,-16.341463088989258,64.20732116699219,-11.399999618530273,-7.800000190734863,-9.0,37.10207748413086,0,
 248141,0.27490234375,-0.49365234375,0.0205078125,-18.810976028442383,-17.65243911743164,92.5,-11.399999618530273,-7.800000190734863,-9.0,37.245845794677734,0,
 248161,0.126708984375,-1.1796875,-0.128662109375,-26.707317352294922,-19.359756469726562,157.65243530273438,-11.25,-7.199999809265137,-8.399999618530273,37.006229400634766,0,
 248181,-0.545654296875,-1.314697265625,-0.0478515625,-31.219512939453125,1.3414634466171265,16.64634132385254,-9.149999618530273,-5.400000095367432,-10.050000190734863,37.34169006347656,0,
 248211,-0.016357421875,-0.821533203125,-0.11181640625,15.27439022064209,2.2865853309631348,5.060975551605225,-9.149999618530273,-6.300000190734863,-9.300000190734863,37.19792175292969,0,
 248221,-0.03759765625,-1.01513671875,0.00244140625,12.22560977935791,-1.3719512224197388,-0.7012194991111755,-9.899999618530273,-5.400000095367432,-9.0,37.006229400634766,0,
 248231,-0.0673828125,-1.044677734375,0.0166015625,6.6768293380737305,-2.408536672592163,-5.152439117431641,-9.899999618530273,-5.099999904632568,-9.0,37.006229400634766,0,
 248241,-0.070068359375,-0.994384765625,-0.009765625,4.939024448394775,0.5182926654815674,-4.237804889678955,-9.899999618530273,-5.099999904632568,-9.0,36.86246109008789,0,
 248251,-0.013916015625,-0.994384765625,0.0,2.2560975551605225,1.402438998222351,-0.7012194991111755,-9.899999618530273,-4.650000095367432,-8.550000190734863,37.245845794677734,0,
 248261,-0.012451171875,-0.99853515625,0.00634765625,-0.6097561120986938,0.5487805008888245,1.6158536672592163,-10.649999618530273,-7.5,-9.0,37.245845794677734,0,
 248271,-0.03271484375,-0.9775390625,-0.01123046875,-0.9451219439506531,0.5487805008888245,2.896341562271118,-10.050000190734863,-4.050000190734863,-8.699999809265137,37.245845794677734,0,
 248291,-0.043701171875,-0.97705078125,-0.016357421875,1.1585365533828735,-0.09146341681480408,1.8597561120986938,-10.800000190734863,-5.25,-9.449999809265137,36.91038513183594,0,
 248301,-0.050537109375,-0.986572265625,-0.017822265625,1.1585365533828735,-0.3353658616542816,0.18292683362960815,-8.699999809265137,-6.599999904632568,-11.25,37.43753433227539,0,
 248311,-0.05126953125,-0.977294921875,-0.0146484375,1.25,0.12195122241973877,-0.15243902802467346,-10.199999809265137,-5.099999904632568,-8.550000190734863,37.19792175292969,0,
 248321,-0.035400390625,-0.969482421875,-0.01953125,1.8597561120986938,0.15243902802467346,0.6402438879013062,-10.649999618530273,-3.9000000953674316,-8.25,37.245845794677734,0,
 248341,-0.0361328125,-0.9765625,-0.01513671875,3.2926828861236572,0.3658536672592163,-0.21341463923454285,-10.949999809265137,-3.9000000953674316,-9.0,37.006229400634766,0,
 248351,-0.063720703125,-0.978271484375,-0.019775390625,3.3841464519500732,0.24390244483947754,-1.097561001777649,-9.300000190734863,-4.949999809265137,-10.199999809265137,37.006229400634766,0,
 248361,-0.07568359375,-0.958740234375,-0.0439453125,4.969512462615967,0.24390244483947754,-5.487804889678955,-9.899999618530273,-3.450000047683716,-8.550000190734863,37.05415344238281,0,
 248371,-0.07080078125,-0.9658203125,-0.03759765625,9.420731544494629,0.7317073345184326,-11.189024925231934,-9.899999618530273,-3.450000047683716,-8.550000190734863,37.19792175292969,0,
 248391,-0.075439453125,-1.007568359375,-0.04931640625,17.469512939453125,1.5548781156539917,-23.170732498168945,-9.149999618530273,-6.300000190734863,-8.25,37.006229400634766,0,
 248401,-0.04248046875,-1.025390625,-0.02783203125,22.042682647705078,3.3231709003448486,-29.69512176513672,-9.149999618530273,-3.1500000953674316,-11.550000190734863,37.05415344238281,0,
 248411,-0.005126953125,-1.033447265625,0.010009765625,22.89634132385254,4.512195110321045,-31.128049850463867,-9.449999809265137,-5.400000095367432,-9.75,37.006229400634766,0,
 248421,0.018798828125,-1.01025390625,0.02880859375,20.0,5.54878044128418,-28.44512176513672,-9.449999809265137,-5.400000095367432,-9.75,37.34169006347656,0,
 248431,0.002197265625,-1.048828125,0.03125,14.664634704589844,5.853658676147461,-24.78658676147461,-9.600000381469727,-5.25,-9.899999618530273,37.245845794677734,0,
 248441,-0.019287109375,-1.0693359375,0.02001953125,11.554878234863281,5.54878044128418,-26.463415145874023,-9.300000190734863,-4.949999809265137,-9.899999618530273,36.91038513183594,0,
 248451,-0.05419921875,-1.05810546875,0.030517578125,10.42682933807373,4.329268455505371,-31.219512939453125,-11.25,-6.900000095367432,-10.949999809265137,37.34169006347656,0,
 248461,-0.0048828125,-1.029296875,0.047119140625,11.036585807800293,2.9268293380737305,-35.24390411376953,-9.600000381469727,-4.5,-10.199999809265137,37.245845794677734,0,
 248471,0.021728515625,-0.994384765625,0.0537109375,10.945121765136719,0.9756097793579102,-36.03658676147461,-9.600000381469727,-4.5,-10.199999809265137,37.006229400634766,0,
 248481,0.01318359375,-1.017333984375,0.021728515625,10.487805366516113,-0.792682945728302,-35.64024353027344,-10.649999618530273,-6.300000190734863,-10.050000190734863,37.10207748413086,0,
 248491,-0.003662109375,-1.025634765625,-0.000244140625,10.518293380737305,-0.4878048896789551,-37.89634323120117,-10.949999809265137,-5.099999904632568,-9.300000190734863,37.006229400634766,0,
 248501,0.0029296875,-1.062255859375,-0.004150390625,11.25,0.9451219439506531,-40.54878234863281,-10.800000190734863,-8.100000381469727,-11.399999618530273,37.006229400634766,0,
 248511,-0.009033203125,-1.0849609375,-0.0029296875,12.5,2.195122003555298,-45.42683029174805,-10.800000190734863,-8.100000381469727,-11.399999618530273,37.19792175292969,0,
 248521,0.001708984375,-1.092041015625,0.012451171875,13.87195110321045,3.628048896789551,-50.914634704589844,-12.0,-6.0,-10.199999809265137,37.34169006347656,0,
 248531,-0.001708984375,-1.10009765625,0.017822265625,14.84756088256836,3.9939024448394775,-57.04268264770508,-11.25,-7.199999809265137,-9.899999618530273,37.05415344238281,0,
 248541,0.03857421875,-1.0205078125,0.034423828125,14.45121955871582,4.512195110321045,-60.64024353027344,-10.800000190734863,-5.25,-9.899999618530273,37.05415344238281,0,
 248551,0.09716796875,-0.90869140625,0.059326171875,12.682927131652832,4.847560882568359,-59.63414764404297,-13.350000381469727,-6.300000190734863,-9.75,37.006229400634766,0,
 248561,0.121337890625,-0.882080078125,0.0498046875,11.006097793579102,4.542683124542236,-54.35975646972656,-13.350000381469727,-6.300000190734863,-9.75,37.34169006347656,0,
 248571,0.135009765625,-0.890625,0.047607421875,9.72560977935791,4.0853657722473145,-49.39024353027344,-12.600000381469727,-5.849999904632568,-9.75,37.245845794677734,0,
 248581,0.10205078125,-0.968017578125,0.052490234375,9.054878234863281,3.9634146690368652,-46.67683029174805,-12.300000190734863,-7.650000095367432,-10.199999809265137,37.10207748413086,0,
 248591,0.07861328125,-1.026123046875,0.047607421875,11.219511985778809,2.865853786468506,-48.963417053222656,-12.300000190734863,-8.100000381469727,-10.649999618530273,36.86246109008789,0,
 248601,0.095458984375,-0.999267578125,0.0615234375,11.829268455505371,2.1341464519500732,-50.60975646972656,-12.300000190734863,-8.100000381469727,-9.449999809265137,37.10207748413086,0,
 248611,0.1416015625,-0.949951171875,0.069580078125,11.768293380737305,1.6158536672592163,-50.03049087524414,-12.300000190734863,-8.100000381469727,-9.449999809265137,37.006229400634766,0,
 248621,0.16162109375,-0.877197265625,0.050048828125,12.256097793579102,0.8841463327407837,-48.14024353027344,-12.600000381469727,-8.699999809265137,-10.050000190734863,37.10207748413086,0,
 248631,0.19091796875,-0.845458984375,0.058349609375,10.82317066192627,0.8841463327407837,-36.55487823486328,-12.0,-8.100000381469727,-9.449999809265137,37.38961410522461,0,
 248641,0.176513671875,-0.8447265625,0.061279296875,8.32317066192627,1.5243902206420898,-30.121952056884766,-12.0,-8.100000381469727,-10.949999809265137,36.91038513183594,0,
 248651,0.182861328125,-0.84375,0.072509765625,5.121951103210449,1.3719512224197388,-23.475610733032227,-12.0,-8.100000381469727,-10.949999809265137,37.245845794677734,0,
 248661,0.196533203125,-0.84912109375,0.097900390625,2.9573171138763428,0.4268292784690857,-17.987804412841797,-12.899999618530273,-7.800000190734863,-10.5,37.006229400634766,0,
 248671,0.19580078125,-0.8515625,0.102783203125,2.0426828861236572,-1.5243902206420898,-12.286585807800293,-12.149999618530273,-9.300000190734863,-11.699999809265137,37.05415344238281,0,
 248681,0.208740234375,-0.828857421875,0.10595703125,1.6463414430618286,-4.1768293380737305,-4.786585330963135,-12.600000381469727,-9.449999809265137,-10.800000190734863,37.006229400634766,0,
 248691,0.22216796875,-0.80029296875,0.104736328125,-1.1585365533828735,-6.280488014221191,4.847560882568359,-12.600000381469727,-9.449999809265137,-10.800000190734863,37.006229400634766,0,
 248701,0.2333984375,-0.76171875,0.087890625,-5.5182929039001465,-6.890244007110596,16.341463088989258,-12.600000381469727,-9.449999809265137,-10.800000190734863,36.91038513183594,0,
 248711,0.230712890625,-0.760009765625,0.081787109375,-9.054878234863281,-6.6768293380737305,27.164634704589844,-12.300000190734863,-10.350000381469727,-12.899999618530273,37.245845794677734,0,
 248721,0.201171875,-0.77685546875,0.056396484375,-15.213415145874023,-5.609755992889404,38.59756088256836,-13.649999618530273,-7.5,-10.050000190734863,37.34169006347656,0,
 248731,0.219482421875,-0.68310546875,0.064697265625,-23.170732498168945,-4.29878044128418,57.53049087524414,-13.050000190734863,-8.850000381469727,-10.199999809265137,37.006229400634766,0,
 248741,0.2724609375,-0.517822265625,0.074951171875,-36.280487060546875,-2.5,87.95732116699219,-13.050000190734863,-8.850000381469727,-10.199999809265137,37.34169006347656,0,
 248751,0.33935546875,-0.319091796875,0.097900390625,-51.432926177978516,-1.4634146690368652,127.43902587890625,-12.899999618530273,-8.850000381469727,-10.199999809265137,37.34169006347656,0,
 248761,0.375244140625,-0.225341796875,0.1220703125,-58.567073822021484,-3.47560977935791,166.98170471191406,-13.050000190734863,-7.650000095367432,-9.899999618530273,37.19792175292969,0,
 248771,0.320068359375,-0.297119140625,0.09521484375,-58.47561264038086,-7.621951580047607,203.81097412109375,-12.0,-6.0,-9.899999618530273,37.10207748413086,0,
 248791,0.002197265625,-1.726806640625,-0.163818359375,-56.463417053222656,-12.530488014221191,250.5487823486328,-12.0,-6.0,-9.899999618530273,37.006229400634766,0,
 248801,-0.62646484375,-1.244384765625,-0.04931640625,-69.7256088256836,-2.865853786468506,28.14024543762207,-9.300000190734863,-4.050000190734863,-11.399999618530273,37.38961410522461,0,
 248811,-0.291015625,-0.45751953125,-0.330810546875,-56.7378044128418,-1.097561001777649,11.920731544494629,-10.5,-5.25,-9.149999618530273,37.05415344238281,0,
 248821,-0.12744140625,-0.6669921875,-0.263916015625,-30.457317352294922,-1.1890244483947754,15.518293380737305,-10.800000190734863,-4.5,-6.900000095367432,37.006229400634766,0,
 248831,0.004638671875,-0.776611328125,-0.1259765625,1.585365891456604,9.054878234863281,10.42682933807373,-10.800000190734863,-4.5,-6.900000095367432,37.006229400634766,0,
 248841,0.009765625,-1.072265625,0.019775390625,14.17682933807373,7.134146690368652,13.780488014221191,-8.399999618530273,-5.400000095367432,-7.800000190734863,37.34169006347656,0,
 248851,-0.072509765625,-1.065185546875,0.017333984375,7.256097793579102,-2.77439022064209,3.445122003555298,-11.25,-6.449999809265137,-7.949999809265137,37.10207748413086,0,
 248862,-0.136962890625,-0.955322265625,-0.049560546875,0.7621951103210449,-6.8597564697265625,-5.4268293380737305,-9.149999618530273,-5.849999904632568,-10.050000190734863,37.05415344238281,0,
 248872,-0.083251953125,-0.95361328125,-0.0419921875,3.0487804412841797,-1.7987805604934692,-8.75,-9.449999809265137,-4.650000095367432,-9.75,37.34169006347656,0,
 248882,-0.030517578125,-0.999267578125,-0.013427734375,5.731707572937012,1.7682926654815674,-8.414634704589844,-9.449999809265137,-4.650000095367432,-9.75,37.05415344238281,0,
 248892,-0.01220703125,-1.004638671875,-0.011962890625,3.3841464519500732,0.396341472864151,-7.439024448394775,-10.050000190734863,-6.0,-10.949999809265137,37.245845794677734,0,
 248912,-0.031005859375,-0.979248046875,-0.040283203125,1.7073171138763428,-1.0365853309631348,-3.262195110321045,-10.649999618530273,-5.849999904632568,-9.75,37.245845794677734,0,
 248922,-0.036376953125,-0.98095703125,-0.022705078125,2.804877996444702,-0.5792682766914368,-1.402438998222351,-10.649999618530273,-5.849999904632568,-9.75,36.91038513183594,0,
 248932,-0.044677734375,-0.985107421875,-0.024658203125,2.9573171138763428,-1.1280487775802612,-1.25,-10.050000190734863,-5.699999809265137,-8.399999618530273,36.86246109008789,0,
 248942,-0.045654296875,-0.980712890625,-0.02294921875,2.408536672592163,-1.0365853309631348,-0.6097561120986938,-10.199999809265137,-7.050000190734863,-9.75,37.10207748413086,0,
 248952,-0.04541015625,-0.976318359375,-0.022216796875,2.2560975551605225,-0.8536585569381714,0.09146341681480408,-9.449999809265137,-5.400000095367432,-9.300000190734863,37.19792175292969,0,
 248962,-0.044677734375,-0.981689453125,-0.024658203125,1.4939024448394775,-0.4878048896789551,0.5792682766914368,-8.850000381469727,-6.0,-9.149999618530273,37.10207748413086,0,
 248972,-0.047119140625,-0.979736328125,-0.023193359375,1.2195122241973877,-0.09146341681480408,0.24390244483947754,-8.850000381469727,-6.0,-9.149999618530273,37.245845794677734,0,
 248982,-0.054931640625,-0.978271484375,-0.022705078125,1.1280487775802612,0.12195122241973877,-0.030487805604934692,-9.149999618530273,-5.849999904632568,-8.550000190734863,37.10207748413086,0,
 248992,-0.051025390625,-0.97119140625,-0.02587890625,0.7621951103210449,0.3658536672592163,-0.3353658616542816,-9.449999809265137,-4.349999904632568,-9.0,37.006229400634766,0,
 249002,-0.050048828125,-0.9736328125,-0.029052734375,1.1890244483947754,0.396341472864151,-1.0060975551605225,-9.899999618530273,-4.650000095367432,-10.5,37.19792175292969,0,
 249022,-0.04443359375,-0.9833984375,-0.029296875,1.7073171138763428,0.3658536672592163,-1.3109756708145142,-11.550000190734863,-5.699999809265137,-10.199999809265137,37.19792175292969,0,
 249032,-0.041015625,-0.97705078125,-0.021484375,1.7073171138763428,0.5487805008888245,-0.792682945728302,-9.149999618530273,-4.650000095367432,-8.550000190734863,37.19792175292969,0,
 249042,-0.04150390625,-0.981689453125,-0.018798828125,1.2195122241973877,0.3658536672592163,-0.15243902802467346,-10.050000190734863,-7.199999809265137,-7.650000095367432,37.19792175292969,0,
 249052,-0.0380859375,-0.978515625,-0.01708984375,1.097561001777649,0.3658536672592163,0.09146341681480408,-10.5,-5.25,-8.699999809265137,37.006229400634766,0,
 249062,-0.0390625,-0.975830078125,-0.017822265625,0.5792682766914368,0.7012194991111755,0.3353658616542816,-10.5,-5.25,-8.699999809265137,37.006229400634766,0,
 249072,-0.041748046875,-0.981689453125,-0.03173828125,0.8841463327407837,0.3658536672592163,0.9451219439506531,-10.050000190734863,-6.449999809265137,-9.899999618530273,37.10207748413086,0,
 249082,-0.043701171875,-0.974365234375,-0.0234375,1.8292683362960815,0.030487805604934692,0.3048780560493469,-9.449999809265137,-5.849999904632568,-9.75,37.006229400634766,0,
 249092,-0.046630859375,-0.971435546875,-0.027587890625,2.5,0.09146341681480408,0.060975611209869385,-8.550000190734863,-4.949999809265137,-8.399999618530273,37.34169006347656,0,
 249102,-0.042236328125,-0.976318359375,-0.021240234375,2.408536672592163,-0.030487805604934692,-0.18292683362960815,-7.5,-5.099999904632568,-9.0,37.34169006347656,0,
 249112,-0.043701171875,-0.984130859375,-0.01904296875,2.5304877758026123,0.0,0.18292683362960815,-7.5,-5.099999904632568,-9.0,37.10207748413086,0,
 249122,-0.046630859375,-0.978515625,-0.01806640625,2.591463565826416,0.27439025044441223,-0.060975611209869385,-10.199999809265137,-7.050000190734863,-9.300000190734863,37.006229400634766,0,
 249132,-0.047119140625,-0.9755859375,-0.016845703125,1.8597561120986938,0.24390244483947754,0.030487805604934692,-10.199999809265137,-5.400000095367432,-11.25,37.19792175292969,0,
 249142,-0.041748046875,-0.978515625,-0.018310546875,1.9512195587158203,-0.060975611209869385,0.396341472864151,-9.600000381469727,-3.75,-8.699999809265137,37.245845794677734,0,
 249152,-0.04150390625,-0.974853515625,-0.025634765625,1.6768293380737305,0.18292683362960815,0.3048780560493469,-10.050000190734863,-6.900000095367432,-10.199999809265137,37.245845794677734,0,
 249162,-0.039794921875,-0.974609375,-0.01806640625,1.8902438879013062,0.3048780560493469,0.5487805008888245,-10.050000190734863,-6.900000095367432,-10.199999809265137,37.34169006347656,0,
 249172,-0.044921875,-0.977294921875,-0.0185546875,2.4390244483947754,0.15243902802467346,0.4268292784690857,-9.449999809265137,-5.849999904632568,-10.800000190734863,36.86246109008789,0,
 249182,-0.042236328125,-0.979248046875,-0.01220703125,1.920731782913208,0.12195122241973877,0.3658536672592163,-9.899999618530273,-6.300000190734863,-9.0,37.34169006347656,0,
 249192,-0.050048828125,-0.978271484375,-0.0185546875,2.195122003555298,0.3658536672592163,0.3658536672592163,-9.449999809265137,-5.099999904632568,-9.75,37.10207748413086,0,
 249212,-0.044189453125,-0.976806640625,-0.017822265625,1.3414634466171265,0.09146341681480408,0.6097561120986938,-8.550000190734863,-2.8499999046325684,-11.699999809265137,37.19792175292969,0,
 249222,-0.0439453125,-0.9765625,-0.01171875,1.6463414430618286,0.3048780560493469,0.5182926654815674,-10.649999618530273,-5.400000095367432,-10.800000190734863,37.19792175292969,0,
 249232,-0.0400390625,-0.982666015625,-0.013671875,1.920731782913208,0.4573170840740204,0.4268292784690857,-10.199999809265137,-5.849999904632568,-10.5,37.34169006347656,0,
 249242,-0.043701171875,-0.98046875,-0.012939453125,1.432926893234253,0.396341472864151,0.5487805008888245,-9.449999809265137,-5.099999904632568,-9.75,37.245845794677734,0,
 249252,-0.043701171875,-0.982177734375,-0.017333984375,1.8292683362960815,0.09146341681480408,0.7621951103210449,-9.449999809265137,-5.099999904632568,-9.75,37.38961410522461,0,
 249262,-0.048828125,-0.97265625,-0.01953125,1.097561001777649,0.3353658616542816,0.6402438879013062,-9.600000381469727,-4.5,-8.699999809265137,36.86246109008789,0,
 249272,-0.041259765625,-0.978271484375,-0.008544921875,0.9756097793579102,0.12195122241973877,0.4878048896789551,-10.800000190734863,-5.699999809265137,-8.399999618530273,37.10207748413086,0,
 249282,-0.044921875,-0.976318359375,-0.01318359375,1.7073171138763428,0.12195122241973877,0.09146341681480408,-10.800000190734863,-6.0,-9.149999618530273,37.34169006347656,0,
 249292,-0.0458984375,-0.98046875,-0.015380859375,1.1280487775802612,0.27439025044441223,0.5792682766914368,-9.449999809265137,-5.400000095367432,-9.0,37.006229400634766,0,
 249302,-0.044921875,-0.985107421875,-0.011962890625,1.2804877758026123,0.15243902802467346,0.6707317233085632,-9.449999809265137,-5.400000095367432,-9.0,37.245845794677734,0,
 249312,-0.047607421875,-0.978271484375,-0.01025390625,0.8231707215309143,0.5182926654815674,0.4268292784690857,-8.699999809265137,-5.099999904632568,-9.300000190734863,37.10207748413086,0,
 249322,-0.04638671875,-0.975341796875,-0.008544921875,0.5182926654815674,0.12195122241973877,0.4878048896789551,-10.199999809265137,-5.400000095367432,-8.25,37.19792175292969,0,
 249332,-0.04931640625,-0.974609375,-0.0146484375,0.21341463923454285,0.18292683362960815,0.4268292784690857,-10.949999809265137,-5.849999904632568,-9.300000190734863,37.19792175292969,0,
 249342,-0.04638671875,-0.9775390625,-0.01171875,0.5487805008888245,0.21341463923454285,0.27439025044441223,-10.949999809265137,-5.849999904632568,-9.300000190734863,37.245845794677734,0,
 249352,-0.04443359375,-0.982177734375,-0.014404296875,0.3353658616542816,-0.030487805604934692,0.21341463923454285,-7.5,-5.099999904632568,-10.050000190734863,36.91038513183594,0,
 249362,-0.04248046875,-0.97607421875,-0.0087890625,-0.12195122241973877,0.09146341681480408,0.0,-9.600000381469727,-5.25,-9.899999618530273,37.19792175292969,0,
 249372,-0.0478515625,-0.9794921875,-0.008544921875,-0.21341463923454285,0.3353658616542816,0.4573170840740204,-9.899999618530273,-5.400000095367432,-9.300000190734863,36.814537048339844,0,
 249382,-0.04833984375,-0.981201171875,-0.013671875,-0.4878048896789551,0.0,0.18292683362960815,-9.300000190734863,-4.5,-9.149999618530273,36.86246109008789,0,
 249392,-0.0400390625,-0.97802734375,-0.0126953125,-0.3048780560493469,0.27439025044441223,0.18292683362960815,-9.300000190734863,-4.5,-9.149999618530273,37.05415344238281,0,
 249422,-0.05126953125,-0.9765625,-0.014404296875,-1.0670732259750366,0.27439025044441223,0.060975611209869385,-12.0,-4.5,-12.149999618530273,36.91038513183594,0,
 249432,-0.044921875,-0.974853515625,-0.013427734375,-1.0365853309631348,0.3353658616542816,-0.060975611209869385,-7.050000190734863,-5.25,-10.949999809265137,37.19792175292969,0,
 249442,-0.050537109375,-0.981689453125,-0.01025390625,-1.097561001777649,0.12195122241973877,0.18292683362960815,-7.050000190734863,-5.25,-10.949999809265137,37.34169006347656,0,
 249452,-0.05029296875,-0.98193359375,-0.016845703125,-1.097561001777649,0.27439025044441223,0.060975611209869385,-11.399999618530273,-5.400000095367432,-8.550000190734863,37.34169006347656,0,
 249472,-0.044189453125,-0.974853515625,-0.017333984375,-1.402438998222351,0.09146341681480408,-0.09146341681480408,-9.449999809265137,-5.099999904632568,-9.75,36.86246109008789,0,
 249482,-0.046142578125,-0.980712890625,-0.00634765625,-1.3414634466171265,0.3353658616542816,0.3353658616542816,-9.449999809265137,-5.099999904632568,-9.75,37.006229400634766,0,
 249492,-0.044921875,-0.972412109375,-0.01318359375,-1.1585365533828735,0.27439025044441223,0.3353658616542816,-10.199999809265137,-3.9000000953674316,-9.75,36.86246109008789,0,
 249502,-0.0478515625,-0.97509765625,-0.013427734375,-1.097561001777649,0.5792682766914368,0.3353658616542816,-10.649999618530273,-4.650000095367432,-10.5,37.006229400634766,0,
 249523,-0.048583984375,-0.976318359375,-0.0107421875,-0.9756097793579102,0.4268292784690857,0.15243902802467346,-8.699999809265137,-7.050000190734863,-10.5,37.34169006347656,0,
 249533,-0.046875,-0.982666015625,-0.01220703125,-0.792682945728302,0.09146341681480408,0.09146341681480408,-8.699999809265137,-7.050000190734863,-10.5,36.91038513183594,0,
 249543,-0.04833984375,-0.96875,-0.01220703125,-1.1280487775802612,0.15243902802467346,0.0,-10.649999618530273,-5.099999904632568,-8.550000190734863,37.245845794677734,0,
 249553,-0.04541015625,-0.977294921875,-0.017333984375,-0.8536585569381714,0.3353658616542816,0.09146341681480408,-10.050000190734863,-6.449999809265137,-9.899999618530273,37.245845794677734,0,
 249563,-0.045166015625,-0.98193359375,-0.012451171875,-0.9451219439506531,0.09146341681480408,0.15243902802467346,-10.649999618530273,-4.349999904632568,-8.550000190734863,36.86246109008789,0,
 249573,-0.047119140625,-0.979248046875,-0.009033203125,-0.5487805008888245,0.09146341681480408,0.3353658616542816,-9.149999618530273,-6.599999904632568,-9.0,37.10207748413086,0,
 249583,-0.04638671875,-0.978759765625,-0.0087890625,-0.5487805008888245,0.15243902802467346,-0.12195122241973877,-9.149999618530273,-6.599999904632568,-9.0,37.19792175292969,0,
 249593,-0.04638671875,-0.97412109375,-0.015380859375,-0.3353658616542816,0.3353658616542816,0.5487805008888245,-10.649999618530273,-3.450000047683716,-9.75,37.10207748413086,0,
 249603,-0.04443359375,-0.97705078125,-0.007080078125,-0.6402438879013062,0.3353658616542816,0.3048780560493469,-10.5,-4.050000190734863,-7.650000095367432,37.245845794677734,0,
 249613,-0.041015625,-0.9794921875,-0.01025390625,-0.3658536672592163,0.4573170840740204,0.5487805008888245,-9.149999618530273,-5.849999904632568,-9.0,37.006229400634766,0,
 249623,-0.046875,-0.973388671875,-0.01513671875,-0.396341472864151,0.09146341681480408,0.3658536672592163,-9.149999618530273,-5.849999904632568,-9.0,37.34169006347656,0,
 249633,-0.038818359375,-0.971923828125,-0.0126953125,-0.3048780560493469,0.18292683362960815,0.3658536672592163,-12.0,-4.5,-9.149999618530273,37.05415344238281,0,
 249653,-0.043701171875,-0.9775390625,-0.0146484375,-0.5792682766914368,0.3353658616542816,0.3658536672592163,-10.199999809265137,-6.300000190734863,-9.75,37.245845794677734,0,
 249663,-0.044189453125,-0.974365234375,-0.012939453125,-0.4878048896789551,0.3658536672592163,0.24390244483947754,-9.899999618530273,-5.849999904632568,-9.300000190734863,37.10207748413086,0,
 249683,-0.043212890625,-0.974853515625,-0.015380859375,-0.3353658616542816,0.21341463923454285,0.09146341681480408,-10.800000190734863,-5.25,-9.449999809265137,37.34169006347656,0,
 249693,-0.04443359375,-0.97705078125,-0.01123046875,-0.15243902802467346,0.5182926654815674,0.27439025044441223,-8.550000190734863,-6.449999809265137,-10.199999809265137,37.19792175292969,0,
 249703,-0.044677734375,-0.97802734375,-0.012451171875,-0.3658536672592163,0.15243902802467346,0.4573170840740204,-9.300000190734863,-4.050000190734863,-8.699999809265137,37.05415344238281,0,
 249713,-0.0439453125,-0.981689453125,-0.0146484375,-0.24390244483947754,0.18292683362960815,0.6402438879013062,-9.449999809265137,-3.9000000953674316,-9.0,37.19792175292969,0,
 249723,-0.055419921875,-0.975830078125,-0.011474609375,-0.3353658616542816,0.15243902802467346,0.24390244483947754,-9.449999809265137,-3.9000000953674316,-9.0,37.006229400634766,0,
 249733,-0.046142578125,-0.979248046875,-0.011474609375,-0.3048780560493469,0.24390244483947754,0.3658536672592163,-7.349999904632568,-5.699999809265137,-11.699999809265137,37.05415344238281,0,
 249743,-0.044921875,-0.978759765625,-0.01171875,-0.030487805604934692,0.396341472864151,-0.030487805604934692,-9.149999618530273,-6.599999904632568,-9.300000190734863,37.006229400634766,0,
 249753,-0.05078125,-0.981689453125,-0.01171875,-0.27439025044441223,0.12195122241973877,0.5487805008888245,-9.899999618530273,-4.349999904632568,-8.25,37.006229400634766,0,
 249763,-0.046142578125,-0.976318359375,-0.005615234375,-0.6097561120986938,0.15243902802467346,0.27439025044441223,-9.899999618530273,-4.349999904632568,-8.25,36.86246109008789,0,
 249773,-0.044921875,-0.97705078125,-0.017333984375,-0.4573170840740204,0.24390244483947754,0.27439025044441223,-9.600000381469727,-5.25,-10.199999809265137,37.19792175292969,0,
 249783,-0.0439453125,-0.98046875,-0.014404296875,-0.21341463923454285,0.24390244483947754,0.24390244483947754,-10.800000190734863,-5.25,-9.149999618530273,37.19792175292969,0,
 249793,-0.04736328125,-0.9736328125,-0.009033203125,-0.3658536672592163,0.3658536672592163,0.24390244483947754,-10.199999809265137,-4.650000095367432,-9.75,36.91038513183594,0,
 249803,-0.043701171875,-0.98388671875,-0.007568359375,-0.5182926654815674,0.15243902802467346,0.4573170840740204,-8.850000381469727,-6.0,-9.449999809265137,37.245845794677734,0,
 249813,-0.0400390625,-0.978759765625,-0.01025390625,-0.4268292784690857,0.27439025044441223,0.0,-8.850000381469727,-6.0,-9.449999809265137,37.10207748413086,0,
 249823,-0.04833984375,-0.978271484375,-0.010498046875,-1.0365853309631348,0.3048780560493469,0.15243902802467346,-9.149999618530273,-5.400000095367432,-8.550000190734863,37.19792175292969,0,
 249833,-0.046630859375,-0.978515625,-0.01123046875,-0.7621951103210449,0.3658536672592163,-0.15243902802467346,-9.149999618530273,-5.099999904632568,-9.75,37.19792175292969,0,
 249843,-0.0419921875,-0.982421875,-0.010498046875,-0.5487805008888245,0.21341463923454285,-0.030487805604934692,-9.600000381469727,-6.0,-10.949999809265137,37.006229400634766,0,
 249853,-0.048095703125,-0.978271484375,-0.00927734375,-0.5792682766914368,0.27439025044441223,-0.27439025044441223,-9.149999618530273,-6.300000190734863,-8.550000190734863,37.245845794677734,0,
 249863,-0.046630859375,-0.971923828125,-0.01708984375,-0.7317073345184326,0.0,-0.6707317233085632,-9.149999618530273,-6.300000190734863,-8.550000190734863,37.05415344238281,0,
 249873,-0.052734375,-0.979248046875,-0.01513671875,-0.3353658616542816,0.21341463923454285,-1.3719512224197388,-8.399999618530273,-4.349999904632568,-10.800000190734863,37.19792175292969,0,
 249883,-0.0478515625,-0.978515625,-0.016845703125,0.27439025044441223,0.15243902802467346,-2.77439022064209,-9.300000190734863,-4.949999809265137,-10.949999809265137,37.05415344238281,0,
 249893,-0.03857421875,-0.97705078125,-0.009033203125,0.5487805008888245,0.15243902802467346,-3.2926828861236572,-10.050000190734863,-5.699999809265137,-9.149999618530273,37.245845794677734,0,
 249903,-0.0380859375,-0.97998046875,-0.015869140625,0.7621951103210449,-0.09146341681480408,-3.5060975551605225,-10.050000190734863,-5.699999809265137,-9.149999618530273,37.245845794677734,0,
 249913,-0.04248046875,-0.97314453125,-0.0126953125,0.7317073345184326,0.24390244483947754,-3.4146342277526855,-9.300000190734863,-4.949999809265137,-9.149999618530273,36.86246109008789,0,
 249923,-0.046142578125,-0.982421875,-0.011962890625,0.8231707215309143,0.24390244483947754,-3.6890244483947754,-9.300000190734863,-4.949999809265137,-10.199999809265137,37.34169006347656,0,
 249933,-0.047119140625,-0.973388671875,-0.013671875,1.6768293380737305,0.12195122241973877,-4.45121955871582,-7.199999809265137,-5.849999904632568,-11.550000190734863,37.34169006347656,0,
 249943,-0.05224609375,-0.970947265625,-0.015869140625,2.408536672592163,0.09146341681480408,-6.25,-10.050000190734863,-5.699999809265137,-9.149999618530273,37.245845794677734,0,
 249953,-0.056884765625,-0.982177734375,-0.031494140625,3.8719513416290283,0.4878048896789551,-9.054878234863281,-10.050000190734863,-5.699999809265137,-9.149999618530273,37.19792175292969,0,
 249963,-0.06689453125,-1.0,-0.0166015625,5.9146342277526855,0.792682945728302,-13.567073822021484,-10.649999618530273,-4.650000095367432,-9.0,37.19792175292969,0,
 249973,-0.05224609375,-1.020263671875,-0.013671875,7.378048896789551,1.0060975551605225,-18.44512176513672,-9.600000381469727,-4.949999809265137,-10.199999809265137,37.006229400634766,0,
 249983,-0.033935546875,-1.029052734375,-0.0009765625,7.012195110321045,1.2804877758026123,-27.042682647705078,-10.050000190734863,-5.699999809265137,-9.449999809265137,36.91038513183594,0,
 249993,-0.027587890625,-1.048095703125,0.01123046875,4.695122241973877,0.9756097793579102,-29.29878044128418,-10.050000190734863,-5.699999809265137,-9.449999809265137,37.245845794677734,0,
 250003,-0.017822265625,-1.0634765625,0.0224609375,1.6158536672592163,0.8231707215309143,-29.817073822021484,-8.850000381469727,-5.699999809265137,-9.449999809265137,36.86246109008789,0,
 250013,0.0,-1.0380859375,0.02978515625,-2.22560977935791,-0.21341463923454285,-28.780488967895508,-10.199999809265137,-6.300000190734863,-9.75,37.006229400634766,0,
 250023,0.003173828125,-1.020263671875,0.0439453125,-3.7195122241973877,-2.5,-29.29878044128418,-9.600000381469727,-5.699999809265137,-9.449999809265137,37.05415344238281,0,
 250033,-0.00732421875,-1.037841796875,0.032958984375,-2.77439022064209,-5.030488014221191,-32.80487823486328,-10.649999618530273,-3.1500000953674316,-10.5,37.38961410522461,0,
 250043,-0.016845703125,-1.05517578125,0.02978515625,-0.5792682766914368,-7.378048896789551,-37.34756088256836,-10.649999618530273,-3.1500000953674316,-10.5,37.34169006347656,0,
 250053,-0.015625,-1.068359375,0.018798828125,3.5365853309631348,-9.72560977935791,-44.17683029174805,-10.800000190734863,-5.699999809265137,-9.149999618530273,37.006229400634766,0,
 250063,-0.029052734375,-1.073974609375,0.005126953125,8.689024925231934,-11.432927131652832,-51.432926177978516,-11.550000190734863,-6.449999809265137,-9.449999809265137,37.34169006347656,0,
 250073,-0.021240234375,-1.06787109375,-0.010498046875,12.865854263305664,-11.341464042663574,-56.310977935791016,-10.649999618530273,-7.050000190734863,-8.25,37.34169006347656,0,
 250083,-0.005615234375,-1.03662109375,-0.029052734375,13.414634704589844,-9.634146690368652,-56.524391174316406,-10.949999809265137,-5.400000095367432,-9.0,37.006229400634766,0,
 250093,0.00927734375,-1.01123046875,-0.0556640625,10.213415145874023,-5.8231706619262695,-54.05487823486328,-10.949999809265137,-5.400000095367432,-9.0,37.245845794677734,0,
 250103,0.013427734375,-0.994384765625,-0.07275390625,5.853658676147461,-0.6402438879013062,-52.13414764404297,-10.949999809265137,-6.599999904632568,-9.75,36.91038513183594,0,
 250113,0.040283203125,-0.968017578125,-0.073486328125,4.634146213531494,3.9024391174316406,-50.15243911743164,-10.949999809265137,-7.800000190734863,-9.300000190734863,37.05415344238281,0,
 250123,0.044677734375,-0.960693359375,-0.06689453125,5.487804889678955,7.469512462615967,-49.32926940917969,-9.600000381469727,-8.100000381469727,-8.699999809265137,37.245845794677734,0,
 250133,0.056640625,-0.96630859375,-0.048583984375,7.378048896789551,9.207317352294922,-50.09146499633789,-9.600000381469727,-8.100000381469727,-8.699999809265137,37.245845794677734,0,
 250163,0.12451171875,-0.9306640625,0.033447265625,8.32317066192627,10.97560977935791,-48.38414764404297,-13.649999618530273,-8.25,-10.050000190734863,37.05415344238281,0,
 250173,0.14111328125,-0.918212890625,0.0556640625,7.530488014221191,9.87804889678955,-45.57926940917969,-12.75,-7.650000095367432,-9.899999618530273,37.10207748413086,0,
 250183,0.159912109375,-0.950439453125,0.068359375,8.231707572937012,8.109756469726562,-43.780487060546875,-12.75,-7.650000095367432,-9.899999618530273,37.245845794677734,0,
 250193,0.14013671875,-0.964111328125,0.058837890625,10.15243911743164,5.213414669036865,-43.90243911743164,-13.5,-8.399999618530273,-10.199999809265137,37.245845794677734,0,
 250203,0.13134765625,-0.976318359375,0.04443359375,12.469512939453125,2.896341562271118,-44.817073822021484,-13.800000190734863,-10.050000190734863,-9.149999618530273,37.05415344238281,0,
 250213,0.15576171875,-0.967529296875,0.0380859375,13.90243911743164,0.9146341681480408,-45.335365295410156,-11.699999809265137,-9.0,-10.800000190734863,37.10207748413086,0,
 250223,0.166259765625,-0.91943359375,0.03515625,13.75,0.09146341681480408,-43.84146499633789,-12.75,-8.100000381469727,-8.399999618530273,37.006229400634766,0,
 250233,0.1953125,-0.90771484375,0.04150390625,13.445122718811035,-0.030487805604934692,-41.371952056884766,-12.75,-8.100000381469727,-8.399999618530273,37.10207748413086,0,
 250243,0.18310546875,-0.885498046875,0.029296875,14.481707572937012,-0.7012194991111755,-39.57317352294922,-12.600000381469727,-9.899999618530273,-14.25,37.19792175292969,0,
 250253,0.1806640625,-0.888671875,0.03857421875,16.64634132385254,-1.402438998222351,-37.256099700927734,-13.800000190734863,-8.850000381469727,-10.949999809265137,37.006229400634766,0,
 250264,0.2021484375,-0.89453125,0.032958984375,17.774391174316406,-2.2865853309631348,-34.1158561706543,-14.25,-10.800000190734863,-10.949999809265137,36.91038513183594,0,
 250274,0.203857421875,-0.881591796875,0.023681640625,17.68292808532715,-2.0426828861236572,-31.128049850463867,-14.25,-10.800000190734863,-10.949999809265137,37.245845794677734,0,
 250284,0.22216796875,-0.839111328125,0.0400390625,15.182927131652832,-1.402438998222351,-25.426830291748047,-12.75,-11.25,-9.899999618530273,37.10207748413086,0,
 250294,0.246826171875,-0.804931640625,0.05517578125,12.164634704589844,-0.4573170840740204,-18.44512176513672,-12.300000190734863,-9.600000381469727,-10.649999618530273,37.05415344238281,0,
 250304,0.26025390625,-0.7734375,0.0888671875,10.060976028442383,-0.24390244483947754,-10.243902206420898,-13.649999618530273,-9.449999809265137,-10.050000190734863,37.006229400634766,0,
 250314,0.260009765625,-0.769775390625,0.107421875,7.743902683258057,-1.920731782913208,-0.9146341681480408,-12.300000190734863,-10.800000190734863,-10.199999809265137,37.19792175292969,0,
 250324,0.2568359375,-0.7353515625,0.096435546875,4.420732021331787,-3.8719513416290283,9.57317066192627,-12.300000190734863,-10.800000190734863,-10.199999809265137,37.006229400634766,0,
 250334,0.288818359375,-0.701416015625,0.122802734375,-4.390244007110596,-4.939024448394775,24.23780632019043,-12.0,-10.350000381469727,-10.949999809265137,37.05415344238281,0,
 250344,0.2802734375,-0.64111328125,0.1181640625,-13.932927131652832,-4.908536911010742,40.54878234863281,-12.300000190734863,-10.800000190734863,-13.949999809265137,37.05415344238281,0,
 250354,0.278076171875,-0.479248046875,0.111083984375,-25.18292808532715,-5.396341800689697,61.067073822021484,-13.350000381469727,-9.899999618530273,-12.0,37.006229400634766,0,
 250364,0.31591796875,-0.230224609375,0.1279296875,-42.07317352294922,-5.762195110321045,93.41463470458984,-13.800000190734863,-10.050000190734863,-9.899999618530273,37.245845794677734,0,
 250374,0.3974609375,-0.115478515625,0.17431640625,-63.68902587890625,-6.615853786468506,138.32318115234375,-13.800000190734863,-10.050000190734863,-9.899999618530273,36.814537048339844,0,
 250384,0.4912109375,-0.221923828125,0.22021484375,-77.98780822753906,-9.695121765136719,183.56707763671875,-12.899999618530273,-8.699999809265137,-9.300000190734863,37.19792175292969,0,
 250394,0.34228515625,-0.35693359375,0.134033203125,-75.42683410644531,-19.024391174316406,218.6280517578125,-12.0,-9.300000190734863,-9.449999809265137,37.006229400634766,0,
 250404,0.180908203125,-0.892822265625,-0.10302734375,-64.35975646972656,-29.93902587890625,251.25,-12.0,-7.199999809265137,-9.149999618530273,36.91038513183594,0,
 250414,-0.090087890625,-7.511962890625,-1.43359375,-59.54268264770508,-39.085365295410156,289.4817199707031,-12.0,-7.199999809265137,-9.149999618530273,37.245845794677734,0,
 250424,-0.429931640625,-1.73193359375,-0.00048828125,-68.01829528808594,15.15243911743164,165.03048706054688,-10.050000190734863,-6.0,-7.949999809265137,37.05415344238281,0,
 250434,-1.177978515625,-0.31787109375,-0.490966796875,-23.719512939453125,17.439023971557617,-5.853658676147461,-10.050000190734863,-6.449999809265137,-9.149999618530273,37.34169006347656,0,
 250444,0.001220703125,-1.28125,0.0498046875,-17.10365867614746,10.15243911743164,18.170732498168945,-9.600000381469727,-4.949999809265137,-10.949999809265137,37.05415344238281,0,
 250474,0.014404296875,-0.9248046875,-0.048583984375,6.493902683258057,0.4573170840740204,21.768293380737305,-9.449999809265137,-4.349999904632568,-8.550000190734863,37.19792175292969,0,
 250484,-0.064697265625,-1.031494140625,-0.02978515625,3.9634146690368652,-6.402439117431641,9.969511985778809,-8.550000190734863,-4.949999809265137,-9.449999809265137,37.19792175292969,0,
 250494,-0.18017578125,-0.9599609375,-0.057373046875,6.036585330963135,-4.146341323852539,-0.4573170840740204,-9.300000190734863,-4.949999809265137,-7.650000095367432,36.814537048339844,0,
 250504,-0.1572265625,-0.93798828125,-0.05908203125,9.45121955871582,-0.5487805008888245,-7.5,-8.850000381469727,-6.449999809265137,-9.149999618530273,37.245845794677734,0,
 250524,-0.093994140625,-0.9794921875,-0.02978515625,8.932927131652832,-1.1280487775802612,-18.231708526611328,-8.399999618530273,-5.400000095367432,-9.0,37.10207748413086,0,
 250534,-0.111572265625,-0.97265625,-0.04541015625,10.15243911743164,-1.1585365533828735,-24.359756469726562,-9.449999809265137,-5.400000095367432,-8.25,37.19792175292969,0,
 250544,-0.114013671875,-0.949951171875,-0.04931640625,12.92682933807373,-0.396341472864151,-30.457317352294922,-9.449999809265137,-4.349999904632568,-8.550000190734863,36.814537048339844,0,
 250554,-0.08349609375,-0.96630859375,-0.044189453125,15.030488014221191,-0.030487805604934692,-33.23170852661133,-9.449999809265137,-4.349999904632568,-8.550000190734863,37.006229400634766,0,
 250564,-0.041259765625,-0.989990234375,-0.033935546875,16.036584854125977,0.060975611209869385,-29.7560977935791,-7.949999809265137,-3.9000000953674316,-7.050000190734863,37.245845794677734,0,
 250574,0.015380859375,-1.0068359375,-0.021728515625,14.45121955871582,-0.030487805604934692,-19.359756469726562,-9.600000381469727,-4.949999809265137,-10.949999809265137,37.34169006347656,0,
 250584,0.04443359375,-1.01513671875,0.007568359375,9.817073822021484,0.0,-5.640244007110596,-7.199999809265137,-3.9000000953674316,-9.300000190734863,37.05415344238281,0,
 250594,0.016845703125,-1.013671875,0.012451171875,4.29878044128418,-0.030487805604934692,4.1768293380737305,-10.050000190734863,-4.050000190734863,-9.149999618530273,37.10207748413086,0,
 250604,-0.052490234375,-0.982421875,-0.01513671875,0.6402438879013062,-0.27439025044441223,7.743902683258057,-10.050000190734863,-4.050000190734863,-9.149999618530273,37.19792175292969,0,
 250614,-0.059814453125,-0.968994140625,-0.025390625,0.4573170840740204,-0.396341472864151,6.890244007110596,-8.100000381469727,-4.5,-8.399999618530273,37.10207748413086,0,
 250624,-0.072509765625,-0.964599609375,-0.024658203125,1.3719512224197388,-0.24390244483947754,4.695122241973877,-9.600000381469727,-5.25,-9.899999618530273,37.34169006347656,0,
 250634,-0.06982421875,-0.974365234375,-0.020751953125,2.195122003555298,0.09146341681480408,1.402438998222351,-10.949999809265137,-3.9000000953674316,-7.800000190734863,37.245845794677734,0,
 250644,-0.059814453125,-0.982666015625,-0.01708984375,2.22560977935791,0.5487805008888245,-1.25,-9.600000381469727,-5.699999809265137,-8.399999618530273,37.006229400634766,0,
 250654,-0.045654296875,-0.977294921875,-0.020263671875,2.3475611209869385,0.5792682766914368,-3.0182926654815674,-10.800000190734863,-6.449999809265137,-10.199999809265137,37.10207748413086,0,
 250664,-0.041015625,-0.97412109375,-0.020263671875,2.5609755516052246,0.6097561120986938,-3.0182926654815674,-9.449999809265137,-5.400000095367432,-9.300000190734863,37.245845794677734,0,
 250674,-0.033203125,-0.9833984375,-0.01611328125,2.378048896789551,0.8231707215309143,-1.9817073345184326,-9.600000381469727,-4.5,-8.699999809265137,37.006229400634766,0,
 250684,-0.04296875,-0.980712890625,-0.01171875,2.0731706619262695,0.6402438879013062,-0.4878048896789551,-9.300000190734863,-3.75,-9.449999809265137,37.245845794677734,0,
 250694,-0.046875,-0.980224609375,-0.021240234375,1.7987805604934692,0.18292683362960815,0.060975611209869385,-9.300000190734863,-3.75,-9.449999809265137,37.10207748413086,0,
 250704,-0.0478515625,-0.97412109375,-0.014892578125,1.7073171138763428,-0.030487805604934692,0.0,-11.550000190734863,-4.5,-7.650000095367432,37.34169006347656,0,
 250714,-0.04638671875,-0.977783203125,-0.017333984375,2.0731706619262695,0.24390244483947754,-0.27439025044441223,-10.5,-4.949999809265137,-9.899999618530273,37.245845794677734,0,
 250734,-0.0439453125,-0.977783203125,-0.013916015625,1.6158536672592163,0.060975611209869385,-0.4268292784690857,-10.050000190734863,-4.949999809265137,-9.899999618530273,37.34169006347656,0,
 250764,-0.051025390625,-0.97216796875,-0.01708984375,1.7073171138763428,0.030487805604934692,-0.3658536672592163,-10.800000190734863,-5.25,-9.899999618530273,37.006229400634766,0,
 250784,-0.04931640625,-0.9736328125,-0.018310546875,2.9268293380737305,0.3658536672592163,-2.4695122241973877,-9.600000381469727,-4.050000190734863,-9.899999618530273,37.245845794677734,0,
 250794,-0.052490234375,-0.97705078125,-0.011962890625,3.7804877758026123,0.3353658616542816,-3.4146342277526855,-9.600000381469727,-5.699999809265137,-9.149999618530273,37.245845794677734,0,
 250804,-0.043701171875,-0.986572265625,-0.0126953125,4.1768293380737305,0.3048780560493469,-4.6646342277526855,-9.899999618530273,-6.599999904632568,-10.050000190734863,37.19792175292969,0,
 250814,-0.0458984375,-0.985595703125,-0.00830078125,3.9024391174316406,0.3658536672592163,-4.390244007110596,-10.050000190734863,-4.949999809265137,-9.899999618530273,37.05415344238281,0,
 250854,-0.052001953125,-0.975341796875,-0.0185546875,6.7682929039001465,1.5548781156539917,-10.243902206420898,-10.5,-2.549999952316284,-8.399999618530273,37.006229400634766,0,
 250904,-0.0869140625,-1.1591796875,-0.0390625,20.426830291748047,10.15243911743164,-53.90243911743164,-10.5,-6.0,-10.199999809265137,37.006229400634766,0,
 250914,-0.068115234375,-1.177978515625,0.011962890625,20.091463088989258,8.59756088256836,-59.05487823486328,-10.949999809265137,-5.849999904632568,-9.300000190734863,37.34169006347656,0,
 250924,-0.050537109375,-1.145263671875,0.0625,19.14634132385254,5.762195110321045,-63.84146499633789,-10.949999809265137,-5.849999904632568,-9.300000190734863,37.10207748413086,0,
 250935,-0.02734375,-1.104736328125,0.0869140625,17.68292808532715,2.2560975551605225,-67.16463470458984,-11.25,-7.650000095367432,-9.899999618530273,36.91038513183594,0,
 250945,0.038818359375,-1.036376953125,0.093994140625,14.786585807800293,-1.097561001777649,-67.68292999267578,-10.949999809265137,-5.849999904632568,-8.550000190734863,37.19792175292969,0,
 250955,0.046630859375,-1.058349609375,0.068115234375,14.542683601379395,-3.47560977935791,-69.96951293945312,-11.550000190734863,-5.699999809265137,-11.399999618530273,37.19792175292969,0,
 250965,0.0146484375,-1.10546875,0.041748046875,14.02439022064209,-3.7804877758026123,-73.81097412109375,-10.800000190734863,-6.449999809265137,-9.149999618530273,37.34169006347656,0,
 250975,0.005859375,-1.071533203125,0.0234375,11.493903160095215,-3.1402440071105957,-74.7256088256836,-10.800000190734863,-6.449999809265137,-9.149999618530273,37.10207748413086,0,
 250985,0.0537109375,-1.01220703125,0.023193359375,10.731707572937012,-2.5,-74.63414764404297,-12.75,-7.199999809265137,-9.449999809265137,37.19792175292969,0,
 250995,0.08642578125,-0.94580078125,0.020263671875,12.5,-2.22560977935791,-72.34756469726562,-12.899999618530273,-8.25,-10.050000190734863,37.19792175292969,0,
 251005,0.105712890625,-0.91845703125,0.00048828125,13.567073822021484,-1.432926893234253,-69.26829528808594,-13.050000190734863,-6.900000095367432,-10.649999618530273,37.34169006347656,0,
 251015,0.12158203125,-0.875732421875,0.000732421875,15.27439022064209,-0.12195122241973877,-64.78659057617188,-12.149999618530273,-7.800000190734863,-9.75,37.006229400634766,0,
 251025,0.1396484375,-0.885986328125,-0.005126953125,17.164634704589844,1.5243902206420898,-61.006099700927734,-12.149999618530273,-7.800000190734863,-9.75,37.245845794677734,0,
 251035,0.125732421875,-0.889892578125,0.00439453125,16.371952056884766,3.1097562313079834,-56.310977935791016,-13.350000381469727,-6.599999904632568,-11.550000190734863,36.814537048339844,0,
 251045,0.146484375,-0.88037109375,0.010498046875,14.420732498168945,5.152439117431641,-51.1280517578125,-12.300000190734863,-9.600000381469727,-10.649999618530273,37.05415344238281,0,
 251055,0.191650390625,-0.822509765625,0.043212890625,11.341464042663574,6.707317352294922,-44.17683029174805,-13.649999618530273,-9.449999809265137,-10.800000190734863,37.006229400634766,0,
 251065,0.22314453125,-0.810791015625,0.067626953125,6.6768293380737305,7.957317352294922,-35.121952056884766,-13.649999618530273,-9.449999809265137,-10.800000190734863,37.10207748413086,0,
 251075,0.2109375,-0.8173828125,0.0869140625,3.4146342277526855,8.04878044128418,-27.34756088256836,-12.0,-10.800000190734863,-9.899999618530273,37.245845794677734,0,
 251085,0.2158203125,-0.810302734375,0.100341796875,0.6707317233085632,7.1646342277526855,-19.7560977935791,-15.600000381469727,-8.699999809265137,-10.050000190734863,37.006229400634766,0,
 251095,0.2412109375,-0.751953125,0.12255859375,-2.1341464519500732,5.243902683258057,-10.70121955871582,-13.5,-9.300000190734863,-11.399999618530273,37.19792175292969,0,
 251105,0.27783203125,-0.67138671875,0.139892578125,-5.670732021331787,2.103658676147461,2.1341464519500732,-12.300000190734863,-8.100000381469727,-11.399999618530273,37.19792175292969,0,
 251115,0.30712890625,-0.641845703125,0.14599609375,-11.219511985778809,-0.792682945728302,19.84756088256836,-12.300000190734863,-8.100000381469727,-11.399999618530273,37.34169006347656,0,
 251125,0.25830078125,-0.65234375,0.12109375,-17.317073822021484,-2.7439024448394775,36.98170852661133,-12.0,-9.600000381469727,-9.899999618530273,37.10207748413086,0,
 251135,0.255859375,-0.56591796875,0.105712890625,-23.20121955871582,-4.878048896789551,55.0,-14.25,-9.300000190734863,-11.399999618530273,37.006229400634766,0,
 251145,0.32666015625,-0.370361328125,0.11767578125,-34.725608825683594,-5.853658676147461,81.9817123413086,-12.899999618530273,-8.699999809265137,-10.5,37.05415344238281,0,
 251155,0.39208984375,-0.247802734375,0.104248046875,-50.51829528808594,-6.067073345184326,119.69512176513672,-14.850000381469727,-8.699999809265137,-10.5,37.19792175292969,0,
 251165,0.37060546875,-0.22216796875,0.0830078125,-64.81707763671875,-5.670732021331787,161.5548858642578,-14.850000381469727,-8.699999809265137,-10.5,37.10207748413086,0,
 251175,0.26611328125,-0.288330078125,0.03271484375,-70.12195587158203,-6.493902683258057,201.37196350097656,-11.699999809265137,-7.800000190734863,-10.800000190734863,37.34169006347656,0,
 251195,-0.73974609375,-7.8251953125,-0.361083984375,-61.219512939453125,-13.841464042663574,279.1463623046875,-10.199999809265137,-7.050000190734863,-10.800000190734863,37.10207748413086,0,
 251205,-0.374267578125,-1.896728515625,0.056884765625,-69.63414764404297,17.164634704589844,125.79268646240234,-10.199999809265137,-7.050000190734863,-10.800000190734863,37.006229400634766,0,
 251215,-1.1728515625,-0.487060546875,-0.550048828125,-41.64634323120117,14.664634704589844,1.7073171138763428,-11.25,-5.699999809265137,-9.899999618530273,37.245845794677734,0,
 251225,-0.173828125,-1.177001953125,-0.076416015625,-30.30487823486328,7.286585330963135,40.24390411376953,-8.850000381469727,-6.0,-9.449999809265137,37.10207748413086,0,
 251235,-0.05517578125,-0.668701171875,-0.172119140625,-13.414634704589844,12.22560977935791,15.731707572937012,-10.649999618530273,-4.650000095367432,-8.550000190734863,36.86246109008789,0,
 251245,0.074951171875,-0.94921875,-0.03662109375,4.542683124542236,15.15243911743164,28.292682647705078,-9.600000381469727,-5.25,-7.650000095367432,37.245845794677734,0,
 251255,-0.018798828125,-0.978759765625,-0.02490234375,7.9268293380737305,6.036585330963135,21.03658676147461,-9.600000381469727,-5.25,-7.650000095367432,37.10207748413086,0,
 251265,-0.113525390625,-1.006591796875,-0.03076171875,4.054878234863281,-3.9024391174316406,13.87195110321045,-10.649999618530273,-3.9000000953674316,-10.5,37.19792175292969,0,
 251275,-0.1796875,-0.92626953125,-0.069091796875,3.0182926654815674,-7.286585330963135,2.804877996444702,-8.100000381469727,-3.299999952316284,-7.949999809265137,37.245845794677734,0,
 251285,-0.1220703125,-0.940185546875,-0.047607421875,8.262195587158203,-3.262195110321045,-5.182927131652832,-10.199999809265137,-4.650000095367432,-7.800000190734863,37.05415344238281,0,
 251295,-0.088623046875,-0.978759765625,-0.021240234375,10.609756469726562,-0.7317073345184326,-10.335366249084473,-10.199999809265137,-4.650000095367432,-7.800000190734863,37.34169006347656,0,
 251305,-0.08203125,-0.9794921875,-0.028564453125,9.756097793579102,-1.2195122241973877,-14.87804889678955,-8.550000190734863,-5.699999809265137,-10.199999809265137,37.05415344238281,0,
 251315,-0.092529296875,-0.96826171875,-0.0361328125,8.841464042663574,-2.4390244483947754,-20.426830291748047,-9.449999809265137,-4.349999904632568,-9.300000190734863,36.86246109008789,0,
 251325,-0.097412109375,-0.964599609375,-0.03173828125,9.72560977935791,-2.7439024448394775,-25.30487823486328,-8.850000381469727,-4.949999809265137,-9.149999618530273,37.10207748413086,0,
 251335,-0.05810546875,-0.992431640625,-0.035888671875,12.164634704589844,-1.6158536672592163,-28.231708526611328,-11.399999618530273,-5.400000095367432,-8.550000190734863,37.05415344238281,0,
 251345,-0.00244140625,-1.010986328125,-0.015869140625,11.493903160095215,-0.3353658616542816,-18.109756469726562,-11.399999618530273,-5.400000095367432,-8.550000190734863,37.19792175292969,0,
 251355,0.02294921875,-1.013671875,0.0009765625,6.554878234863281,-0.21341463923454285,-7.682927131652832,-8.699999809265137,-5.849999904632568,-9.75,37.34169006347656,0,
 251365,0.01611328125,-1.01123046875,0.004638671875,2.6524391174316406,0.24390244483947754,1.9512195587158203,-9.449999809265137,-6.599999904632568,-9.75,37.006229400634766,0,
 251375,-0.019775390625,-0.993408203125,-0.00732421875,0.0,0.4573170840740204,5.792683124542236,-12.149999618530273,-6.599999904632568,-9.300000190734863,37.006229400634766,0,
 251385,-0.044921875,-0.9794921875,-0.01513671875,-0.15243902802467346,-0.09146341681480408,6.280488014221191,-11.25,-5.699999809265137,-9.899999618530273,37.19792175292969,0,
 251405,-0.065185546875,-0.9736328125,-0.013916015625,1.432926893234253,0.3658536672592163,1.8597561120986938,-10.5,-4.949999809265137,-9.899999618530273,37.10207748413086,0,
 251415,-0.066650390625,-0.97509765625,-0.0234375,1.5243902206420898,0.3658536672592163,-0.6707317233085632,-10.949999809265137,-5.849999904632568,-8.550000190734863,37.34169006347656,0,
 251425,-0.059814453125,-0.978515625,-0.01953125,1.3719512224197388,0.27439025044441223,-2.1341464519500732,-11.25,-4.050000190734863,-8.699999809265137,37.006229400634766,0,
 251435,-0.05078125,-0.976318359375,-0.016357421875,1.6463414430618286,0.7317073345184326,-2.7134146690368652,-11.25,-4.050000190734863,-8.699999809265137,37.245845794677734,0,
 251475,-0.0478515625,-0.983642578125,-0.010498046875,0.8231707215309143,0.24390244483947754,-0.396341472864151,-11.699999809265137,-7.050000190734863,-11.25,37.006229400634766,0,
 251485,-0.053955078125,-0.974609375,-0.018798828125,2.5304877758026123,0.4268292784690857,-2.2560975551605225,-11.699999809265137,-7.050000190734863,-11.25,37.05415344238281,0,
 251495,-0.050048828125,-0.96630859375,-0.02734375,4.054878234863281,0.3353658616542816,-3.7195122241973877,-9.149999618530273,-5.400000095367432,-9.300000190734863,37.245845794677734,0,
 251505,-0.0703125,-0.98193359375,-0.02880859375,4.72560977935791,0.3658536672592163,-5.97560977935791,-10.800000190734863,-5.699999809265137,-9.899999618530273,37.006229400634766,0,
 251515,-0.082763671875,-0.96826171875,-0.044921875,6.981707572937012,0.6402438879013062,-10.396341323852539,-10.800000190734863,-4.5,-9.899999618530273,37.05415344238281,0,
 251535,-0.06396484375,-1.013427734375,-0.038818359375,15.243903160095215,2.103658676147461,-24.390243530273438,-11.399999618530273,-5.099999904632568,-9.0,37.006229400634766,0,
 251545,-0.0546875,-1.042724609375,-0.053466796875,19.725610733032227,2.591463565826416,-33.32316970825195,-12.0,-5.699999809265137,-9.899999618530273,37.245845794677734,0,
 251555,-0.019287109375,-1.074951171875,-0.009033203125,23.567073822021484,3.628048896789551,-40.7621955871582,-11.399999618530273,-5.099999904632568,-10.050000190734863,36.86246109008789,0,
 251565,-0.036376953125,-1.131103515625,0.015625,23.841463088989258,4.2682929039001465,-44.05487823486328,-10.5,-4.949999809265137,-9.149999618530273,37.19792175292969,0,
 251575,-0.059814453125,-1.1962890625,0.030029296875,23.231708526611328,3.8109757900238037,-49.63414764404297,-10.5,-4.949999809265137,-9.149999618530273,37.245845794677734,0,
 251605,-0.023681640625,-1.1435546875,0.07568359375,23.780488967895508,-5.304878234863281,-73.6280517578125,-12.75,-7.199999809265137,-9.899999618530273,37.34169006347656,0,
 251615,0.01611328125,-1.0751953125,0.071044921875,22.317073822021484,-7.896341800689697,-79.08536529541016,-11.699999809265137,-5.849999904632568,-9.75,37.05415344238281,0,
 251625,0.052490234375,-1.009033203125,0.070068359375,17.987804412841797,-9.390244483947754,-78.20121765136719,-11.699999809265137,-5.849999904632568,-9.75,37.245845794677734,0,
 251635,0.0712890625,-0.933837890625,0.03466796875,13.292683601379395,-9.664634704589844,-74.4817123413086,-12.149999618530273,-7.5,-9.75,36.91038513183594,0,
 251646,0.1103515625,-0.876953125,0.025146484375,8.567073822021484,-8.658536911010742,-67.95732116699219,-12.0,-7.650000095367432,-10.199999809265137,37.10207748413086,0,
 251656,0.10107421875,-0.878662109375,0.00537109375,7.1646342277526855,-7.652439117431641,-62.65243911743164,-12.600000381469727,-6.599999904632568,-9.300000190734863,37.006229400634766,0,
 251666,0.10205078125,-0.87109375,-0.006591796875,8.170731544494629,-6.402439117431641,-57.80487823486328,-12.0,-7.650000095367432,-9.149999618530273,37.19792175292969,0,
 251676,0.127197265625,-0.9072265625,-0.0068359375,8.719511985778809,-4.72560977935791,-52.65243911743164,-12.0,-7.650000095367432,-9.149999618530273,37.006229400634766,0,
 251686,0.098388671875,-0.9599609375,-0.0126953125,10.762195587158203,-3.262195110321045,-50.51829528808594,-12.0,-7.650000095367432,-10.949999809265137,37.245845794677734,0,
 251696,0.09228515625,-0.975830078125,-0.022705078125,12.835366249084473,-1.3719512224197388,-51.158538818359375,-12.75,-8.850000381469727,-9.149999618530273,37.245845794677734,0,
 251706,0.122314453125,-0.971923828125,-0.007080078125,14.02439022064209,0.7621951103210449,-51.1280517578125,-13.649999618530273,-7.5,-9.0,37.05415344238281,0,
 251716,0.129638671875,-0.950927734375,-0.0009765625,14.664634704589844,2.77439022064209,-49.969512939453125,-13.649999618530273,-7.5,-9.0,37.34169006347656,0,
 251726,0.161865234375,-0.91748046875,0.015380859375,13.62804889678955,4.908536911010742,-47.835365295410156,-12.899999618530273,-9.899999618530273,-9.75,37.05415344238281,0,
 251736,0.170654296875,-0.88623046875,0.03173828125,12.92682933807373,6.7682929039001465,-44.72561264038086,-12.75,-8.399999618530273,-10.949999809265137,37.05415344238281,0,
 251746,0.176025390625,-0.894775390625,0.04443359375,12.37804889678955,6.79878044128418,-41.463417053222656,-14.25,-10.350000381469727,-9.899999618530273,37.245845794677734,0,
 251756,0.186767578125,-0.890869140625,0.060546875,11.463415145874023,7.103658676147461,-37.8658561706543,-13.649999618530273,-9.899999618530273,-10.5,37.245845794677734,0,
 251766,0.198974609375,-0.865234375,0.0830078125,9.268292427062988,6.981707572937012,-33.658538818359375,-13.649999618530273,-9.899999618530273,-10.5,37.10207748413086,0,
 251776,0.222900390625,-0.847900390625,0.105712890625,6.463414669036865,5.762195110321045,-28.5060977935791,-13.050000190734863,-8.100000381469727,-10.199999809265137,37.006229400634766,0,
 251786,0.236328125,-0.82080078125,0.122802734375,5.4268293380737305,4.237804889678955,-22.560976028442383,-13.800000190734863,-10.350000381469727,-11.399999618530273,37.38961410522461,0,
 251796,0.24462890625,-0.778076171875,0.13330078125,5.121951103210449,-2.408536672592163,-6.52439022064209,-12.75,-8.399999618530273,-9.899999618530273,37.34169006347656,0,
 251806,0.247314453125,-0.76171875,0.125,3.7804877758026123,-5.579268455505371,3.841463565826416,-12.75,-8.399999618530273,-9.899999618530273,37.006229400634766,0,
 251816,0.24609375,-0.76220703125,0.098876953125,-2.0731706619262695,-6.128048896789551,15.670732498168945,-14.100000381469727,-7.800000190734863,-11.25,36.86246109008789,0,
 251826,0.2587890625,-0.72705078125,0.083984375,-7.865853786468506,-5.304878234863281,28.079269409179688,-12.75,-11.550000190734863,-10.649999618530273,37.34169006347656,0,
 251836,0.239013671875,-0.752685546875,0.070556640625,-14.512195587158203,-3.841463565826416,39.969512939453125,-12.300000190734863,-10.050000190734863,-10.649999618530273,37.34169006347656,0,
 251846,0.2197265625,-0.708984375,0.05224609375,-23.810976028442383,-1.585365891456604,57.256099700927734,-13.050000190734863,-10.350000381469727,-10.199999809265137,37.19792175292969,0,
 251856,0.26318359375,-0.56787109375,0.0556640625,-38.414634704589844,1.1280487775802612,85.33536529541016,-13.050000190734863,-10.350000381469727,-10.199999809265137,37.245845794677734,0,
 251866,0.3251953125,-0.347900390625,0.077880859375,-56.463417053222656,3.7804877758026123,123.81098175048828,-15.0,-8.399999618530273,-10.949999809265137,37.006229400634766,0,
 251876,0.38525390625,-0.241943359375,0.10009765625,-71.25,5.365853786468506,164.8780517578125,-14.399999618530273,-9.0,-10.5,37.245845794677734,0,
 251886,0.3740234375,-0.2294921875,0.10498046875,-73.78048706054688,2.804877996444702,203.47561645507812,-13.800000190734863,-8.850000381469727,-10.949999809265137,37.245845794677734,0,
 251896,0.2509765625,-0.29638671875,0.060791015625,-66.34146118164062,-3.75,241.64634704589844,-12.899999618530273,-9.0,-9.0,37.245845794677734,0,
 251906,0.1669921875,-1.0712890625,-0.046142578125,-64.84756469726562,-6.829268455505371,276.43292236328125,-12.899999618530273,-9.0,-9.0,37.05415344238281,0,
 251916,-0.125244140625,-7.40966796875,-0.608154296875,-78.14024353027344,28.5060977935791,156.18902587890625,-10.949999809265137,-5.400000095367432,-9.75,36.91038513183594,0,
 251936,-1.21240234375,-0.29150390625,-0.501220703125,-34.42073440551758,11.158536911010742,31.067073822021484,-10.050000190734863,-5.25,-7.949999809265137,37.05415344238281,0,
 251956,0.099365234375,-0.936767578125,-0.053466796875,6.310975551605225,15.091464042663574,16.371952056884766,-9.899999618530273,-5.400000095367432,-8.550000190734863,37.245845794677734,0,
 251966,0.013427734375,-0.9697265625,-0.019775390625,11.12804889678955,6.158536911010742,10.609756469726562,-11.25,-5.25,-8.399999618530273,36.86246109008789,0,
 251976,-0.076904296875,-1.02001953125,-0.01611328125,6.8597564697265625,-4.2682929039001465,5.8231706619262695,-10.5,-6.0,-9.449999809265137,37.19792175292969,0,
 251986,-0.15771484375,-0.9287109375,-0.071533203125,5.243902683258057,-8.384146690368652,-4.5731706619262695,-7.199999809265137,-4.349999904632568,-10.800000190734863,37.34169006347656,0,
 251996,-0.107666015625,-0.956787109375,-0.042236328125,10.12195110321045,-3.7804877758026123,-10.12195110321045,-7.199999809265137,-4.349999904632568,-10.800000190734863,37.05415344238281,0,
 252006,-0.05712890625,-0.99755859375,-0.01904296875,12.37804889678955,-0.792682945728302,-13.20121955871582,-9.899999618530273,-6.300000190734863,-9.75,37.245845794677734,0,
 252016,-0.03662109375,-1.005615234375,-0.01123046875,10.640244483947754,-0.792682945728302,-14.115854263305664,-9.300000190734863,-5.699999809265137,-8.399999618530273,36.86246109008789,0,
 252036,-0.042236328125,-0.990966796875,-0.017822265625,8.32317066192627,-1.3109756708145142,-9.939024925231934,-10.800000190734863,-6.900000095367432,-9.449999809265137,37.245845794677734,0,
 252056,-0.025146484375,-0.988037109375,-0.00830078125,4.847560882568359,-0.6707317233085632,-3.5060975551605225,-9.899999618530273,-5.099999904632568,-6.75,37.245845794677734,0,
 252066,-0.033447265625,-0.985595703125,-0.018798828125,3.841463565826416,-0.4878048896789551,-1.1280487775802612,-10.050000190734863,-5.25,-9.899999618530273,36.86246109008789,0,
 252086,-0.044921875,-0.972412109375,-0.018310546875,2.804877996444702,-0.4268292784690857,1.8902438879013062,-10.199999809265137,-7.050000190734863,-9.300000190734863,37.10207748413086,0,
 252106,-0.05419921875,-0.976318359375,-0.019775390625,2.4390244483947754,-0.5182926654815674,1.097561001777649,-9.449999809265137,-4.349999904632568,-9.0,37.10207748413086,0,
 252116,-0.056396484375,-0.974609375,-0.017333984375,2.896341562271118,-0.21341463923454285,0.15243902802467346,-10.050000190734863,-6.449999809265137,-8.699999809265137,36.86246109008789,0,
 252126,-0.055908203125,-0.977294921875,-0.021728515625,2.865853786468506,0.09146341681480408,-0.792682945728302,-10.5,-5.25,-9.449999809265137,37.245845794677734,0,
 252146,-0.04443359375,-0.984130859375,-0.01708984375,3.1097562313079834,0.6402438879013062,-1.4939024448394775,-10.800000190734863,-8.100000381469727,-9.449999809265137,37.05415344238281,0,
 252166,-0.037353515625,-0.982177734375,-0.015869140625,2.2865853309631348,0.5182926654815674,-0.4573170840740204,-12.600000381469727,-3.9000000953674316,-10.5,37.006229400634766,0,
 252206,-0.052490234375,-0.975341796875,-0.013916015625,1.2804877758026123,0.3353658616542816,0.5487805008888245,-8.550000190734863,-4.949999809265137,-10.199999809265137,37.006229400634766,0,
 252216,-0.0390625,-0.98193359375,-0.009765625,1.6158536672592163,0.3048780560493469,0.3048780560493469,-9.449999809265137,-5.400000095367432,-10.800000190734863,37.245845794677734,0,
 252226,-0.048583984375,-0.972412109375,-0.013671875,1.6768293380737305,0.030487805604934692,0.060975611209869385,-9.449999809265137,-5.400000095367432,-10.800000190734863,37.05415344238281,0,
 252236,-0.041748046875,-0.982177734375,-0.0078125,1.8292683362960815,0.030487805604934692,-0.060975611209869385,-10.5,-5.699999809265137,-9.899999618530273,37.006229400634766,0,
 252246,-0.0478515625,-0.97509765625,-0.008544921875,0.6097561120986938,0.3048780560493469,-0.12195122241973877,-9.899999618530273,-7.050000190734863,-8.550000190734863,37.245845794677734,0,
 252256,-0.043701171875,-0.979736328125,-0.00732421875,0.792682945728302,0.09146341681480408,0.5792682766914368,-9.149999618530273,-5.099999904632568,-9.75,37.006229400634766,0,
 252266,-0.047607421875,-0.981689453125,-0.014404296875,0.396341472864151,0.15243902802467346,0.15243902802467346,-9.899999618530273,-5.400000095367432,-9.300000190734863,37.19792175292969,0,
 252276,-0.043212890625,-0.977783203125,-0.007080078125,0.7317073345184326,0.09146341681480408,0.4268292784690857,-9.899999618530273,-5.400000095367432,-9.300000190734863,37.05415344238281,0,
 252286,-0.047119140625,-0.982666015625,-0.010986328125,0.6707317233085632,0.3353658616542816,0.4268292784690857,-10.949999809265137,-5.099999904632568,-7.800000190734863,37.245845794677734,0,
 252296,-0.050537109375,-0.97607421875,-0.011962890625,0.4878048896789551,0.21341463923454285,0.396341472864151,-11.550000190734863,-6.0,-11.399999618530273,37.245845794677734,0,
 252306,-0.04541015625,-0.975341796875,-0.009765625,0.18292683362960815,0.4878048896789551,0.15243902802467346,-10.649999618530273,-4.650000095367432,-9.0,36.86246109008789,0,
 252316,-0.04736328125,-0.977783203125,-0.005859375,0.21341463923454285,0.18292683362960815,0.3353658616542816,-11.399999618530273,-5.400000095367432,-9.300000190734863,37.10207748413086,0,
 252326,-0.04638671875,-0.982421875,-0.013916015625,0.0,0.5182926654815674,0.3658536672592163,-10.649999618530273,-6.300000190734863,-9.0,37.38961410522461,0,
 252346,-0.04443359375,-0.9814453125,-0.01220703125,-0.3048780560493469,0.3048780560493469,0.24390244483947754,-10.199999809265137,-5.099999904632568,-10.5,36.86246109008789,0,
 252366,-0.045166015625,-0.976318359375,-0.00830078125,-0.8231707215309143,0.4573170840740204,0.09146341681480408,-9.449999809265137,-5.099999904632568,-9.0,37.006229400634766,0,
 252377,-0.046142578125,-0.981201171875,-0.00927734375,-0.9756097793579102,0.21341463923454285,0.3353658616542816,-8.100000381469727,-4.949999809265137,-10.649999618530273,37.006229400634766,0,
 252387,-0.048583984375,-0.98193359375,-0.008056640625,-0.792682945728302,0.24390244483947754,0.15243902802467346,-10.199999809265137,-7.800000190734863,-9.0,37.10207748413086,0,
 252397,-0.0439453125,-0.97607421875,-0.01025390625,-0.9146341681480408,0.5182926654815674,0.24390244483947754,-9.300000190734863,-4.949999809265137,-11.399999618530273,37.006229400634766,0,
 252407,-0.049560546875,-0.981689453125,-0.01220703125,-0.5487805008888245,0.3658536672592163,0.6402438879013062,-9.600000381469727,-6.900000095367432,-10.649999618530273,36.86246109008789,0,
 252437,-0.047119140625,-0.97900390625,-0.01318359375,-0.7317073345184326,0.4268292784690857,0.3658536672592163,-10.649999618530273,-5.099999904632568,-7.800000190734863,37.006229400634766,0,
 252447,-0.047607421875,-0.97705078125,-0.0107421875,-0.27439025044441223,0.24390244483947754,0.4268292784690857,-9.899999618530273,-5.849999904632568,-10.050000190734863,37.34169006347656,0,
 252457,-0.05029296875,-0.980712890625,-0.01171875,-0.7317073345184326,0.24390244483947754,0.060975611209869385,-9.899999618530273,-5.849999904632568,-10.050000190734863,37.05415344238281,0,
 252467,-0.045166015625,-0.974365234375,-0.018310546875,-0.6402438879013062,0.3658536672592163,0.060975611209869385,-10.949999809265137,-5.849999904632568,-9.0,37.19792175292969,0,
 252477,-0.049072265625,-0.97412109375,-0.009765625,-0.5487805008888245,0.12195122241973877,0.3048780560493469,-10.949999809265137,-5.400000095367432,-9.75,37.245845794677734,0,
 252487,-0.040283203125,-0.97802734375,-0.014404296875,-0.6402438879013062,0.4878048896789551,0.21341463923454285,-9.600000381469727,-5.699999809265137,-8.699999809265137,36.91038513183594,0,
 252497,-0.045166015625,-0.97802734375,-0.01123046875,-0.5487805008888245,0.21341463923454285,0.27439025044441223,-10.949999809265137,-4.650000095367432,-10.5,37.245845794677734,0,
 252507,-0.04296875,-0.97900390625,-0.006591796875,-0.5792682766914368,0.3658536672592163,0.3353658616542816,-10.949999809265137,-4.650000095367432,-10.5,36.718692779541016,0,
 252517,-0.046630859375,-0.976806640625,-0.010009765625,-0.5792682766914368,0.24390244483947754,0.24390244483947754,-10.050000190734863,-5.699999809265137,-9.149999618530273,37.34169006347656,0,
 252527,-0.04736328125,-0.976806640625,-0.009765625,-0.21341463923454285,0.18292683362960815,0.27439025044441223,-8.699999809265137,-5.400000095367432,-9.300000190734863,37.245845794677734,0,
 252537,-0.04541015625,-0.9736328125,-0.009765625,-0.4878048896789551,0.5182926654815674,0.3353658616542816,-11.399999618530273,-5.099999904632568,-10.050000190734863,37.245845794677734,0,
 252547,-0.05126953125,-0.977294921875,-0.01171875,-0.6402438879013062,0.4268292784690857,0.060975611209869385,-11.399999618530273,-5.099999904632568,-10.050000190734863,37.34169006347656,0,
 252557,-0.04736328125,-0.98046875,-0.008056640625,-0.4878048896789551,0.27439025044441223,0.3658536672592163,-11.399999618530273,-5.099999904632568,-10.050000190734863,37.006229400634766,0,
 252567,-0.049072265625,-0.97802734375,-0.008056640625,-0.7012194991111755,0.3353658616542816,0.396341472864151,-10.5,-6.0,-8.699999809265137,37.34169006347656,0,
 252577,-0.046630859375,-0.982177734375,-0.008544921875,-0.396341472864151,0.060975611209869385,0.27439025044441223,-10.050000190734863,-4.949999809265137,-8.699999809265137,37.245845794677734,0,
 252597,-0.04443359375,-0.973388671875,-0.010986328125,-0.4268292784690857,0.4573170840740204,0.3658536672592163,-10.050000190734863,-4.949999809265137,-8.699999809265137,37.34169006347656,0,
 252607,-0.041259765625,-0.97119140625,-0.008056640625,-0.4573170840740204,0.12195122241973877,0.4268292784690857,-9.600000381469727,-6.0,-9.149999618530273,37.006229400634766,0,
 252617,-0.048828125,-0.975830078125,-0.01123046875,-0.3353658616542816,0.4573170840740204,0.5487805008888245,-10.649999618530273,-5.099999904632568,-7.800000190734863,37.34169006347656,0,
 252627,-0.0439453125,-0.974853515625,-0.011962890625,-0.18292683362960815,0.21341463923454285,0.0,-9.600000381469727,-5.25,-9.149999618530273,37.34169006347656,0,
 252637,-0.044677734375,-0.97705078125,-0.012939453125,-0.15243902802467346,0.27439025044441223,0.15243902802467346,-9.600000381469727,-5.25,-9.149999618530273,37.19792175292969,0,
 252647,-0.051513671875,-0.97802734375,-0.009033203125,-0.12195122241973877,0.4878048896789551,0.5792682766914368,-9.600000381469727,-5.25,-9.149999618530273,37.19792175292969,0,
 252657,-0.048828125,-0.9794921875,-0.00732421875,-0.4878048896789551,-0.030487805604934692,0.4878048896789551,-10.050000190734863,-6.900000095367432,-9.75,37.10207748413086,0,
 252667,-0.047119140625,-0.978515625,-0.013427734375,-0.030487805604934692,0.3658536672592163,0.09146341681480408,-9.600000381469727,-5.25,-9.149999618530273,37.006229400634766,0,
 252677,-0.048583984375,-0.974365234375,-0.009033203125,-0.3658536672592163,-0.030487805604934692,0.5792682766914368,-11.25,-4.949999809265137,-9.899999618530273,37.05415344238281,0,
 252687,-0.046875,-0.97802734375,-0.0048828125,-0.3353658616542816,0.060975611209869385,0.24390244483947754,-11.25,-4.949999809265137,-9.899999618530273,37.34169006347656,0,
 252697,-0.047607421875,-0.981689453125,-0.011962890625,-0.3353658616542816,0.6707317233085632,0.4268292784690857,-9.600000381469727,-8.100000381469727,-9.899999618530273,37.19792175292969,0,
 252717,-0.044189453125,-0.977294921875,-0.009033203125,-0.27439025044441223,0.27439025044441223,0.21341463923454285,-11.25,-4.5,-8.699999809265137,37.19792175292969,0,
 252727,-0.041015625,-0.97509765625,-0.007568359375,-0.21341463923454285,0.396341472864151,0.4573170840740204,-11.25,-4.5,-8.699999809265137,37.05415344238281,0,
 252737,-0.046142578125,-0.977783203125,-0.0078125,-0.396341472864151,0.3658536672592163,0.4573170840740204,-10.649999618530273,-4.5,-8.699999809265137,37.245845794677734,0,
 252747,-0.05224609375,-0.98291015625,-0.0078125,-0.21341463923454285,0.3353658616542816,0.6097561120986938,-9.449999809265137,-3.9000000953674316,-9.75,36.86246109008789,0,
 252767,-0.046875,-0.977783203125,-0.006591796875,-0.5487805008888245,0.18292683362960815,0.060975611209869385,-10.5,-5.699999809265137,-9.149999618530273,37.245845794677734,0,
 252777,-0.04248046875,-0.97900390625,-0.014892578125,-0.3658536672592163,0.3658536672592163,0.27439025044441223,-10.5,-5.699999809265137,-9.149999618530273,37.19792175292969,0,
 252787,-0.0419921875,-0.978515625,-0.010986328125,-0.3658536672592163,0.060975611209869385,0.3658536672592163,-9.149999618530273,-6.599999904632568,-9.300000190734863,36.91038513183594,0,
 252797,-0.0439453125,-0.97412109375,-0.011962890625,-0.6402438879013062,0.15243902802467346,0.3048780560493469,-10.199999809265137,-5.099999904632568,-12.0,37.006229400634766,0,
 252807,-0.0478515625,-0.9775390625,-0.01123046875,-0.6402438879013062,0.3353658616542816,0.24390244483947754,-9.600000381469727,-5.699999809265137,-8.399999618530273,37.10207748413086,0,
 252817,-0.051025390625,-0.9794921875,-0.012939453125,-0.7621951103210449,0.21341463923454285,0.21341463923454285,-9.899999618530273,-5.400000095367432,-10.5,37.006229400634766,0,
 252827,-0.044189453125,-0.97900390625,-0.011962890625,-0.4573170840740204,0.3048780560493469,0.24390244483947754,-9.899999618530273,-5.400000095367432,-10.5,37.10207748413086,0,
 252837,-0.038818359375,-0.981689453125,-0.01025390625,-0.5182926654815674,0.27439025044441223,0.3658536672592163,-10.199999809265137,-5.400000095367432,-9.300000190734863,37.19792175292969,0,
 252847,-0.043701171875,-0.97705078125,-0.00830078125,-0.3658536672592163,0.12195122241973877,0.3048780560493469,-9.899999618530273,-5.099999904632568,-8.25,36.91038513183594,0,
 252857,-0.043701171875,-0.9775390625,-0.00830078125,-0.5182926654815674,0.4268292784690857,0.27439025044441223,-9.449999809265137,-4.650000095367432,-8.25,37.006229400634766,0,
 252867,-0.0458984375,-0.978515625,-0.0107421875,-0.6402438879013062,0.24390244483947754,0.15243902802467346,-9.449999809265137,-4.650000095367432,-8.25,37.43753433227539,0,
 252877,-0.046630859375,-0.97607421875,-0.0107421875,-0.8841463327407837,0.4878048896789551,0.27439025044441223,-10.800000190734863,-5.699999809265137,-9.449999809265137,37.245845794677734,0,
 252887,-0.04541015625,-0.97412109375,-0.013427734375,-0.4573170840740204,0.27439025044441223,0.18292683362960815,-10.050000190734863,-4.949999809265137,-9.149999618530273,37.245845794677734,0,
 252897,-0.046875,-0.981201171875,-0.01220703125,-0.4268292784690857,0.3658536672592163,0.27439025044441223,-9.899999618530273,-3.9000000953674316,-12.0,37.006229400634766,0,
 252907,-0.039306640625,-0.975341796875,-0.0068359375,-0.12195122241973877,0.4878048896789551,0.3658536672592163,-11.25,-6.0,-9.899999618530273,37.006229400634766,0,
 252917,-0.042724609375,-0.9765625,-0.01318359375,-0.792682945728302,0.5792682766914368,0.3658536672592163,-11.25,-6.0,-9.899999618530273,37.10207748413086,0,
 252987,0.08544921875,-1.083740234375,-0.02783203125,-18.231708526611328,-11.189024925231934,52.74390411376953,-10.649999618530273,-6.300000190734863,-10.050000190734863,36.91038513183594,0,
 253007,-0.063720703125,-1.12890625,-0.06689453125,-19.573171615600586,-5.70121955871582,113.93292999267578,-9.899999618530273,-3.9000000953674316,-10.050000190734863,37.245845794677734,0,
 253017,-0.17724609375,-1.138427734375,-0.110595703125,-17.774391174316406,-0.6097561120986938,146.89024353027344,-8.550000190734863,-6.0,-7.650000095367432,37.05415344238281,0,
 253027,-0.3525390625,-1.14013671875,-0.159912109375,-14.054878234863281,1.8292683362960815,178.6280517578125,-7.800000190734863,-5.25,-9.899999618530273,37.05415344238281,0,
 253037,-0.56494140625,-1.0966796875,-0.189453125,-7.530488014221191,3.1402440071105957,203.99391174316406,-6.75,-4.650000095367432,-9.300000190734863,37.34169006347656,0,
 253047,-0.765869140625,-1.10791015625,-0.2158203125,13.140244483947754,4.2682929039001465,207.7134246826172,-6.0,-4.349999904632568,-9.300000190734863,37.245845794677734,0,
 253057,-0.624267578125,-1.607421875,-0.12548828125,53.44512176513672,11.158536911010742,172.5,-6.0,-4.349999904632568,-9.300000190734863,37.245845794677734,0,
 253067,-0.134765625,-2.6142578125,-0.251220703125,86.55487823486328,16.676830291748047,78.75,-4.349999904632568,-4.050000190734863,-9.899999618530273,37.34169006347656,0,
 253077,-0.020751953125,-2.9189453125,-0.46240234375,59.8780517578125,3.5365853309631348,-52.13414764404297,-4.199999809265137,-3.1500000953674316,-9.300000190734863,37.10207748413086,0,
 253087,-0.28857421875,-2.08544921875,-0.38720703125,-22.83536720275879,-9.908536911010742,-158.78048706054688,-4.5,-4.349999904632568,-10.5,37.10207748413086,0,
 253097,-0.517333984375,-0.8701171875,-0.128173828125,-91.28048706054688,-14.054878234863281,-197.28659057617188,-3.9000000953674316,-5.25,-9.899999618530273,37.05415344238281,0,
 253108,-0.64794921875,0.117431640625,0.12744140625,-99.69512176513672,-10.304878234863281,-183.99391174316406,-3.9000000953674316,-5.25,-9.899999618530273,36.91038513183594,0,
 253118,-0.66064453125,0.411865234375,0.18994140625,-51.85975646972656,3.628048896789551,-148.56707763671875,-6.449999809265137,-8.25,-8.550000190734863,37.245845794677734,0,
 253128,-0.524169921875,-0.01513671875,0.074951171875,10.853658676147461,21.981708526611328,-108.93292999267578,-6.599999904632568,-6.0,-8.399999618530273,36.86246109008789,0,
 253138,-0.349365234375,-0.563720703125,-0.0380859375,38.01829528808594,36.79878234863281,-83.75,-5.400000095367432,-8.399999618530273,-9.449999809265137,37.006229400634766,0,
 253148,-0.195068359375,-0.752685546875,-0.03076171875,26.615854263305664,44.1158561706543,-75.3963394165039,-5.400000095367432,-8.399999618530273,-9.449999809265137,36.91038513183594,0,
 253158,-0.11181640625,-0.65185546875,0.072998046875,-3.4146342277526855,34.57316970825195,-84.8780517578125,-6.75,-8.25,-10.050000190734863,37.34169006347656,0,
 253168,-0.099853515625,-0.4033203125,0.189453125,5.670732021331787,26.73780632019043,-85.94512176513672,-7.050000190734863,-8.100000381469727,-10.949999809265137,37.245845794677734,0,
 253178,-0.102783203125,-0.204345703125,0.248779296875,22.713415145874023,18.658536911010742,-80.79268646240234,-8.699999809265137,-9.899999618530273,-9.300000190734863,37.245845794677734,0,
 253188,-0.09716796875,-0.117919921875,0.2353515625,32.164634704589844,11.067073822021484,-66.85975646972656,-8.850000381469727,-9.600000381469727,-9.899999618530273,37.006229400634766,0,
 253198,-0.11376953125,-0.10888671875,0.173583984375,29.39024543762207,3.5975611209869385,-48.414634704589844,-8.850000381469727,-9.600000381469727,-9.899999618530273,37.05415344238281,0,
 253208,-0.123291015625,-0.12060546875,0.115234375,21.219512939453125,-2.7439024448394775,-30.15243911743164,-7.199999809265137,-9.0,-12.75,37.245845794677734,0,
 253218,-0.10986328125,-0.1025390625,0.098876953125,13.506097793579102,-8.719511985778809,-14.146341323852539,-8.550000190734863,-9.600000381469727,-9.449999809265137,37.10207748413086,0,
 253228,-0.085205078125,-0.0615234375,0.10546875,11.646341323852539,-14.02439022064209,-2.1646342277526855,-9.149999618530273,-8.699999809265137,-11.25,37.34169006347656,0,
 253238,-0.07373046875,-0.031005859375,0.10595703125,15.487805366516113,-16.890243530273438,7.256097793579102,-6.300000190734863,-9.300000190734863,-9.899999618530273,37.05415344238281,0,
 253248,-0.0615234375,-0.029052734375,0.096435546875,17.987804412841797,-18.323171615600586,15.243903160095215,-6.300000190734863,-9.300000190734863,-9.899999618530273,36.814537048339844,0,
 253258,-0.039306640625,-0.05029296875,0.066162109375,17.865854263305664,-19.329269409179688,22.012195587158203,-8.100000381469727,-8.850000381469727,-10.649999618530273,37.245845794677734,0,
 253268,-0.010498046875,-0.062255859375,0.044921875,15.97560977935791,-20.94512176513672,28.35365867614746,-8.850000381469727,-8.850000381469727,-10.649999618530273,37.006229400634766,0,
 253278,0.0263671875,-0.052490234375,0.029541015625,13.87195110321045,-23.93292808532715,36.89024353027344,-7.199999809265137,-6.599999904632568,-10.5,37.19792175292969,0,
 253288,0.033447265625,-0.016357421875,0.0107421875,10.914634704589844,-27.164634704589844,48.68902587890625,-7.199999809265137,-6.599999904632568,-10.5,37.006229400634766,0,
 253308,7.727783203125,-7.999755859375,-6.247802734375,-190.48780822753906,49.48170852661133,-80.48780822753906,-7.949999809265137,-1.5,-12.0,37.38961410522461,0,
 253318,2.538818359375,1.4462890625,0.321044921875,-100.1524429321289,69.26829528808594,-201.37196350097656,-8.100000381469727,-4.5,-7.949999809265137,37.10207748413086,0,
 253328,0.6513671875,0.1533203125,-0.32958984375,-79.7256088256836,-18.689023971557617,40.030487060546875,-8.399999618530273,-4.650000095367432,-9.0,37.19792175292969,0,
 253338,0.14501953125,-0.260986328125,-0.89404296875,6.707317352294922,-12.987805366516113,115.42683410644531,-8.399999618530273,-4.650000095367432,-9.0,36.86246109008789,0,
 253348,0.041748046875,-1.494140625,-0.082275390625,71.95121765136719,3.628048896789551,160.1219482421875,-7.050000190734863,-4.949999809265137,-7.949999809265137,37.006229400634766,0,
 253358,-0.1083984375,-1.440185546875,0.244873046875,63.59756088256836,0.6707317233085632,144.2987823486328,-7.199999809265137,-4.650000095367432,-9.300000190734863,37.34169006347656,0,
 253378,-0.248046875,-1.232421875,0.168701171875,-19.420732498168945,-40.3658561706543,99.84756469726562,-6.449999809265137,-4.349999904632568,-10.050000190734863,37.34169006347656,0,
 253408,-0.39599609375,-0.73974609375,-0.08349609375,-25.39634132385254,-22.98780632019043,60.15243911743164,-3.75,-3.450000047683716,-8.25,37.245845794677734,0,
 253428,-0.3896484375,-0.97900390625,0.04443359375,-5.8231706619262695,16.95121955871582,26.25,-4.949999809265137,-4.349999904632568,-9.0,37.10207748413086,0,
 253438,-0.317138671875,-0.969482421875,0.03515625,-12.957317352294922,22.10365867614746,3.628048896789551,-4.349999904632568,-2.549999952316284,-9.449999809265137,36.814537048339844,0,
 253458,-0.25146484375,-0.862060546875,-0.090087890625,-17.073171615600586,23.90243911743164,-30.731708526611328,-4.199999809265137,-3.450000047683716,-7.5,37.245845794677734,0,
 253488,-0.0390625,-1.005615234375,-0.047119140625,7.317073345184326,20.54878044128418,-47.43902587890625,-5.099999904632568,-3.75,-8.399999618530273,37.05415344238281,0,
 253498,-0.020751953125,-1.0185546875,-0.042724609375,6.981707572937012,13.75,-44.5121955871582,-3.75,-3.1500000953674316,-9.300000190734863,37.245845794677734,0,
 253518,-0.02197265625,-0.987060546875,-0.042236328125,8.414634704589844,2.195122003555298,-32.04268264770508,-3.9000000953674316,-3.299999952316284,-8.399999618530273,37.10207748413086,0,
 253538,-0.052001953125,-1.005126953125,-0.014892578125,9.207317352294922,-2.682926893234253,-16.219512939453125,-5.699999809265137,-4.650000095367432,-9.300000190734863,37.006229400634766,0,
 253548,-0.0771484375,-1.008056640625,-0.003173828125,6.7682929039001465,-3.628048896789551,-9.756097793579102,-4.650000095367432,-2.8499999046325684,-9.899999618530273,37.245845794677734,0,
 253558,-0.083984375,-1.006103515625,0.0029296875,3.353658676147461,-2.7134146690368652,-4.6646342277526855,-6.449999809265137,-3.9000000953674316,-9.0,37.43753433227539,0,
 253568,-0.088623046875,-1.00048828125,-0.002197265625,0.5487805008888245,-1.402438998222351,-0.4573170840740204,-6.449999809265137,-3.9000000953674316,-9.0,36.718692779541016,0,
 253588,-0.082763671875,-0.995361328125,-0.0107421875,-5.27439022064209,-0.030487805604934692,5.70121955871582,-6.0,-3.450000047683716,-10.050000190734863,37.245845794677734,0,
 253598,-0.06494140625,-0.999755859375,-0.008056640625,-7.804878234863281,-0.12195122241973877,8.109756469726562,-5.400000095367432,-2.8499999046325684,-10.949999809265137,37.10207748413086,0,
 253628,-0.003662109375,-1.053955078125,0.004638671875,-28.170732498168945,-9.664634704589844,52.3780517578125,-5.400000095367432,-3.75,-9.149999618530273,36.91038513183594,0,
 253658,-0.067138671875,-1.11669921875,-0.007080078125,-36.92073440551758,2.408536672592163,118.9024429321289,-3.299999952316284,-4.650000095367432,-8.25,37.006229400634766,0,
 253668,-0.07275390625,-1.124267578125,-0.01953125,-39.39024353027344,5.670732021331787,143.78048706054688,-4.5,-3.450000047683716,-8.25,37.245845794677734,0,
 253678,-0.107421875,-1.0986328125,-0.0361328125,-40.853660583496094,9.756097793579102,167.31707763671875,-3.5999999046325684,-3.75,-7.650000095367432,37.006229400634766,0,
 253688,-0.15673828125,-1.076171875,-0.053955078125,-40.060977935791016,13.963415145874023,188.29269409179688,-1.5,-3.1500000953674316,-7.5,37.10207748413086,0,
 253698,-0.231689453125,-1.02197265625,-0.085693359375,-36.158538818359375,17.80487823486328,206.76829528808594,-2.25,-3.450000047683716,-7.050000190734863,37.05415344238281,0,
