timestamp,accl_x,accl_y,accl_z,gyro_x,gyro_y,gyro_z,mag_x,mag_y,mag_z,temp,emg,
 197910,-0.039306640625,-0.981689453125,-0.008056640625,-0.4573170840740204,0.27439025044441223,0.030487805604934692,-11.399999618530273,-5.400000095367432,-8.25,37.006229400634766,0,
 197920,-0.044189453125,-0.978271484375,-0.00830078125,-0.27439025044441223,0.27439025044441223,0.27439025044441223,-10.649999618530273,-8.25,-10.5,37.19792175292969,0,
 197930,-0.04052734375,-0.979248046875,-0.006591796875,-0.4268292784690857,0.12195122241973877,0.4573170840740204,-11.550000190734863,-6.449999809265137,-7.650000095367432,36.86246109008789,0,
 197940,-0.0419921875,-0.97314453125,-0.013671875,-0.3658536672592163,0.18292683362960815,0.4573170840740204,-10.800000190734863,-8.399999618530273,-8.699999809265137,37.10207748413086,0,
 197950,-0.03857421875,-0.981201171875,-0.013427734375,-0.24390244483947754,0.18292683362960815,0.3658536672592163,-10.800000190734863,-8.399999618530273,-8.699999809265137,37.006229400634766,0,
 197960,-0.043212890625,-0.9794921875,-0.01123046875,-0.396341472864151,0.396341472864151,0.15243902802467346,-12.149999618530273,-5.099999904632568,-6.300000190734863,37.10207748413086,0,
 197970,-0.03759765625,-0.981689453125,-0.010986328125,-0.7317073345184326,0.4268292784690857,0.3048780560493469,-11.25,-6.900000095367432,-8.699999809265137,36.91038513183594,0,
 197980,-0.041259765625,-0.98046875,-0.010498046875,-0.396341472864151,0.27439025044441223,0.5487805008888245,-12.300000190734863,-7.650000095367432,-7.949999809265137,36.814537048339844,0,
 197991,-0.04296875,-0.978515625,-0.007080078125,-0.6402438879013062,0.21341463923454285,0.27439025044441223,-12.899999618530273,-5.400000095367432,-8.25,37.006229400634766,0,
 198001,-0.038330078125,-0.979736328125,-0.010498046875,-0.396341472864151,0.18292683362960815,0.060975611209869385,-12.899999618530273,-5.400000095367432,-8.25,36.86246109008789,0,
 198011,-0.04052734375,-0.970947265625,-0.004150390625,-0.5792682766914368,0.27439025044441223,0.6707317233085632,-11.699999809265137,-7.050000190734863,-8.550000190734863,37.006229400634766,0,
 198021,-0.041748046875,-0.978515625,-0.009521484375,-0.4878048896789551,0.3658536672592163,0.3353658616542816,-9.600000381469727,-6.900000095367432,-11.399999618530273,37.10207748413086,0,
 198031,-0.04248046875,-0.97607421875,-0.010498046875,-0.5487805008888245,0.12195122241973877,0.15243902802467346,-11.25,-6.449999809265137,-7.199999809265137,36.814537048339844,0,
 198051,-0.041015625,-0.977783203125,-0.0087890625,-0.4573170840740204,0.27439025044441223,0.3048780560493469,-10.800000190734863,-6.449999809265137,-7.949999809265137,37.006229400634766,0,
 198141,-0.04248046875,-0.980224609375,-0.00732421875,-0.6097561120986938,0.12195122241973877,0.0,-12.600000381469727,-5.849999904632568,-7.800000190734863,37.006229400634766,0,
 198151,-0.044189453125,-0.977294921875,-0.005859375,-0.24390244483947754,0.27439025044441223,0.12195122241973877,-11.399999618530273,-5.400000095367432,-8.550000190734863,36.86246109008789,0,
 198161,-0.0390625,-0.97705078125,-0.004638671875,-0.7317073345184326,0.18292683362960815,0.396341472864151,-10.649999618530273,-6.300000190734863,-7.5,37.245845794677734,0,
 198191,-0.041748046875,-0.9775390625,-0.005859375,-0.24390244483947754,0.15243902802467346,-0.030487805604934692,-10.800000190734863,-6.449999809265137,-7.199999809265137,37.006229400634766,0,
 198201,-0.044189453125,-0.976318359375,-0.00439453125,-0.5792682766914368,0.21341463923454285,0.18292683362960815,-12.300000190734863,-6.449999809265137,-8.399999618530273,37.10207748413086,0,
 198211,-0.040771484375,-0.9794921875,-0.009521484375,-0.8231707215309143,0.21341463923454285,0.24390244483947754,-10.949999809265137,-6.300000190734863,-7.5,36.814537048339844,0,
 198251,-0.04296875,-0.984130859375,-0.005859375,-0.6707317233085632,0.030487805604934692,0.3658536672592163,-13.050000190734863,-5.25,-7.650000095367432,37.006229400634766,0,
 198271,-0.03857421875,-0.9765625,-0.009033203125,-0.6402438879013062,0.4268292784690857,0.030487805604934692,-10.199999809265137,-7.800000190734863,-6.75,36.814537048339844,0,
 198281,-0.0478515625,-0.9794921875,-0.0048828125,-0.396341472864151,0.4268292784690857,0.3353658616542816,-10.199999809265137,-7.800000190734863,-6.75,36.718692779541016,0,
 198291,-0.041259765625,-0.9814453125,-0.0068359375,-0.5792682766914368,0.060975611209869385,0.030487805604934692,-11.550000190734863,-7.650000095367432,-7.650000095367432,36.91038513183594,0,
 198301,-0.04833984375,-0.973388671875,-0.01025390625,-0.7317073345184326,0.5182926654815674,0.3048780560493469,-11.25,-6.900000095367432,-8.399999618530273,37.006229400634766,0,
 198331,-0.044189453125,-0.980224609375,-0.00732421875,-0.4268292784690857,0.3048780560493469,0.12195122241973877,-10.5,-7.199999809265137,-11.699999809265137,36.814537048339844,0,
 198341,-0.040283203125,-0.975830078125,-0.003662109375,-0.396341472864151,0.21341463923454285,0.3048780560493469,-10.5,-6.0,-7.949999809265137,36.91038513183594,0,
 198351,-0.0419921875,-0.974853515625,-0.01171875,-0.4268292784690857,0.12195122241973877,0.27439025044441223,-12.300000190734863,-5.25,-8.399999618530273,37.006229400634766,0,
 198371,-0.048583984375,-0.979736328125,-0.00732421875,-0.18292683362960815,0.5182926654815674,0.27439025044441223,-11.699999809265137,-6.300000190734863,-6.75,37.006229400634766,0,
 198431,-0.041748046875,-0.97705078125,-0.011474609375,-0.7621951103210449,0.3048780560493469,0.0,-10.199999809265137,-5.099999904632568,-9.300000190734863,36.86246109008789,0,
 198441,-0.038330078125,-0.974853515625,-0.007080078125,-0.4268292784690857,0.3658536672592163,0.3658536672592163,-11.550000190734863,-6.449999809265137,-9.149999618530273,36.91038513183594,0,
 198451,-0.041015625,-0.974365234375,-0.006103515625,-0.4878048896789551,0.18292683362960815,0.18292683362960815,-10.5,-6.449999809265137,-8.699999809265137,37.19792175292969,0,
 198461,-0.03857421875,-0.97265625,-0.008544921875,-0.7317073345184326,0.18292683362960815,0.18292683362960815,-11.399999618530273,-5.400000095367432,-8.25,36.86246109008789,0,
 198471,-0.042724609375,-0.97607421875,-0.01025390625,-0.18292683362960815,0.24390244483947754,0.3658536672592163,-11.399999618530273,-5.400000095367432,-8.25,36.814537048339844,0,
 198481,-0.0439453125,-0.97705078125,-0.010009765625,-0.24390244483947754,0.3353658616542816,0.5182926654815674,-11.25,-7.199999809265137,-7.199999809265137,37.05415344238281,0,
 198491,-0.04345703125,-0.98046875,-0.007080078125,-0.27439025044441223,0.09146341681480408,0.0,-11.550000190734863,-5.25,-7.199999809265137,37.006229400634766,0,
 198501,-0.044189453125,-0.980712890625,-0.007080078125,-0.3353658616542816,0.18292683362960815,0.060975611209869385,-9.899999618530273,-7.050000190734863,-7.800000190734863,37.006229400634766,0,
 198511,-0.04052734375,-0.977294921875,-0.010986328125,-0.6097561120986938,0.27439025044441223,0.18292683362960815,-9.899999618530273,-7.050000190734863,-7.800000190734863,37.05415344238281,0,
 198531,-0.047119140625,-0.9765625,-0.007080078125,-0.3048780560493469,0.3658536672592163,0.09146341681480408,-12.300000190734863,-4.949999809265137,-7.949999809265137,36.814537048339844,0,
 198541,-0.043212890625,-0.976806640625,-0.00244140625,-0.3048780560493469,0.3353658616542816,0.3048780560493469,-10.649999618530273,-6.300000190734863,-9.75,37.006229400634766,0,
 198551,-0.039306640625,-0.975830078125,-0.00732421875,-0.792682945728302,0.18292683362960815,-0.030487805604934692,-10.800000190734863,-6.0,-8.399999618530273,37.006229400634766,0,
 198561,-0.037353515625,-0.980224609375,-0.00537109375,-0.396341472864151,0.4878048896789551,0.21341463923454285,-10.800000190734863,-6.0,-8.399999618530273,36.91038513183594,0,
 198571,-0.043701171875,-0.978271484375,-0.005859375,-0.3353658616542816,0.3353658616542816,0.030487805604934692,-12.0,-7.650000095367432,-8.699999809265137,36.718692779541016,0,
 198581,-0.039794921875,-0.981689453125,-0.007080078125,-0.396341472864151,0.4573170840740204,0.060975611209869385,-10.800000190734863,-8.100000381469727,-7.199999809265137,37.10207748413086,0,
 198591,-0.04150390625,-0.9765625,-0.0068359375,-0.6707317233085632,0.396341472864151,0.4268292784690857,-10.800000190734863,-6.449999809265137,-7.199999809265137,36.814537048339844,0,
 198601,-0.0390625,-0.970947265625,-0.01171875,-0.4878048896789551,0.5182926654815674,0.3353658616542816,-12.0,-6.449999809265137,-6.900000095367432,37.10207748413086,0,
 198621,-0.0419921875,-0.97705078125,-0.008056640625,-0.6707317233085632,0.09146341681480408,0.3658536672592163,-10.050000190734863,-6.0,-7.650000095367432,36.67076873779297,0,
 198631,-0.03857421875,-0.979248046875,-0.00390625,-0.7621951103210449,0.15243902802467346,0.27439025044441223,-12.0,-6.900000095367432,-6.900000095367432,37.05415344238281,0,
 198641,-0.041259765625,-0.979736328125,-0.00390625,-0.27439025044441223,0.4268292784690857,0.5182926654815674,-10.800000190734863,-5.699999809265137,-7.650000095367432,36.86246109008789,0,
 198651,-0.04052734375,-0.97607421875,-0.004638671875,-0.8841463327407837,0.4573170840740204,0.3658536672592163,-10.800000190734863,-5.699999809265137,-7.650000095367432,37.006229400634766,0,
 198661,-0.041748046875,-0.977783203125,-0.0107421875,-0.396341472864151,0.21341463923454285,0.4878048896789551,-11.699999809265137,-7.5,-8.25,37.006229400634766,0,
 198671,-0.044921875,-0.974609375,-0.006591796875,-0.3353658616542816,0.12195122241973877,0.27439025044441223,-12.0,-6.0,-6.449999809265137,36.91038513183594,0,
 198681,-0.0400390625,-0.9736328125,-0.00537109375,-0.18292683362960815,0.21341463923454285,0.09146341681480408,-11.699999809265137,-5.099999904632568,-7.5,36.86246109008789,0,
 198691,-0.04248046875,-0.9775390625,-0.01025390625,-0.3353658616542816,0.4573170840740204,0.27439025044441223,-10.199999809265137,-7.5,-7.5,37.006229400634766,0,
 198701,-0.047119140625,-0.97509765625,-0.006103515625,-0.6707317233085632,0.3048780560493469,0.030487805604934692,-10.199999809265137,-7.5,-7.5,37.006229400634766,0,
 198711,-0.0458984375,-0.97265625,-0.0087890625,-0.18292683362960815,0.3658536672592163,0.3658536672592163,-11.399999618530273,-6.300000190734863,-7.800000190734863,37.006229400634766,0,
 198721,-0.046875,-0.97705078125,-0.005859375,-0.6402438879013062,0.27439025044441223,0.24390244483947754,-12.0,-6.449999809265137,-6.900000095367432,36.814537048339844,0,
 198731,-0.04345703125,-0.97314453125,-0.006591796875,-0.4878048896789551,0.3048780560493469,0.12195122241973877,-9.899999618530273,-6.599999904632568,-8.550000190734863,37.006229400634766,0,
 198741,-0.049072265625,-0.977783203125,-0.00927734375,-0.4573170840740204,0.27439025044441223,0.21341463923454285,-11.25,-7.199999809265137,-12.149999618530273,36.91038513183594,0,
 198761,-0.040283203125,-0.97412109375,-0.0068359375,-0.4878048896789551,0.4573170840740204,0.15243902802467346,-9.449999809265137,-6.300000190734863,-8.25,37.006229400634766,0,
 198771,-0.0439453125,-0.978759765625,-0.006103515625,-0.5792682766914368,0.0,0.21341463923454285,-9.600000381469727,-6.449999809265137,-7.199999809265137,36.67076873779297,0,
 198782,-0.041259765625,-0.977783203125,-0.00390625,-0.5792682766914368,0.09146341681480408,0.030487805604934692,-11.550000190734863,-6.900000095367432,-7.949999809265137,37.006229400634766,0,
 198792,-0.047119140625,-0.971923828125,-0.009033203125,-0.5182926654815674,0.4573170840740204,0.3048780560493469,-11.550000190734863,-6.900000095367432,-7.949999809265137,36.91038513183594,0,
 198802,-0.033447265625,-0.97705078125,-0.010009765625,-0.5487805008888245,0.24390244483947754,0.4573170840740204,-10.649999618530273,-6.599999904632568,-7.5,36.814537048339844,0,
 198812,-0.04736328125,-0.98046875,-0.01220703125,-0.5792682766914368,0.3353658616542816,0.4268292784690857,-11.699999809265137,-7.800000190734863,-9.0,37.006229400634766,0,
 198822,-0.0439453125,-0.978271484375,-0.006103515625,-0.3048780560493469,0.27439025044441223,0.3353658616542816,-10.949999809265137,-7.5,-8.25,36.814537048339844,0,
 198832,-0.046875,-0.976806640625,-0.0078125,-0.792682945728302,0.24390244483947754,0.3658536672592163,-11.550000190734863,-6.900000095367432,-8.399999618530273,37.006229400634766,0,
 198852,-0.039306640625,-0.97509765625,-0.010986328125,-0.9756097793579102,0.18292683362960815,0.3658536672592163,-10.199999809265137,-6.599999904632568,-9.300000190734863,36.86246109008789,0,
 198862,-0.042236328125,-0.9775390625,-0.012451171875,-0.8536585569381714,0.21341463923454285,0.3353658616542816,-10.649999618530273,-5.099999904632568,-7.800000190734863,37.006229400634766,0,
 198872,-0.041259765625,-0.979736328125,-0.010986328125,-0.4573170840740204,0.4573170840740204,0.24390244483947754,-11.699999809265137,-6.599999904632568,-7.800000190734863,36.86246109008789,0,
 198882,-0.03857421875,-0.97802734375,-0.00537109375,-0.3048780560493469,0.21341463923454285,0.24390244483947754,-10.949999809265137,-4.650000095367432,-8.25,37.245845794677734,0,
 198892,-0.04150390625,-0.980224609375,-0.00634765625,-0.3658536672592163,0.09146341681480408,0.15243902802467346,-10.949999809265137,-4.650000095367432,-8.25,37.006229400634766,0,
 198902,-0.04052734375,-0.975830078125,-0.0029296875,-0.5182926654815674,0.3048780560493469,0.21341463923454285,-10.949999809265137,-5.849999904632568,-6.300000190734863,37.006229400634766,0,
 198922,-0.042724609375,-0.976318359375,-0.0146484375,-0.5487805008888245,0.15243902802467346,0.12195122241973877,-10.949999809265137,-5.849999904632568,-7.5,37.05415344238281,0,
 198932,-0.044921875,-0.976806640625,-0.010498046875,-0.21341463923454285,0.24390244483947754,0.12195122241973877,-10.949999809265137,-5.849999904632568,-7.5,36.86246109008789,0,
 198942,-0.049072265625,-0.9794921875,-0.007080078125,-0.4573170840740204,0.27439025044441223,0.09146341681480408,-12.75,-4.949999809265137,-8.699999809265137,37.006229400634766,0,
 198952,-0.039794921875,-0.974853515625,-0.013671875,-0.396341472864151,0.5792682766914368,0.21341463923454285,-10.5,-6.900000095367432,-8.399999618530273,37.19792175292969,0,
 198962,-0.038818359375,-0.97705078125,-0.01025390625,-0.396341472864151,0.5792682766914368,0.12195122241973877,-10.800000190734863,-6.449999809265137,-7.800000190734863,36.814537048339844,0,
 198972,-0.047119140625,-0.97314453125,-0.00634765625,-0.3353658616542816,0.27439025044441223,0.12195122241973877,-10.800000190734863,-6.449999809265137,-7.650000095367432,36.86246109008789,0,
 198982,-0.042724609375,-0.97900390625,-0.009033203125,-0.4573170840740204,0.18292683362960815,0.24390244483947754,-10.800000190734863,-6.449999809265137,-7.650000095367432,37.05415344238281,0,
 198992,-0.038330078125,-0.97607421875,-0.00634765625,-0.7012194991111755,0.15243902802467346,0.24390244483947754,-11.25,-7.650000095367432,-7.949999809265137,36.91038513183594,0,
 199002,-0.041259765625,-0.9736328125,-0.01171875,-0.6707317233085632,0.27439025044441223,0.24390244483947754,-12.149999618530273,-6.599999904632568,-7.800000190734863,37.006229400634766,0,
 199012,-0.0380859375,-0.980712890625,-0.01025390625,-0.5487805008888245,-0.060975611209869385,0.18292683362960815,-12.300000190734863,-4.949999809265137,-7.199999809265137,36.718692779541016,0,
 199022,-0.03955078125,-0.981201171875,-0.008056640625,-0.5792682766914368,0.3048780560493469,0.24390244483947754,-12.300000190734863,-4.949999809265137,-7.199999809265137,36.814537048339844,0,
 199032,-0.044189453125,-0.9794921875,-0.008544921875,-0.4878048896789551,0.030487805604934692,0.27439025044441223,-12.300000190734863,-4.949999809265137,-7.199999809265137,36.86246109008789,0,
 199042,-0.043212890625,-0.97998046875,-0.01171875,-0.8231707215309143,0.09146341681480408,0.21341463923454285,-10.800000190734863,-6.599999904632568,-7.800000190734863,37.006229400634766,0,
 199052,-0.047607421875,-0.982421875,-0.0078125,-0.4573170840740204,0.3048780560493469,0.15243902802467346,-12.0,-6.449999809265137,-8.399999618530273,36.86246109008789,0,
 199062,-0.045166015625,-0.976318359375,-0.008544921875,-0.5487805008888245,0.4573170840740204,0.21341463923454285,-12.0,-6.449999809265137,-8.399999618530273,36.814537048339844,0,
 199072,-0.04296875,-0.974609375,-0.004638671875,-0.3048780560493469,0.5182926654815674,0.0,-12.0,-6.449999809265137,-8.399999618530273,37.006229400634766,0,
 199082,-0.044189453125,-0.9755859375,-0.009765625,-0.5487805008888245,0.21341463923454285,0.15243902802467346,-12.75,-7.199999809265137,-7.949999809265137,37.245845794677734,0,
 199092,-0.04052734375,-0.97607421875,-0.0087890625,-0.4268292784690857,0.27439025044441223,0.27439025044441223,-11.399999618530273,-6.599999904632568,-7.050000190734863,36.814537048339844,0,
 199102,-0.0439453125,-0.978759765625,-0.01025390625,-0.21341463923454285,0.09146341681480408,0.396341472864151,-11.399999618530273,-5.099999904632568,-8.550000190734863,37.05415344238281,0,
 199112,-0.040283203125,-0.97900390625,-0.00830078125,-0.4573170840740204,0.4268292784690857,0.21341463923454285,-11.399999618530273,-5.099999904632568,-8.550000190734863,36.718692779541016,0,
 199122,-0.0439453125,-0.97900390625,-0.005859375,-0.3048780560493469,0.3658536672592163,-0.030487805604934692,-11.399999618530273,-5.099999904632568,-8.550000190734863,36.86246109008789,0,
 199142,-0.0380859375,-0.979736328125,-0.01318359375,-0.3353658616542816,0.3048780560493469,0.4878048896789551,-11.399999618530273,-8.699999809265137,-11.25,36.91038513183594,0,
 199152,-0.042236328125,-0.98095703125,-0.007080078125,-0.4573170840740204,0.030487805604934692,0.3048780560493469,-12.600000381469727,-7.050000190734863,-8.25,37.006229400634766,0,
 199162,-0.04296875,-0.977783203125,-0.010498046875,-0.3353658616542816,0.18292683362960815,0.0,-12.600000381469727,-7.050000190734863,-8.25,37.006229400634766,0,
 199172,-0.04150390625,-0.9736328125,-0.00732421875,-0.6707317233085632,0.4573170840740204,0.15243902802467346,-12.0,-7.199999809265137,-8.699999809265137,36.86246109008789,0,
 199182,-0.044189453125,-0.976806640625,-0.00634765625,-0.15243902802467346,0.3048780560493469,0.4268292784690857,-11.399999618530273,-7.050000190734863,-7.800000190734863,37.05415344238281,0,
 199192,-0.0478515625,-0.97998046875,-0.0146484375,-0.27439025044441223,0.3353658616542816,0.5792682766914368,-12.300000190734863,-5.699999809265137,-6.449999809265137,37.05415344238281,0,
 199202,-0.042236328125,-0.975830078125,-0.010986328125,-0.3353658616542816,0.3048780560493469,0.060975611209869385,-12.300000190734863,-5.699999809265137,-6.449999809265137,36.91038513183594,0,
 199212,-0.040283203125,-0.978271484375,-0.008544921875,-0.3353658616542816,0.3658536672592163,0.4268292784690857,-11.399999618530273,-5.849999904632568,-6.449999809265137,36.718692779541016,0,
 199222,-0.04345703125,-0.979248046875,-0.010498046875,-0.8231707215309143,0.3048780560493469,0.27439025044441223,-10.949999809265137,-7.5,-7.050000190734863,37.10207748413086,0,
 199232,-0.04150390625,-0.980224609375,-0.009521484375,-0.5792682766914368,0.4268292784690857,0.09146341681480408,-11.550000190734863,-7.650000095367432,-6.900000095367432,36.91038513183594,0,
 199242,-0.040771484375,-0.9736328125,-0.007568359375,-0.6097561120986938,0.4573170840740204,0.27439025044441223,-9.300000190734863,-4.949999809265137,-9.899999618530273,37.006229400634766,0,
 199252,-0.045166015625,-0.97900390625,-0.009521484375,0.060975611209869385,0.396341472864151,0.396341472864151,-9.300000190734863,-4.949999809265137,-9.899999618530273,37.006229400634766,0,
 199262,-0.045166015625,-0.9755859375,-0.007568359375,-0.21341463923454285,0.27439025044441223,0.12195122241973877,-10.949999809265137,-6.599999904632568,-7.800000190734863,36.91038513183594,0,
 199282,-0.046630859375,-0.9814453125,-0.004638671875,-0.4878048896789551,0.15243902802467346,0.3048780560493469,-10.949999809265137,-6.599999904632568,-9.300000190734863,37.19792175292969,0,
 199302,-0.0400390625,-0.98095703125,-0.007568359375,-0.5487805008888245,0.4878048896789551,0.396341472864151,-12.300000190734863,-5.699999809265137,-8.399999618530273,37.006229400634766,0,
 199322,-0.039794921875,-0.978515625,-0.006591796875,-0.3048780560493469,0.24390244483947754,0.030487805604934692,-10.5,-6.900000095367432,-6.449999809265137,36.91038513183594,0,
 199342,-0.047119140625,-0.976806640625,-0.009033203125,-0.5792682766914368,0.3048780560493469,0.27439025044441223,-10.050000190734863,-6.0,-8.399999618530273,36.91038513183594,0,
 199352,-0.039794921875,-0.982421875,-0.00927734375,-0.5182926654815674,0.060975611209869385,0.4268292784690857,-10.199999809265137,-8.25,-9.0,36.86246109008789,0,
 199372,-0.04052734375,-0.976806640625,-0.013427734375,-0.5182926654815674,0.18292683362960815,0.18292683362960815,-11.699999809265137,-7.5,-7.5,37.10207748413086,0,
 199382,-0.043212890625,-0.98193359375,-0.00732421875,-0.5792682766914368,0.3353658616542816,0.3658536672592163,-11.25,-6.900000095367432,-7.650000095367432,37.006229400634766,0,
 199392,-0.0419921875,-0.977783203125,-0.0107421875,-0.7621951103210449,0.18292683362960815,0.3658536672592163,-11.25,-6.900000095367432,-7.650000095367432,37.006229400634766,0,
 199402,-0.044189453125,-0.973388671875,-0.00244140625,-0.5487805008888245,0.09146341681480408,0.5487805008888245,-9.600000381469727,-6.0,-6.449999809265137,37.006229400634766,0,
 199422,-0.04150390625,-0.981201171875,-0.011962890625,-0.5487805008888245,0.21341463923454285,0.3658536672592163,-10.5,-6.0,-6.900000095367432,37.10207748413086,0,
 199442,-0.043212890625,-0.9775390625,-0.00341796875,-0.3353658616542816,0.18292683362960815,-0.060975611209869385,-11.699999809265137,-5.400000095367432,-8.25,36.86246109008789,0,
 199452,-0.04638671875,-0.97021484375,-0.009521484375,-0.5487805008888245,0.3658536672592163,0.3048780560493469,-10.949999809265137,-6.599999904632568,-9.300000190734863,36.814537048339844,0,
 199462,-0.041748046875,-0.98095703125,-0.00830078125,-0.6402438879013062,0.3353658616542816,0.4878048896789551,-10.949999809265137,-6.300000190734863,-7.5,36.91038513183594,0,
 199472,-0.044921875,-0.97607421875,-0.01220703125,-0.4878048896789551,0.3353658616542816,0.24390244483947754,-10.949999809265137,-4.650000095367432,-9.300000190734863,37.006229400634766,0,
 199482,-0.04150390625,-0.98193359375,-0.006591796875,-0.24390244483947754,0.24390244483947754,0.4573170840740204,-10.949999809265137,-4.650000095367432,-9.300000190734863,37.006229400634766,0,
 199492,-0.042724609375,-0.979248046875,-0.0068359375,-0.5487805008888245,0.4573170840740204,0.3048780560493469,-11.25,-6.900000095367432,-6.900000095367432,37.006229400634766,0,
 199502,-0.0400390625,-0.96875,-0.012451171875,-0.5487805008888245,0.3048780560493469,0.0,-12.300000190734863,-7.199999809265137,-8.699999809265137,36.67076873779297,0,
 199512,-0.046630859375,-0.9755859375,-0.012451171875,-0.396341472864151,0.15243902802467346,0.15243902802467346,-11.25,-8.100000381469727,-6.900000095367432,37.05415344238281,0,
 199523,-0.039794921875,-0.97265625,-0.0087890625,-0.3658536672592163,0.21341463923454285,0.18292683362960815,-10.5,-8.399999618530273,-7.949999809265137,37.006229400634766,0,
 199533,-0.0439453125,-0.981689453125,-0.0087890625,-0.4268292784690857,0.0,0.3048780560493469,-10.5,-8.399999618530273,-7.949999809265137,37.006229400634766,0,
 199543,-0.041015625,-0.982666015625,-0.01025390625,-0.6097561120986938,0.6402438879013062,0.3353658616542816,-11.699999809265137,-8.25,-9.0,37.006229400634766,0,
 199553,-0.04345703125,-0.979248046875,-0.005615234375,-0.3658536672592163,0.27439025044441223,0.21341463923454285,-11.699999809265137,-9.449999809265137,-8.550000190734863,36.86246109008789,0,
 199583,-0.045654296875,-0.982421875,-0.01513671875,-0.6402438879013062,0.12195122241973877,0.3658536672592163,-11.699999809265137,-6.300000190734863,-9.0,36.86246109008789,0,
 199593,-0.04443359375,-0.98095703125,-0.0087890625,-0.4878048896789551,0.4268292784690857,0.4878048896789551,-12.300000190734863,-6.449999809265137,-8.399999618530273,36.91038513183594,0,
 199603,-0.03759765625,-0.97607421875,-0.009033203125,-0.396341472864151,0.24390244483947754,0.0,-11.699999809265137,-8.25,-6.75,36.814537048339844,0,
 199613,-0.046142578125,-0.975341796875,-0.00634765625,-0.5182926654815674,0.27439025044441223,0.396341472864151,-10.800000190734863,-6.449999809265137,-7.650000095367432,36.718692779541016,0,
 199623,-0.0439453125,-0.973388671875,-0.008544921875,-0.4878048896789551,0.3658536672592163,0.21341463923454285,-10.800000190734863,-6.449999809265137,-7.650000095367432,36.86246109008789,0,
 199643,-0.040771484375,-0.976806640625,-0.011962890625,-0.4268292784690857,0.27439025044441223,0.396341472864151,-10.949999809265137,-6.300000190734863,-8.25,37.006229400634766,0,
 199653,-0.044189453125,-0.974365234375,-0.00732421875,-0.396341472864151,0.18292683362960815,0.24390244483947754,-8.850000381469727,-5.699999809265137,-9.899999618530273,36.718692779541016,0,
 199673,-0.03857421875,-0.973388671875,-0.0068359375,-0.7012194991111755,0.27439025044441223,0.060975611209869385,-11.550000190734863,-6.449999809265137,-7.949999809265137,37.006229400634766,0,
 199693,-0.04638671875,-0.979248046875,-0.00146484375,-0.3353658616542816,0.21341463923454285,0.4573170840740204,-10.050000190734863,-4.949999809265137,-7.650000095367432,37.10207748413086,0,
 199763,-0.048828125,-0.975830078125,-0.00537109375,-0.6402438879013062,-0.030487805604934692,0.24390244483947754,-11.25,-6.0,-9.449999809265137,36.67076873779297,0,
 199773,-0.041259765625,-0.98046875,-0.011474609375,-0.4573170840740204,0.4878048896789551,0.15243902802467346,-10.649999618530273,-6.300000190734863,-8.25,36.91038513183594,0,
 199783,-0.0400390625,-0.972412109375,-0.009765625,-0.21341463923454285,0.3353658616542816,0.3658536672592163,-10.949999809265137,-8.25,-8.550000190734863,37.006229400634766,0,
 199793,-0.042724609375,-0.9794921875,-0.010986328125,-0.7012194991111755,0.3658536672592163,0.3048780560493469,-11.25,-7.199999809265137,-7.199999809265137,36.86246109008789,0,
 199803,-0.043212890625,-0.9794921875,-0.008544921875,-0.24390244483947754,0.27439025044441223,0.4573170840740204,-10.199999809265137,-7.800000190734863,-7.800000190734863,37.05415344238281,0,
 199813,-0.037109375,-0.980224609375,-0.006103515625,-0.5182926654815674,0.18292683362960815,0.27439025044441223,-10.199999809265137,-7.800000190734863,-7.800000190734863,36.86246109008789,0,
 199823,-0.037841796875,-0.9814453125,-0.01025390625,-0.8841463327407837,0.3353658616542816,0.5792682766914368,-10.649999618530273,-5.400000095367432,-7.800000190734863,37.05415344238281,0,
 199833,-0.05029296875,-0.9736328125,-0.0107421875,-0.4573170840740204,0.5792682766914368,0.3658536672592163,-11.699999809265137,-6.599999904632568,-8.25,36.91038513183594,0,
 199843,-0.047119140625,-0.974365234375,-0.005615234375,-0.3658536672592163,0.030487805604934692,0.4268292784690857,-10.199999809265137,-7.800000190734863,-8.550000190734863,36.86246109008789,0,
 199853,-0.037841796875,-0.97509765625,-0.008544921875,-0.3048780560493469,0.18292683362960815,0.3353658616542816,-12.75,-7.199999809265137,-6.900000095367432,36.86246109008789,0,
 199863,-0.0419921875,-0.97705078125,-0.007568359375,-0.5792682766914368,0.09146341681480408,0.5182926654815674,-12.75,-7.199999809265137,-6.900000095367432,37.006229400634766,0,
 199873,-0.047119140625,-0.974365234375,-0.007080078125,-0.6707317233085632,0.3353658616542816,0.3658536672592163,-11.699999809265137,-7.800000190734863,-8.25,37.006229400634766,0,
 199883,-0.03857421875,-0.97998046875,-0.010986328125,-0.396341472864151,0.3353658616542816,0.09146341681480408,-10.800000190734863,-6.900000095367432,-7.949999809265137,36.814537048339844,0,
 199893,-0.041015625,-0.974365234375,-0.010986328125,-0.6097561120986938,0.060975611209869385,0.3353658616542816,-10.800000190734863,-7.199999809265137,-7.650000095367432,37.05415344238281,0,
 199903,-0.041015625,-0.972412109375,-0.0078125,-0.7317073345184326,0.4268292784690857,0.24390244483947754,-10.800000190734863,-7.199999809265137,-7.650000095367432,36.86246109008789,0,
 199913,-0.04150390625,-0.975830078125,-0.012939453125,-0.3353658616542816,0.5182926654815674,0.21341463923454285,-12.149999618530273,-7.050000190734863,-7.800000190734863,36.91038513183594,0,
 199933,-0.042724609375,-0.97998046875,-0.0087890625,-0.3658536672592163,0.18292683362960815,0.3658536672592163,-11.399999618530273,-6.599999904632568,-7.050000190734863,36.91038513183594,0,
 199963,-0.04248046875,-0.97802734375,-0.0078125,-0.27439025044441223,0.396341472864151,0.21341463923454285,-10.5,-7.650000095367432,-10.199999809265137,36.86246109008789,0,
 199973,-0.033447265625,-0.9794921875,-0.007080078125,-0.7012194991111755,0.21341463923454285,-0.030487805604934692,-10.649999618530273,-5.849999904632568,-7.5,36.86246109008789,0,
 199983,-0.041015625,-0.982666015625,-0.009765625,-0.4878048896789551,0.3048780560493469,-0.030487805604934692,-10.649999618530273,-6.300000190734863,-7.050000190734863,37.006229400634766,0,
 199993,-0.042724609375,-0.977294921875,-0.00634765625,-0.4268292784690857,0.24390244483947754,0.21341463923454285,-10.800000190734863,-6.0,-7.199999809265137,36.67076873779297,0,
 200003,-0.040771484375,-0.980224609375,-0.00830078125,-0.7012194991111755,0.3658536672592163,0.18292683362960815,-10.800000190734863,-6.0,-7.199999809265137,36.91038513183594,0,
 200013,-0.04052734375,-0.9794921875,-0.008544921875,-0.5182926654815674,0.18292683362960815,-0.09146341681480408,-11.699999809265137,-7.050000190734863,-9.0,36.91038513183594,0,
 200033,-0.04052734375,-0.978515625,-0.00830078125,-0.24390244483947754,0.3658536672592163,0.396341472864151,-9.899999618530273,-6.300000190734863,-7.5,36.86246109008789,0,
 200043,-0.048828125,-0.976318359375,-0.007080078125,-0.3048780560493469,0.15243902802467346,0.3353658616542816,-11.550000190734863,-6.0,-7.650000095367432,36.86246109008789,0,
 200053,-0.044677734375,-0.973388671875,-0.00927734375,-0.3658536672592163,0.21341463923454285,0.24390244483947754,-11.550000190734863,-6.0,-7.650000095367432,36.91038513183594,0,
 200063,-0.04150390625,-0.97802734375,-0.0087890625,-0.27439025044441223,0.24390244483947754,0.3658536672592163,-10.800000190734863,-4.050000190734863,-9.449999809265137,36.91038513183594,0,
 200073,-0.043212890625,-0.9775390625,-0.0087890625,-0.15243902802467346,0.3048780560493469,0.060975611209869385,-10.800000190734863,-5.25,-8.399999618530273,36.86246109008789,0,
 200083,-0.042236328125,-0.976806640625,-0.009765625,-0.27439025044441223,0.3048780560493469,0.3658536672592163,-11.550000190734863,-6.900000095367432,-7.949999809265137,36.86246109008789,0,
 200093,-0.04345703125,-0.97509765625,-0.00927734375,-0.6707317233085632,0.3658536672592163,0.12195122241973877,-11.550000190734863,-6.900000095367432,-7.949999809265137,36.814537048339844,0,
 200103,-0.042236328125,-0.972412109375,-0.006591796875,-0.3658536672592163,0.24390244483947754,0.15243902802467346,-10.5,-6.449999809265137,-8.399999618530273,36.91038513183594,0,
 200113,-0.043212890625,-0.980712890625,-0.002197265625,-0.4878048896789551,0.396341472864151,-0.12195122241973877,-9.600000381469727,-6.900000095367432,-9.449999809265137,37.05415344238281,0,
 200123,-0.040283203125,-0.982177734375,-0.0107421875,-0.6097561120986938,0.24390244483947754,0.4268292784690857,-10.800000190734863,-8.399999618530273,-8.399999618530273,36.91038513183594,0,
 200133,-0.041748046875,-0.977294921875,-0.01171875,-0.4573170840740204,0.3353658616542816,0.09146341681480408,-9.300000190734863,-6.0,-8.399999618530273,36.91038513183594,0,
 200143,-0.037841796875,-0.98095703125,-0.009033203125,-0.15243902802467346,0.060975611209869385,0.030487805604934692,-9.300000190734863,-6.0,-8.399999618530273,36.86246109008789,0,
 200153,-0.04443359375,-0.98095703125,-0.001953125,-0.7012194991111755,-0.030487805604934692,0.396341472864151,-10.5,-7.199999809265137,-7.949999809265137,36.814537048339844,0,
 200163,-0.036865234375,-0.978271484375,-0.008544921875,-0.27439025044441223,0.3353658616542816,0.3353658616542816,-11.699999809265137,-4.349999904632568,-9.300000190734863,36.91038513183594,0,
 200173,-0.040771484375,-0.976806640625,-0.007080078125,-0.12195122241973877,0.24390244483947754,0.27439025044441223,-9.300000190734863,-6.900000095367432,-6.150000095367432,37.006229400634766,0,
 200183,-0.039306640625,-0.9755859375,-0.006103515625,-0.4573170840740204,0.27439025044441223,0.09146341681480408,-11.25,-6.449999809265137,-6.900000095367432,36.86246109008789,0,
 200193,-0.0400390625,-0.9765625,-0.004150390625,-0.3658536672592163,0.060975611209869385,0.18292683362960815,-11.25,-6.449999809265137,-6.900000095367432,37.006229400634766,0,
 200203,-0.044677734375,-0.978759765625,-0.006591796875,-0.4573170840740204,0.0,0.09146341681480408,-11.550000190734863,-6.0,-7.949999809265137,36.91038513183594,0,
 200213,-0.041259765625,-0.975341796875,-0.003662109375,-0.3048780560493469,-0.15243902802467346,-0.060975611209869385,-11.399999618530273,-7.5,-8.550000190734863,37.10207748413086,0,
 200223,-0.04345703125,-0.97802734375,-0.006591796875,-0.24390244483947754,-0.15243902802467346,-0.030487805604934692,-11.550000190734863,-5.699999809265137,-7.199999809265137,36.86246109008789,0,
 200233,-0.042236328125,-0.9814453125,-0.013671875,-0.4878048896789551,0.21341463923454285,0.18292683362960815,-11.550000190734863,-5.699999809265137,-7.199999809265137,37.006229400634766,0,
 200243,-0.044677734375,-0.973388671875,-0.007080078125,-0.7012194991111755,0.5487805008888245,-0.09146341681480408,-12.899999618530273,-6.599999904632568,-8.550000190734863,36.86246109008789,0,
 200253,-0.042724609375,-0.9775390625,-0.010498046875,-0.4573170840740204,0.18292683362960815,-0.12195122241973877,-11.25,-5.699999809265137,-7.199999809265137,37.006229400634766,0,
 200263,-0.042236328125,-0.983154296875,-0.01416015625,-0.6402438879013062,0.09146341681480408,0.12195122241973877,-10.199999809265137,-8.699999809265137,-7.5,37.006229400634766,0,
 200274,-0.041748046875,-0.980712890625,-0.01123046875,-0.3048780560493469,0.24390244483947754,0.15243902802467346,-11.550000190734863,-8.100000381469727,-9.149999618530273,37.19792175292969,0,
 200284,-0.038330078125,-0.979736328125,-0.00927734375,-0.7012194991111755,0.27439025044441223,-0.060975611209869385,-11.550000190734863,-8.100000381469727,-9.149999618530273,37.006229400634766,0,
 200294,-0.04541015625,-0.9765625,-0.00537109375,-0.5182926654815674,0.18292683362960815,0.18292683362960815,-10.649999618530273,-7.050000190734863,-8.25,36.86246109008789,0,
 200304,-0.04248046875,-0.976318359375,-0.011474609375,-0.6097561120986938,0.15243902802467346,0.060975611209869385,-12.300000190734863,-6.0,-6.900000095367432,36.86246109008789,0,
 200314,-0.042724609375,-0.976318359375,-0.01513671875,-0.3658536672592163,0.3048780560493469,0.15243902802467346,-10.649999618530273,-7.050000190734863,-9.0,36.91038513183594,0,
 200324,-0.03857421875,-0.977294921875,-0.01171875,-0.7012194991111755,0.27439025044441223,-0.24390244483947754,-12.75,-6.900000095367432,-7.650000095367432,36.91038513183594,0,
 200334,-0.03955078125,-0.98193359375,-0.008056640625,-0.21341463923454285,0.15243902802467346,0.27439025044441223,-12.75,-6.900000095367432,-7.650000095367432,36.86246109008789,0,
 200344,-0.044677734375,-0.979248046875,-0.007080078125,-0.4573170840740204,0.15243902802467346,-0.15243902802467346,-11.25,-4.5,-7.650000095367432,36.91038513183594,0,
 200354,-0.041015625,-0.982666015625,-0.002197265625,-0.5182926654815674,0.15243902802467346,0.060975611209869385,-10.199999809265137,-6.599999904632568,-7.800000190734863,37.05415344238281,0,
 200364,-0.043212890625,-0.981201171875,-0.009765625,-0.4878048896789551,0.0,-0.12195122241973877,-10.649999618530273,-5.400000095367432,-7.5,37.10207748413086,0,
 200374,-0.042724609375,-0.983154296875,-0.00439453125,-0.27439025044441223,0.3048780560493469,-0.18292683362960815,-10.649999618530273,-5.400000095367432,-7.5,37.006229400634766,0,
 200384,-0.0380859375,-0.9775390625,-0.0078125,-0.4573170840740204,0.24390244483947754,0.060975611209869385,-11.25,-5.25,-6.449999809265137,36.86246109008789,0,
 200394,-0.0439453125,-0.97998046875,-0.009521484375,-0.030487805604934692,0.3658536672592163,0.030487805604934692,-11.25,-7.199999809265137,-8.699999809265137,37.006229400634766,0,
 200404,-0.045654296875,-0.978759765625,-0.014404296875,-0.09146341681480408,0.21341463923454285,-0.18292683362960815,-12.0,-6.900000095367432,-7.949999809265137,36.814537048339844,0,
 200424,-0.046630859375,-0.98193359375,-0.010009765625,0.030487805604934692,0.27439025044441223,-0.15243902802467346,-10.050000190734863,-6.0,-9.149999618530273,37.19792175292969,0,
 200434,-0.048583984375,-0.9775390625,-0.01025390625,0.060975611209869385,0.24390244483947754,-0.5487805008888245,-11.550000190734863,-6.449999809265137,-6.900000095367432,36.86246109008789,0,
 200444,-0.036376953125,-0.982666015625,-0.00537109375,0.3048780560493469,-0.030487805604934692,-0.060975611209869385,-9.300000190734863,-5.699999809265137,-8.699999809265137,36.91038513183594,0,
 200464,-0.038330078125,-0.97900390625,-0.0078125,-0.21341463923454285,0.24390244483947754,-0.3048780560493469,-10.5,-6.0,-9.899999618530273,36.91038513183594,0,
 200474,-0.0400390625,-0.97265625,-0.009033203125,-0.060975611209869385,0.3353658616542816,-0.3353658616542816,-10.5,-6.0,-9.899999618530273,37.006229400634766,0,
 200484,-0.042724609375,-0.981201171875,-0.009765625,-0.15243902802467346,0.15243902802467346,-0.3353658616542816,-10.199999809265137,-6.599999904632568,-9.75,36.814537048339844,0,
 200494,-0.04638671875,-0.98046875,-0.003662109375,0.24390244483947754,0.12195122241973877,-0.09146341681480408,-10.800000190734863,-6.0,-8.399999618530273,36.814537048339844,0,
 200504,-0.044921875,-0.978515625,-0.01123046875,-0.27439025044441223,0.24390244483947754,-0.396341472864151,-10.649999618530273,-6.599999904632568,-8.25,36.814537048339844,0,
 200514,-0.03955078125,-0.9814453125,-0.00244140625,-0.030487805604934692,0.24390244483947754,-0.24390244483947754,-10.649999618530273,-6.599999904632568,-8.25,37.05415344238281,0,
 200524,-0.039306640625,-0.97021484375,-0.005126953125,-0.060975611209869385,0.18292683362960815,-0.21341463923454285,-11.550000190734863,-7.199999809265137,-6.900000095367432,36.86246109008789,0,
 200534,-0.04296875,-0.98388671875,-0.005126953125,0.0,0.21341463923454285,0.0,-10.5,-6.449999809265137,-6.900000095367432,36.527000427246094,0,
 200544,-0.036865234375,-0.982177734375,-0.007080078125,-0.5182926654815674,0.15243902802467346,-0.15243902802467346,-11.399999618530273,-5.849999904632568,-7.050000190734863,37.006229400634766,0,
 200554,-0.046875,-0.974853515625,-0.012451171875,-0.3658536672592163,0.3048780560493469,-0.15243902802467346,-12.0,-6.0,-7.199999809265137,36.91038513183594,0,
 200564,-0.033203125,-0.974365234375,-0.002685546875,-0.3048780560493469,0.0,-0.21341463923454285,-12.0,-6.0,-7.199999809265137,36.91038513183594,0,
 200574,-0.0439453125,-0.976806640625,-0.0029296875,-0.4878048896789551,0.12195122241973877,0.09146341681480408,-12.300000190734863,-6.449999809265137,-8.699999809265137,37.245845794677734,0,
 200584,-0.0419921875,-0.982177734375,-0.005615234375,-0.396341472864151,0.4573170840740204,-0.12195122241973877,-10.649999618530273,-7.5,-8.550000190734863,36.718692779541016,0,
 200594,-0.040283203125,-0.9794921875,-0.008544921875,-0.21341463923454285,0.3048780560493469,-0.030487805604934692,-10.050000190734863,-6.0,-7.199999809265137,36.86246109008789,0,
 200604,-0.04150390625,-0.976806640625,-0.005615234375,-0.4268292784690857,0.12195122241973877,0.12195122241973877,-9.449999809265137,-6.300000190734863,-7.800000190734863,36.91038513183594,0,
 200614,-0.037109375,-0.980224609375,-0.00830078125,-0.27439025044441223,0.21341463923454285,0.09146341681480408,-9.449999809265137,-6.300000190734863,-7.800000190734863,37.006229400634766,0,
 200624,-0.04150390625,-0.97509765625,-0.004150390625,-0.4878048896789551,0.09146341681480408,0.3658536672592163,-12.0,-5.699999809265137,-6.900000095367432,37.006229400634766,0,
 200634,-0.039306640625,-0.98095703125,-0.00439453125,-0.3658536672592163,0.15243902802467346,0.4878048896789551,-12.149999618530273,-7.800000190734863,-7.800000190734863,36.86246109008789,0,
 200644,-0.038818359375,-0.97509765625,-0.0068359375,-0.3658536672592163,0.4878048896789551,0.4268292784690857,-11.550000190734863,-6.0,-7.650000095367432,36.91038513183594,0,
 200654,-0.03759765625,-0.97705078125,-0.00634765625,-0.4268292784690857,0.396341472864151,0.060975611209869385,-11.550000190734863,-6.0,-7.650000095367432,37.006229400634766,0,
 200664,-0.036376953125,-0.9765625,-0.01025390625,-0.6707317233085632,0.24390244483947754,0.18292683362960815,-11.550000190734863,-6.449999809265137,-9.149999618530273,36.86246109008789,0,
 200674,-0.041748046875,-0.977294921875,-0.007080078125,-0.7012194991111755,0.15243902802467346,0.21341463923454285,-11.550000190734863,-5.699999809265137,-8.699999809265137,37.006229400634766,0,
 200684,-0.041748046875,-0.974853515625,-0.010498046875,-0.4573170840740204,0.15243902802467346,-0.12195122241973877,-12.899999618530273,-7.5,-8.550000190734863,36.86246109008789,0,
 200694,-0.041259765625,-0.9736328125,-0.01025390625,-0.5487805008888245,0.09146341681480408,0.3658536672592163,-11.399999618530273,-7.050000190734863,-7.5,37.10207748413086,0,
 200704,-0.0419921875,-0.97900390625,-0.005126953125,-0.7317073345184326,0.27439025044441223,0.060975611209869385,-11.399999618530273,-7.050000190734863,-7.5,37.006229400634766,0,
 200714,-0.03857421875,-0.97607421875,-0.0078125,-0.5792682766914368,0.396341472864151,0.18292683362960815,-10.649999618530273,-6.300000190734863,-8.550000190734863,37.19792175292969,0,
 200724,-0.040283203125,-0.98046875,-0.004638671875,-0.6402438879013062,0.3353658616542816,0.4573170840740204,-12.149999618530273,-7.050000190734863,-5.550000190734863,36.86246109008789,0,
 200734,-0.03759765625,-0.9765625,-0.00732421875,-0.8231707215309143,0.18292683362960815,0.4878048896789551,-12.149999618530273,-6.599999904632568,-7.5,36.814537048339844,0,
 200744,-0.039306640625,-0.97998046875,-0.012451171875,-0.7317073345184326,0.4573170840740204,0.4878048896789551,-12.300000190734863,-5.25,-6.150000095367432,37.006229400634766,0,
 200754,-0.036865234375,-0.9833984375,-0.00390625,-0.9451219439506531,0.12195122241973877,0.5487805008888245,-12.300000190734863,-5.25,-6.150000095367432,36.91038513183594,0,
 200764,-0.04443359375,-0.982177734375,-0.002197265625,-1.0365853309631348,0.21341463923454285,0.0,-10.5,-7.650000095367432,-7.650000095367432,37.006229400634766,0,
 200774,-0.044189453125,-0.980224609375,-0.009765625,-1.2195122241973877,0.27439025044441223,-0.030487805604934692,-12.149999618530273,-6.599999904632568,-8.25,36.86246109008789,0,
 200784,-0.03662109375,-0.9833984375,-0.002197265625,-1.432926893234253,0.396341472864151,-0.24390244483947754,-11.25,-6.900000095367432,-12.449999809265137,37.006229400634766,0,
 200794,-0.04248046875,-0.975341796875,-0.005126953125,-1.0670732259750366,0.24390244483947754,-0.09146341681480408,-11.25,-6.900000095367432,-12.449999809265137,37.006229400634766,0,
 200814,-0.045166015625,-0.97705078125,-0.006591796875,-0.6402438879013062,0.12195122241973877,-0.09146341681480408,-12.149999618530273,-5.849999904632568,-9.300000190734863,37.10207748413086,0,
 200824,-0.0390625,-0.975341796875,-0.0078125,-1.0670732259750366,0.4268292784690857,-0.5182926654815674,-11.399999618530273,-7.800000190734863,-9.0,36.86246109008789,0,
 200834,-0.039306640625,-0.978515625,-0.008544921875,-1.3719512224197388,0.15243902802467346,-0.4878048896789551,-11.399999618530273,-5.099999904632568,-8.25,37.006229400634766,0,
 200864,-0.043701171875,-0.97216796875,-0.01171875,-0.3048780560493469,-0.15243902802467346,-1.097561001777649,-11.550000190734863,-5.699999809265137,-7.650000095367432,37.05415344238281,0,
 200874,-0.04052734375,-0.975341796875,-0.011474609375,0.4878048896789551,0.12195122241973877,-2.408536672592163,-12.75,-7.650000095367432,-8.399999618530273,36.718692779541016,0,
 200884,-0.043701171875,-0.978759765625,-0.0146484375,0.4573170840740204,0.060975611209869385,-3.0182926654815674,-10.050000190734863,-6.0,-10.199999809265137,36.86246109008789,0,
 200894,-0.046875,-0.98193359375,-0.016845703125,1.5243902206420898,-0.15243902802467346,-4.0853657722473145,-10.050000190734863,-6.0,-10.199999809265137,37.05415344238281,0,
 200904,-0.040283203125,-0.978515625,-0.004150390625,2.2560975551605225,-0.060975611209869385,-5.457317352294922,-10.050000190734863,-6.449999809265137,-7.650000095367432,37.05415344238281,0,
 200914,-0.040283203125,-0.982421875,-0.006103515625,2.408536672592163,-0.4878048896789551,-5.731707572937012,-10.949999809265137,-6.300000190734863,-7.050000190734863,36.86246109008789,0,
 200924,-0.044677734375,-0.984375,-0.007080078125,2.804877996444702,-0.4573170840740204,-6.7682929039001465,-10.800000190734863,-6.0,-9.449999809265137,36.814537048339844,0,
 200934,-0.041748046875,-0.983642578125,-0.010009765625,3.9634146690368652,-0.18292683362960815,-8.62804889678955,-10.800000190734863,-6.0,-9.449999809265137,36.86246109008789,0,
 200964,-0.03369140625,-1.010498046875,0.0009765625,5.884146690368652,-0.396341472864151,-16.09756088256836,-11.25,-7.650000095367432,-8.699999809265137,36.86246109008789,0,
 200974,-0.052978515625,-1.022216796875,0.001220703125,7.317073345184326,-0.4268292784690857,-20.94512176513672,-11.399999618530273,-7.5,-7.5,36.814537048339844,0,
 200984,-0.048583984375,-1.078857421875,-0.001953125,8.780488014221191,-1.0365853309631348,-27.65243911743164,-11.399999618530273,-7.5,-7.5,37.05415344238281,0,
 200994,-0.061767578125,-1.11083984375,-0.00927734375,10.335366249084473,-1.9817073345184326,-34.5121955871582,-12.75,-7.650000095367432,-7.949999809265137,37.006229400634766,0,
 201004,-0.0888671875,-1.15478515625,-0.01611328125,12.682927131652832,-1.8902438879013062,-42.43902587890625,-12.300000190734863,-6.900000095367432,-6.900000095367432,36.814537048339844,0,
 201015,-0.06494140625,-1.1357421875,-0.01025390625,14.237805366516113,-1.5243902206420898,-50.57926940917969,-12.75,-7.199999809265137,-7.949999809265137,36.86246109008789,0,
 201025,-0.01416015625,-1.05517578125,0.0234375,14.634146690368652,-1.1585365533828735,-56.76829528808594,-10.050000190734863,-6.449999809265137,-9.899999618530273,37.006229400634766,0,
 201035,0.016845703125,-1.029541015625,0.045654296875,13.932927131652832,-1.3414634466171265,-58.84146499633789,-10.050000190734863,-6.449999809265137,-9.899999618530273,37.006229400634766,0,
 201045,0.0458984375,-0.96630859375,0.046875,11.463415145874023,-1.8902438879013062,-58.07926940917969,-11.399999618530273,-6.599999904632568,-9.300000190734863,37.006229400634766,0,
 201055,0.04296875,-0.9873046875,0.037353515625,9.481707572937012,-2.5,-54.72561264038086,-13.350000381469727,-7.800000190734863,-9.300000190734863,37.006229400634766,0,
 201065,0.028564453125,-1.02294921875,0.0234375,7.0731706619262695,-3.2012195587158203,-53.810977935791016,-13.800000190734863,-8.399999618530273,-7.650000095367432,36.86246109008789,0,
 201075,0.024658203125,-1.0205078125,0.00439453125,4.634146213531494,-3.1402440071105957,-55.03049087524414,-13.800000190734863,-8.399999618530273,-7.650000095367432,36.91038513183594,0,
 201085,0.049072265625,-1.001953125,0.006591796875,2.77439022064209,-1.432926893234253,-55.54878234863281,-12.75,-9.600000381469727,-9.149999618530273,37.05415344238281,0,
 201095,0.068115234375,-0.9736328125,0.002197265625,3.170731782913208,-0.9451219439506531,-56.310977935791016,-11.550000190734863,-9.600000381469727,-10.949999809265137,37.006229400634766,0,
 201105,0.09765625,-0.9306640625,-0.009765625,3.9024391174316406,0.060975611209869385,-55.09146499633789,-13.800000190734863,-8.100000381469727,-8.399999618530273,37.05415344238281,0,
 201115,0.1025390625,-0.92822265625,-0.004638671875,4.847560882568359,0.6402438879013062,-52.408538818359375,-12.149999618530273,-7.800000190734863,-9.0,36.814537048339844,0,
 201125,0.1083984375,-0.942138671875,-0.00830078125,6.158536911010742,1.6463414430618286,-50.335365295410156,-12.149999618530273,-7.800000190734863,-9.0,36.86246109008789,0,
 201135,0.110595703125,-0.951416015625,-0.009521484375,6.95121955871582,2.865853786468506,-48.99390411376953,-13.350000381469727,-8.699999809265137,-8.550000190734863,37.19792175292969,0,
 201145,0.12451171875,-0.946533203125,0.00732421875,7.439024448394775,3.9939024448394775,-47.774391174316406,-14.850000381469727,-9.0,-8.25,36.86246109008789,0,
 201155,0.134521484375,-0.93603515625,0.017333984375,7.012195110321045,5.121951103210449,-43.59756088256836,-13.649999618530273,-9.899999618530273,-8.25,37.05415344238281,0,
 201165,0.148193359375,-0.941162109375,0.031005859375,7.439024448394775,5.396341800689697,-42.59146499633789,-13.800000190734863,-10.050000190734863,-8.399999618530273,36.67076873779297,0,
 201175,0.1494140625,-0.938232421875,0.0341796875,6.646341800689697,4.878048896789551,-41.006099700927734,-13.800000190734863,-10.050000190734863,-8.399999618530273,36.86246109008789,0,
 201185,0.1533203125,-0.948486328125,0.03662109375,6.432927131652832,4.390244007110596,-39.664634704589844,-14.100000381469727,-10.199999809265137,-8.550000190734863,36.814537048339844,0,
 201195,0.1689453125,-0.951904296875,0.04345703125,6.493902683258057,4.02439022064209,-39.84756088256836,-13.800000190734863,-12.0,-9.899999618530273,37.05415344238281,0,
 201205,0.167236328125,-0.94189453125,0.043212890625,6.554878234863281,3.3231709003448486,-38.75,-14.25,-9.600000381469727,-6.900000095367432,36.91038513183594,0,
 201215,0.179931640625,-0.95556640625,0.042724609375,7.804878234863281,2.9573171138763428,-38.932926177978516,-14.25,-9.600000381469727,-6.900000095367432,36.718692779541016,0,
 201225,0.181396484375,-0.982177734375,0.05029296875,11.25,1.7073171138763428,-42.13414764404297,-14.100000381469727,-10.949999809265137,-8.550000190734863,37.006229400634766,0,
 201235,0.170654296875,-1.01513671875,0.03955078125,15.304878234863281,0.3658536672592163,-46.55487823486328,-14.399999618530273,-10.949999809265137,-9.75,37.006229400634766,0,
 201245,0.1611328125,-1.037109375,0.02392578125,19.268293380737305,-0.15243902802467346,-50.914634704589844,-13.350000381469727,-12.149999618530273,-9.0,36.91038513183594,0,
 201255,0.177734375,-1.05615234375,0.0302734375,24.14634132385254,-0.3048780560493469,-55.82317352294922,-14.100000381469727,-12.600000381469727,-8.25,36.86246109008789,0,
 201265,0.164306640625,-0.99560546875,-0.00341796875,23.018293380737305,1.25,-54.5121955871582,-14.100000381469727,-12.600000381469727,-8.25,36.718692779541016,0,
 201275,0.224853515625,-0.887939453125,0.010009765625,19.14634132385254,3.658536672592163,-48.23170852661133,-15.0,-13.199999809265137,-9.899999618530273,37.006229400634766,0,
 201305,0.2978515625,-0.7392578125,0.10107421875,8.109756469726562,5.457317352294922,-23.04878044128418,-14.850000381469727,-13.050000190734863,-10.050000190734863,37.006229400634766,0,
 201325,0.292724609375,-0.81396484375,0.136962890625,3.932926893234253,1.2804877758026123,-9.756097793579102,-15.75,-12.449999809265137,-9.449999809265137,36.86246109008789,0,
 201335,0.29248046875,-0.77294921875,0.107421875,1.9817073345184326,-1.402438998222351,-2.682926893234253,-14.399999618530273,-11.850000381469727,-8.25,37.006229400634766,0,
 201345,0.316650390625,-0.741455078125,0.08984375,-2.195122003555298,-2.5,8.109756469726562,-13.350000381469727,-12.149999618530273,-9.75,37.006229400634766,0,
 201365,0.276123046875,-0.689697265625,0.0498046875,-11.067073822021484,-1.5243902206420898,29.512195587158203,-16.350000381469727,-11.850000381469727,-9.300000190734863,36.91038513183594,0,
 201375,0.291259765625,-0.529052734375,0.02392578125,-17.378049850463867,-0.5792682766914368,45.39634323120117,-14.850000381469727,-12.600000381469727,-8.25,37.05415344238281,0,
 201385,0.3056640625,-0.275390625,-0.024658203125,-35.94512176513672,4.390244007110596,76.18902587890625,-16.200000762939453,-12.75,-9.449999809265137,37.05415344238281,0,
 201395,0.39306640625,-0.118408203125,0.044677734375,-68.14024353027344,14.054878234863281,120.88414764404297,-14.25,-10.350000381469727,-9.899999618530273,37.05415344238281,0,
 201405,0.461669921875,-0.150390625,0.127197265625,-87.1036605834961,20.54878044128418,163.2012176513672,-14.25,-10.350000381469727,-9.899999618530273,36.91038513183594,0,
 201415,0.413818359375,-0.2412109375,0.1650390625,-89.08536529541016,18.841463088989258,197.16464233398438,-12.600000381469727,-12.149999618530273,-8.25,36.814537048339844,0,
 201425,0.29150390625,-0.306884765625,0.126708984375,-78.81097412109375,7.987804889678955,230.2134246826172,-13.350000381469727,-9.899999618530273,-9.75,37.006229400634766,0,
 201435,0.127197265625,-0.56298828125,0.0009765625,-57.164634704589844,-5.945122241973877,262.5304870605469,-13.5,-10.350000381469727,-8.699999809265137,37.006229400634766,0,
 201445,-0.1015625,-1.685302734375,-0.161376953125,-36.82926940917969,-17.987804412841797,295.6707458496094,-12.899999618530273,-7.800000190734863,-7.800000190734863,36.86246109008789,0,
 201455,-2.088623046875,-2.74267578125,0.8017578125,3.5060975551605225,-30.79268455505371,320.94512939453125,-12.899999618530273,-7.800000190734863,-7.800000190734863,36.91038513183594,0,
 201465,-1.19091796875,-1.216552734375,0.053466796875,-26.89024543762207,8.384146690368652,12.62195110321045,-10.199999809265137,-6.300000190734863,-6.300000190734863,36.814537048339844,0,
 201475,-0.68115234375,-0.50732421875,-0.339599609375,-23.475610733032227,19.08536720275879,-2.2560975551605225,-12.600000381469727,-3.1500000953674316,-9.75,36.814537048339844,0,
 201485,-0.171630859375,-0.94482421875,-0.14404296875,-19.207317352294922,5.060975551605225,12.804878234863281,-11.550000190734863,-7.199999809265137,-8.699999809265137,37.19792175292969,0,
 201495,0.04052734375,-0.652587890625,-0.16796875,-8.719511985778809,8.506097793579102,-3.5060975551605225,-11.550000190734863,-7.199999809265137,-8.699999809265137,37.19792175292969,0,
 201505,0.097412109375,-0.94482421875,-0.0595703125,8.59756088256836,11.341464042663574,9.45121955871582,-12.600000381469727,-6.599999904632568,-8.25,36.718692779541016,0,
 201515,0.0126953125,-1.00830078125,-0.005126953125,14.359756469726562,5.365853786468506,8.414634704589844,-11.550000190734863,-6.900000095367432,-9.449999809265137,37.006229400634766,0,
 201525,-0.087890625,-1.0400390625,-0.00439453125,10.762195587158203,-3.2926828861236572,4.542683124542236,-12.149999618530273,-7.050000190734863,-8.550000190734863,37.006229400634766,0,
 201535,-0.125732421875,-0.977783203125,-0.033203125,5.579268455505371,-5.5182929039001465,-2.804877996444702,-12.149999618530273,-7.800000190734863,-7.050000190734863,37.006229400634766,0,
 201545,-0.06103515625,-0.971923828125,-0.022216796875,7.012195110321045,-1.6463414430618286,-5.8231706619262695,-12.149999618530273,-7.800000190734863,-7.050000190734863,37.006229400634766,0,
 201555,-0.02685546875,-0.99609375,-0.00244140625,6.402439117431641,0.060975611209869385,-5.091463565826416,-10.949999809265137,-6.599999904632568,-7.050000190734863,36.86246109008789,0,
 201565,-0.04443359375,-0.97998046875,-0.023193359375,4.115853786468506,-1.5243902206420898,-4.847560882568359,-12.600000381469727,-6.300000190734863,-7.800000190734863,36.91038513183594,0,
 201575,-0.06103515625,-0.969482421875,-0.037841796875,3.6890244483947754,-1.6158536672592163,-4.6646342277526855,-10.649999618530273,-5.849999904632568,-8.550000190734863,37.10207748413086,0,
 201585,-0.05615234375,-0.98388671875,-0.03076171875,5.670732021331787,-1.1280487775802612,-5.213414669036865,-11.399999618530273,-7.5,-8.25,36.814537048339844,0,
 201595,-0.05029296875,-0.985107421875,-0.018798828125,6.128048896789551,-1.0060975551605225,-5.3353657722473145,-11.399999618530273,-7.5,-8.25,37.10207748413086,0,
 201605,-0.0439453125,-0.98779296875,-0.017822265625,4.237804889678955,-0.6097561120986938,-3.353658676147461,-12.899999618530273,-6.300000190734863,-9.75,36.718692779541016,0,
 201615,-0.032958984375,-0.985595703125,-0.013427734375,3.170731782913208,-0.21341463923454285,-1.5243902206420898,-11.699999809265137,-6.599999904632568,-7.800000190734863,37.006229400634766,0,
 201625,-0.03955078125,-0.982177734375,-0.013916015625,2.4695122241973877,-0.24390244483947754,-0.21341463923454285,-10.949999809265137,-6.599999904632568,-7.050000190734863,37.10207748413086,0,
 201635,-0.042236328125,-0.985107421875,-0.014404296875,1.920731782913208,0.12195122241973877,0.7012194991111755,-10.949999809265137,-6.599999904632568,-7.050000190734863,37.006229400634766,0,
 201665,-0.0517578125,-0.98046875,-0.01611328125,1.0060975551605225,0.27439025044441223,-1.2195122241973877,-11.25,-6.0,-7.949999809265137,37.006229400634766,0,
 201675,-0.052734375,-0.980712890625,-0.01416015625,1.5243902206420898,0.4878048896789551,-1.7987805604934692,-10.800000190734863,-6.449999809265137,-8.699999809265137,37.05415344238281,0,
 201685,-0.05029296875,-0.9755859375,-0.017333984375,1.3719512224197388,0.5487805008888245,-2.012195110321045,-10.800000190734863,-6.449999809265137,-8.699999809265137,37.05415344238281,0,
 201695,-0.046630859375,-0.978271484375,-0.01513671875,1.3109756708145142,0.4878048896789551,-2.0731706619262695,-11.550000190734863,-5.699999809265137,-8.399999618530273,37.05415344238281,0,
 201716,-0.0400390625,-0.98291015625,-0.011962890625,0.3048780560493469,0.396341472864151,-0.6097561120986938,-11.699999809265137,-8.25,-8.550000190734863,37.05415344238281,0,
 201736,-0.04052734375,-0.97900390625,-0.01708984375,-0.4573170840740204,0.21341463923454285,-0.3353658616542816,-11.550000190734863,-6.0,-7.949999809265137,36.86246109008789,0,
 201746,-0.04541015625,-0.978271484375,-0.019287109375,-0.396341472864151,0.060975611209869385,-0.18292683362960815,-11.699999809265137,-7.800000190734863,-6.75,37.245845794677734,0,
 201756,-0.045166015625,-0.98095703125,-0.01806640625,-0.21341463923454285,0.030487805604934692,-0.6402438879013062,-11.550000190734863,-6.900000095367432,-7.650000095367432,36.814537048339844,0,
 201766,-0.045166015625,-0.9794921875,-0.02099609375,-0.18292683362960815,0.030487805604934692,-1.1585365533828735,-12.600000381469727,-6.599999904632568,-7.800000190734863,36.86246109008789,0,
 201776,-0.04541015625,-0.97900390625,-0.0107421875,-0.060975611209869385,0.030487805604934692,-1.1585365533828735,-12.600000381469727,-6.599999904632568,-7.800000190734863,37.006229400634766,0,
 201796,-0.04150390625,-0.9755859375,-0.019775390625,-0.060975611209869385,0.21341463923454285,-0.6402438879013062,-11.399999618530273,-5.400000095367432,-8.25,37.006229400634766,0,
 201806,-0.041015625,-0.981201171875,-0.01611328125,-0.3353658616542816,0.060975611209869385,-0.5487805008888245,-11.699999809265137,-5.849999904632568,-9.75,36.86246109008789,0,
 201816,-0.04296875,-0.97509765625,-0.016845703125,-0.8231707215309143,0.0,-0.27439025044441223,-10.800000190734863,-6.449999809265137,-7.949999809265137,36.814537048339844,0,
 201826,-0.04296875,-0.97314453125,-0.01318359375,0.12195122241973877,0.4268292784690857,-0.5487805008888245,-10.800000190734863,-6.449999809265137,-7.949999809265137,36.86246109008789,0,
 201836,-0.04638671875,-0.9794921875,-0.020751953125,-0.5792682766914368,0.24390244483947754,-0.396341472864151,-11.25,-6.900000095367432,-9.149999618530273,36.91038513183594,0,
 201846,-0.04248046875,-0.98193359375,-0.011474609375,-0.4268292784690857,0.12195122241973877,-0.12195122241973877,-10.050000190734863,-6.0,-6.900000095367432,36.91038513183594,0,
 201856,-0.048095703125,-0.981689453125,-0.0107421875,-0.27439025044441223,0.18292683362960815,-0.15243902802467346,-13.350000381469727,-6.599999904632568,-7.050000190734863,36.718692779541016,0,
 201866,-0.04296875,-0.977294921875,-0.013916015625,-0.6707317233085632,0.27439025044441223,-0.09146341681480408,-11.550000190734863,-6.900000095367432,-8.399999618530273,37.05415344238281,0,
 201876,-0.04150390625,-0.974853515625,-0.017578125,-0.5182926654815674,0.15243902802467346,-0.18292683362960815,-11.550000190734863,-6.900000095367432,-8.399999618530273,36.86246109008789,0,
 201886,-0.042236328125,-0.982421875,-0.016845703125,-0.792682945728302,-0.030487805604934692,-0.030487805604934692,-11.25,-7.650000095367432,-8.399999618530273,37.245845794677734,0,
 201896,-0.04443359375,-0.978271484375,-0.011962890625,-0.7012194991111755,0.3353658616542816,0.060975611209869385,-12.600000381469727,-6.300000190734863,-9.0,36.91038513183594,0,
 201906,-0.04736328125,-0.977783203125,-0.012939453125,-0.7012194991111755,0.3658536672592163,-0.030487805604934692,-11.25,-7.650000095367432,-9.149999618530273,36.86246109008789,0,
 201916,-0.03662109375,-0.979248046875,-0.015625,-0.21341463923454285,0.24390244483947754,-0.12195122241973877,-11.25,-7.650000095367432,-9.149999618530273,37.006229400634766,0,
 201926,-0.04345703125,-0.974609375,-0.017578125,-0.4573170840740204,0.24390244483947754,-0.030487805604934692,-11.399999618530273,-7.800000190734863,-7.800000190734863,36.91038513183594,0,
 201936,-0.048583984375,-0.979248046875,-0.01220703125,-0.3353658616542816,-0.21341463923454285,0.27439025044441223,-12.75,-6.449999809265137,-8.399999618530273,36.814537048339844,0,
 201946,-0.03857421875,-0.978271484375,-0.020263671875,-0.396341472864151,0.27439025044441223,0.0,-12.75,-7.199999809265137,-7.199999809265137,36.91038513183594,0,
 201956,-0.038818359375,-0.98095703125,-0.01318359375,-0.3353658616542816,-0.12195122241973877,0.27439025044441223,-10.800000190734863,-6.0,-6.900000095367432,36.86246109008789,0,
 201966,-0.037109375,-0.98046875,-0.01953125,-0.5487805008888245,0.21341463923454285,0.18292683362960815,-10.800000190734863,-6.0,-6.900000095367432,36.86246109008789,0,
 201976,-0.046630859375,-0.9775390625,-0.015380859375,-0.27439025044441223,0.060975611209869385,-0.21341463923454285,-12.75,-7.199999809265137,-7.650000095367432,36.718692779541016,0,
 201986,-0.046630859375,-0.98681640625,-0.015625,-0.24390244483947754,0.12195122241973877,0.24390244483947754,-9.600000381469727,-6.449999809265137,-7.199999809265137,37.006229400634766,0,
 201996,-0.041259765625,-0.97900390625,-0.01611328125,-0.09146341681480408,0.18292683362960815,-0.030487805604934692,-10.199999809265137,-7.5,-7.800000190734863,36.814537048339844,0,
 202026,-0.04443359375,-0.978271484375,-0.013427734375,-0.24390244483947754,0.3048780560493469,0.12195122241973877,-11.25,-7.199999809265137,-7.199999809265137,37.19792175292969,0,
 202036,-0.042724609375,-0.97509765625,-0.014892578125,-0.3658536672592163,0.15243902802467346,0.21341463923454285,-12.300000190734863,-5.699999809265137,-7.949999809265137,37.006229400634766,0,
 202046,-0.041748046875,-0.97998046875,-0.019287109375,-0.3353658616542816,0.3048780560493469,0.12195122241973877,-11.25,-7.650000095367432,-9.149999618530273,37.006229400634766,0,
 202056,-0.038330078125,-0.97900390625,-0.013427734375,-0.18292683362960815,0.21341463923454285,0.12195122241973877,-11.25,-7.650000095367432,-9.149999618530273,37.006229400634766,0,
 202066,-0.04541015625,-0.983154296875,-0.010986328125,-0.060975611209869385,0.15243902802467346,0.3353658616542816,-12.899999618530273,-6.300000190734863,-7.800000190734863,37.05415344238281,0,
 202076,-0.041015625,-0.978271484375,-0.015380859375,-0.4268292784690857,0.27439025044441223,0.4573170840740204,-10.800000190734863,-5.699999809265137,-7.199999809265137,36.86246109008789,0,
 202086,-0.045166015625,-0.982666015625,-0.010498046875,-0.396341472864151,0.15243902802467346,-0.030487805604934692,-10.949999809265137,-6.599999904632568,-7.5,37.05415344238281,0,
 202116,-0.043701171875,-0.981201171875,-0.011474609375,-0.4268292784690857,0.4268292784690857,0.396341472864151,-10.050000190734863,-4.949999809265137,-9.899999618530273,37.006229400634766,0,
 202126,-0.044189453125,-0.974365234375,-0.01904296875,-0.21341463923454285,0.030487805604934692,0.24390244483947754,-10.949999809265137,-6.599999904632568,-9.300000190734863,36.86246109008789,0,
 202146,-0.044677734375,-0.97509765625,-0.01806640625,-0.4268292784690857,0.4573170840740204,0.18292683362960815,-12.149999618530273,-8.699999809265137,-8.550000190734863,36.718692779541016,0,
 202176,-0.04541015625,-0.979248046875,-0.01904296875,-0.5487805008888245,0.3353658616542816,0.09146341681480408,-10.800000190734863,-7.650000095367432,-7.650000095367432,37.006229400634766,0,
 202186,-0.050537109375,-0.980712890625,-0.017822265625,-0.18292683362960815,0.4573170840740204,-0.396341472864151,-13.050000190734863,-5.699999809265137,-7.199999809265137,37.10207748413086,0,
 202196,-0.047607421875,-0.972412109375,-0.01904296875,0.15243902802467346,0.24390244483947754,-1.737804889678955,-13.050000190734863,-5.699999809265137,-7.199999809265137,36.814537048339844,0,
 202206,-0.063232421875,-0.97607421875,-0.02734375,1.7987805604934692,0.4573170840740204,-5.396341800689697,-13.050000190734863,-7.650000095367432,-7.949999809265137,37.006229400634766,0,
 202216,-0.06201171875,-0.96923828125,-0.029296875,5.609755992889404,0.396341472864151,-9.664634704589844,-12.600000381469727,-5.849999904632568,-7.5,37.006229400634766,0,
 202226,-0.05224609375,-0.995361328125,-0.023681640625,8.993902206420898,0.792682945728302,-13.47560977935791,-10.949999809265137,-7.800000190734863,-8.25,36.91038513183594,0,
 202236,-0.074462890625,-1.00146484375,-0.042236328125,12.62195110321045,0.4268292784690857,-19.7560977935791,-11.550000190734863,-7.199999809265137,-7.650000095367432,37.006229400634766,0,
 202246,-0.03271484375,-1.031982421875,-0.036376953125,17.926830291748047,1.3109756708145142,-27.19512176513672,-11.550000190734863,-7.199999809265137,-7.650000095367432,36.86246109008789,0,
 202256,-0.021240234375,-1.074462890625,-0.0009765625,21.43292808532715,1.8292683362960815,-34.69512176513672,-11.550000190734863,-8.100000381469727,-7.199999809265137,36.86246109008789,0,
 202266,-0.06494140625,-1.14501953125,0.00927734375,22.774391174316406,1.8597561120986938,-41.64634323120117,-11.699999809265137,-6.300000190734863,-8.25,37.05415344238281,0,
 202276,-0.081787109375,-1.226806640625,0.000732421875,21.676830291748047,1.402438998222351,-49.29878234863281,-12.300000190734863,-6.0,-7.199999809265137,37.006229400634766,0,
 202286,-0.09033203125,-1.227783203125,0.024169921875,20.33536720275879,0.8536585569381714,-58.6280517578125,-12.600000381469727,-6.599999904632568,-7.050000190734863,37.10207748413086,0,
 202296,-0.037841796875,-1.1513671875,0.050048828125,20.731708526611328,-0.4878048896789551,-68.32317352294922,-12.600000381469727,-6.599999904632568,-7.050000190734863,36.67076873779297,0,
 202306,0.016845703125,-1.0673828125,0.0537109375,19.817073822021484,-2.2865853309631348,-74.51219940185547,-10.949999809265137,-7.800000190734863,-9.0,37.245845794677734,0,
 202316,0.0478515625,-1.020751953125,0.060791015625,17.286584854125977,-3.5060975551605225,-74.75609588623047,-12.75,-8.100000381469727,-8.399999618530273,37.245845794677734,0,
 202326,0.04736328125,-0.991943359375,0.037841796875,15.12195110321045,-4.603658676147461,-72.8963394165039,-12.300000190734863,-10.050000190734863,-10.649999618530273,37.006229400634766,0,
 202336,0.050048828125,-0.98046875,0.0224609375,12.865854263305664,-5.030488014221191,-71.00609588623047,-12.300000190734863,-10.050000190734863,-10.649999618530273,37.245845794677734,0,
 202356,0.08642578125,-0.945556640625,0.00048828125,10.335366249084473,-3.6890244483947754,-66.1280517578125,-12.600000381469727,-9.0,-9.75,37.006229400634766,0,
 202366,0.09033203125,-0.928955078125,-0.005126953125,9.542683601379395,-2.77439022064209,-64.20732116699219,-13.649999618530273,-9.449999809265137,-8.550000190734863,36.86246109008789,0,
 202376,0.119140625,-0.93408203125,0.000244140625,9.085366249084473,-0.8231707215309143,-61.43292999267578,-13.050000190734863,-9.300000190734863,-8.699999809265137,36.814537048339844,0,
 202386,0.105224609375,-0.953857421875,0.010498046875,10.365854263305664,0.5182926654815674,-60.213417053222656,-13.050000190734863,-9.300000190734863,-8.699999809265137,36.814537048339844,0,
 202396,0.122314453125,-0.986572265625,0.00537109375,10.54878044128418,1.402438998222351,-59.45122146606445,-14.25,-11.550000190734863,-9.149999618530273,36.86246109008789,0,
 202406,0.126953125,-0.9912109375,0.026123046875,11.554878234863281,1.920731782913208,-60.060977935791016,-13.800000190734863,-9.600000381469727,-8.699999809265137,37.05415344238281,0,
 202416,0.133056640625,-1.014892578125,0.036865234375,13.536585807800293,2.012195110321045,-61.40243911743164,-13.050000190734863,-10.350000381469727,-9.149999618530273,37.05415344238281,0,
 202467,0.204833984375,-0.895751953125,0.049560546875,17.34756088256836,1.9512195587158203,-60.03049087524414,-14.25,-12.0,-10.199999809265137,37.10207748413086,0,
 202477,0.220458984375,-0.857177734375,0.0458984375,17.65243911743164,1.6158536672592163,-56.82926940917969,-14.25,-12.0,-10.199999809265137,36.814537048339844,0,
 202487,0.2587890625,-0.835693359375,0.06591796875,15.396342277526855,2.378048896789551,-51.25,-14.25,-12.449999809265137,-9.449999809265137,36.814537048339844,0,
 202497,0.259765625,-0.828125,0.077392578125,14.969512939453125,2.3475611209869385,-46.524391174316406,-14.850000381469727,-11.399999618530273,-9.300000190734863,37.006229400634766,0,
 202507,0.2578125,-0.839111328125,0.077880859375,12.682927131652832,1.25,-36.432926177978516,-17.25,-11.25,-9.449999809265137,37.006229400634766,0,
 202517,0.262451171875,-0.838623046875,0.09228515625,11.12804889678955,0.6097561120986938,-31.49390411376953,-15.149999618530273,-12.149999618530273,-9.0,36.86246109008789,0,
 202527,0.27294921875,-0.84375,0.0927734375,9.939024925231934,0.24390244483947754,-26.128049850463867,-15.149999618530273,-12.149999618530273,-9.0,37.006229400634766,0,
 202537,0.28125,-0.850341796875,0.09228515625,9.756097793579102,-0.8536585569381714,-21.55487823486328,-15.149999618530273,-12.600000381469727,-9.75,37.006229400634766,0,
 202547,0.274658203125,-0.843017578125,0.090576171875,9.542683601379395,-1.6463414430618286,-16.676830291748047,-15.75,-11.550000190734863,-9.449999809265137,37.006229400634766,0,
 202557,0.2861328125,-0.84130859375,0.09375,9.390244483947754,-2.3475611209869385,-11.737805366516113,-15.600000381469727,-12.600000381469727,-10.050000190734863,36.814537048339844,0,
 202567,0.286376953125,-0.8369140625,0.07373046875,7.469512462615967,-2.5609755516052246,-6.067073345184326,-16.950000762939453,-12.75,-10.199999809265137,37.05415344238281,0,
 202577,0.284423828125,-0.819580078125,0.07470703125,4.29878044128418,-2.012195110321045,1.1280487775802612,-16.950000762939453,-12.75,-10.199999809265137,36.86246109008789,0,
 202587,0.29296875,-0.76953125,0.07080078125,-1.097561001777649,-0.9451219439506531,11.067073822021484,-14.399999618530273,-11.850000381469727,-10.050000190734863,36.718692779541016,0,
 202597,0.307861328125,-0.690185546875,0.08203125,-8.810976028442383,-0.12195122241973877,24.512195587158203,-15.149999618530273,-12.149999618530273,-10.050000190734863,36.91038513183594,0,
 202607,0.32568359375,-0.678955078125,0.09521484375,-15.579268455505371,1.585365891456604,38.10975646972656,-14.25,-12.75,-10.649999618530273,37.19792175292969,0,
 202617,0.279541015625,-0.658447265625,0.041748046875,-31.73780632019043,5.3353657722473145,59.32926940917969,-14.25,-12.75,-10.649999618530273,37.006229400634766,0,
 202627,0.309326171875,-0.447021484375,0.0263671875,-60.18292999267578,12.682927131652832,96.67683410644531,-15.899999618530273,-10.199999809265137,-10.800000190734863,37.245845794677734,0,
 202637,0.379638671875,-0.175537109375,0.029541015625,-91.28048706054688,21.219512939453125,143.8719482421875,-15.149999618530273,-14.550000190734863,-11.25,36.718692779541016,0,
 202647,0.456787109375,-0.015869140625,0.103515625,-103.9024429321289,24.14634132385254,188.0487823486328,-14.850000381469727,-11.850000381469727,-9.75,36.814537048339844,0,
 202657,0.48291015625,-0.0458984375,0.17236328125,-102.16463470458984,17.286584854125977,229.69512939453125,-14.399999618530273,-10.949999809265137,-10.050000190734863,36.86246109008789,0,
 202667,0.245361328125,-0.28857421875,0.090087890625,-86.89024353027344,3.628048896789551,271.1585388183594,-14.399999618530273,-10.949999809265137,-10.050000190734863,36.91038513183594,0,
 202677,0.124755859375,-1.1484375,-0.10107421875,-63.75,-11.006097793579102,310.0914611816406,-13.350000381469727,-9.449999809265137,-8.550000190734863,37.05415344238281,0,
 202687,-1.184814453125,-7.999755859375,-0.43701171875,-47.774391174316406,-19.420732498168945,352.2865905761719,-12.600000381469727,-8.25,-8.550000190734863,37.006229400634766,0,
 202697,-0.061279296875,-2.40380859375,0.13818359375,-64.66463470458984,16.43292808532715,117.46951293945312,-14.25,-8.100000381469727,-9.149999618530273,36.86246109008789,0,
 202717,-0.043701171875,-1.241943359375,-0.018310546875,-25.030488967895508,-1.2804877758026123,31.615854263305664,-12.149999618530273,-6.599999904632568,-9.0,37.05415344238281,0,
 202727,-0.166015625,-0.6728515625,-0.186279296875,-14.268293380737305,0.9451219439506531,-0.12195122241973877,-10.5,-6.900000095367432,-6.449999809265137,37.006229400634766,0,
 202737,0.096923828125,-0.918701171875,-0.0849609375,8.932927131652832,10.42682933807373,9.17682933807373,-12.0,-8.399999618530273,-8.699999809265137,36.86246109008789,0,
 202747,0.062255859375,-0.960693359375,0.00341796875,15.945122718811035,4.72560977935791,9.634146690368652,-11.25,-7.199999809265137,-6.449999809265137,37.006229400634766,0,
 202757,-0.0537109375,-1.048828125,0.008544921875,10.731707572937012,-4.5731706619262695,9.969511985778809,-11.25,-7.199999809265137,-6.449999809265137,37.05415344238281,0,
 202767,-0.19091796875,-0.979248046875,-0.046142578125,5.030488014221191,-8.689024925231934,1.6768293380737305,-10.800000190734863,-8.100000381469727,-7.650000095367432,37.006229400634766,0,
 202777,-0.11474609375,-0.9697265625,-0.03076171875,7.0731706619262695,-2.9573171138763428,-5.243902683258057,-11.550000190734863,-7.650000095367432,-9.899999618530273,37.006229400634766,0,
 202807,-0.068603515625,-0.9599609375,-0.04248046875,3.658536672592163,-1.8597561120986938,-9.054878234863281,-12.899999618530273,-5.400000095367432,-8.25,37.05415344238281,0,
 202827,-0.043212890625,-0.987548828125,-0.02734375,8.75,-1.2804877758026123,-10.060976028442383,-12.149999618530273,-7.050000190734863,-7.800000190734863,37.006229400634766,0,
 202837,-0.033203125,-0.99560546875,-0.01220703125,8.87195110321045,-1.6768293380737305,-9.02439022064209,-12.0,-8.100000381469727,-8.699999809265137,36.86246109008789,0,
 202847,-0.03369140625,-0.991455078125,-0.01171875,7.317073345184326,-1.585365891456604,-6.371951580047607,-12.0,-8.100000381469727,-8.699999809265137,37.05415344238281,0,
 202857,-0.03076171875,-0.985595703125,-0.016357421875,5.853658676147461,-1.2195122241973877,-3.4146342277526855,-12.0,-8.100000381469727,-8.699999809265137,36.86246109008789,0,
 202867,-0.037841796875,-0.989013671875,-0.0126953125,4.237804889678955,-0.792682945728302,-0.8231707215309143,-12.600000381469727,-7.050000190734863,-7.5,37.006229400634766,0,
 202877,-0.042724609375,-0.979736328125,-0.014892578125,2.4390244483947754,-0.4573170840740204,0.6707317233085632,-12.0,-8.100000381469727,-8.399999618530273,36.814537048339844,0,
 202887,-0.05859375,-0.977783203125,-0.020263671875,1.2804877758026123,-0.3658536672592163,0.6402438879013062,-12.0,-8.100000381469727,-8.399999618530273,36.814537048339844,0,
 202897,-0.0556640625,-0.968505859375,-0.019287109375,1.3719512224197388,-0.15243902802467346,-0.18292683362960815,-12.0,-8.100000381469727,-8.399999618530273,37.10207748413086,0,
 202907,-0.06005859375,-0.975341796875,-0.0185546875,1.7682926654815674,0.15243902802467346,-1.25,-11.550000190734863,-5.699999809265137,-7.949999809265137,37.006229400634766,0,
 202917,-0.054931640625,-0.976806640625,-0.02001953125,2.103658676147461,0.5487805008888245,-2.195122003555298,-11.550000190734863,-5.25,-7.199999809265137,36.91038513183594,0,
 202927,-0.04541015625,-0.982421875,-0.014404296875,2.1341464519500732,0.7317073345184326,-2.591463565826416,-10.800000190734863,-5.699999809265137,-9.899999618530273,36.814537048339844,0,
 202937,-0.0439453125,-0.980712890625,-0.018798828125,1.6158536672592163,1.1280487775802612,-3.1097562313079834,-10.800000190734863,-5.699999809265137,-9.899999618530273,37.006229400634766,0,
 202947,-0.048095703125,-0.97705078125,-0.019287109375,0.9756097793579102,0.7317073345184326,-2.77439022064209,-10.800000190734863,-5.699999809265137,-9.899999618530273,37.05415344238281,0,
 202957,-0.0322265625,-0.983154296875,-0.01416015625,0.27439025044441223,0.3658536672592163,-1.585365891456604,-12.600000381469727,-6.599999904632568,-7.050000190734863,37.006229400634766,0,
 202977,-0.0419921875,-0.984375,-0.00927734375,-0.27439025044441223,0.4573170840740204,-0.4573170840740204,-14.25,-6.0,-8.399999618530273,36.86246109008789,0,
 202987,-0.042236328125,-0.98291015625,-0.017822265625,-0.21341463923454285,-0.24390244483947754,-0.6097561120986938,-14.25,-6.0,-8.399999618530273,36.814537048339844,0,
 202997,-0.046630859375,-0.97900390625,-0.015869140625,0.12195122241973877,-0.030487805604934692,-0.7012194991111755,-12.300000190734863,-6.449999809265137,-8.699999809265137,36.814537048339844,0,
 203007,-0.047607421875,-0.9775390625,-0.015869140625,0.3353658616542816,-0.21341463923454285,-0.9146341681480408,-12.0,-6.900000095367432,-7.949999809265137,37.006229400634766,0,
 203017,-0.039794921875,-0.975830078125,-0.018310546875,0.09146341681480408,0.12195122241973877,-0.8536585569381714,-12.600000381469727,-8.25,-7.050000190734863,36.86246109008789,0,
 203047,-0.041015625,-0.976318359375,-0.013916015625,-0.6097561120986938,0.060975611209869385,-0.5182926654815674,-12.899999618530273,-6.300000190734863,-7.800000190734863,37.10207748413086,0,
 203067,-0.041259765625,-0.97265625,-0.017333984375,-0.030487805604934692,0.09146341681480408,-0.6097561120986938,-13.050000190734863,-6.449999809265137,-8.399999618530273,37.19792175292969,0,
 203087,-0.0380859375,-0.984130859375,-0.017822265625,-0.4573170840740204,0.3658536672592163,-0.3048780560493469,-12.899999618530273,-6.599999904632568,-7.5,36.814537048339844,0,
 203107,-0.04296875,-0.976806640625,-0.013427734375,-0.24390244483947754,0.6402438879013062,-0.7621951103210449,-11.25,-6.0,-9.149999618530273,36.86246109008789,0,
 203117,-0.043701171875,-0.980712890625,-0.023193359375,-1.0365853309631348,0.3658536672592163,-0.5487805008888245,-10.949999809265137,-7.050000190734863,-7.800000190734863,37.006229400634766,0,
 203128,-0.050048828125,-0.978515625,-0.019287109375,-0.792682945728302,0.4573170840740204,-1.0670732259750366,-10.949999809265137,-7.050000190734863,-7.800000190734863,36.814537048339844,0,
 203138,-0.04931640625,-0.970703125,-0.0205078125,-0.3048780560493469,0.3048780560493469,-1.8597561120986938,-11.399999618530273,-7.800000190734863,-10.800000190734863,36.814537048339844,0,
 203158,-0.05517578125,-0.980224609375,-0.02978515625,0.4573170840740204,0.6097561120986938,-3.8109757900238037,-11.25,-8.100000381469727,-8.399999618530273,36.91038513183594,0,
 203168,-0.05419921875,-0.976318359375,-0.02783203125,2.3475611209869385,0.5182926654815674,-6.25,-10.800000190734863,-7.199999809265137,-7.199999809265137,37.006229400634766,0,
 203178,-0.05419921875,-0.97509765625,-0.03271484375,4.634146213531494,1.1280487775802612,-9.87804889678955,-10.800000190734863,-7.199999809265137,-7.199999809265137,36.86246109008789,0,
 203198,-0.01708984375,-0.9765625,-0.01318359375,8.689024925231934,0.9756097793579102,-14.390244483947754,-12.149999618530273,-8.699999809265137,-9.0,36.86246109008789,0,
 203218,-0.009765625,-0.978759765625,-0.001708984375,9.085366249084473,1.1280487775802612,-12.34756088256836,-12.149999618530273,-6.300000190734863,-7.800000190734863,37.006229400634766,0,
 203238,-0.015869140625,-0.995849609375,0.012451171875,5.9146342277526855,0.5792682766914368,-8.90243911743164,-11.550000190734863,-7.650000095367432,-12.149999618530273,37.006229400634766,0,
 203248,-0.013671875,-0.991943359375,0.004150390625,4.054878234863281,0.5182926654815674,-8.109756469726562,-12.300000190734863,-6.449999809265137,-7.650000095367432,37.006229400634766,0,
 203258,-0.020263671875,-0.986572265625,-0.002685546875,2.896341562271118,0.060975611209869385,-8.62804889678955,-13.050000190734863,-7.199999809265137,-8.699999809265137,36.814537048339844,0,
 203268,-0.0244140625,-0.975830078125,-0.001708984375,2.896341562271118,0.5487805008888245,-9.02439022064209,-13.050000190734863,-7.199999809265137,-8.699999809265137,37.10207748413086,0,
 203278,-0.015625,-0.97900390625,-0.003662109375,2.591463565826416,0.12195122241973877,-7.77439022064209,-12.0,-7.199999809265137,-9.149999618530273,36.86246109008789,0,
 203288,-0.013671875,-0.970458984375,0.001708984375,2.103658676147461,0.396341472864151,-7.1646342277526855,-11.699999809265137,-7.800000190734863,-8.25,36.814537048339844,0,
 203298,-0.02099609375,-0.9599609375,0.002685546875,1.8902438879013062,0.5792682766914368,-5.213414669036865,-12.600000381469727,-6.599999904632568,-9.300000190734863,36.814537048339844,0,
 203308,-0.01416015625,-0.9609375,0.001220703125,1.1890244483947754,0.4573170840740204,-3.353658676147461,-13.649999618530273,-7.5,-7.5,37.10207748413086,0,
 203318,-0.001953125,-0.969970703125,0.009521484375,0.12195122241973877,0.3048780560493469,-1.1280487775802612,-13.649999618530273,-7.5,-7.5,36.718692779541016,0,
 203328,-0.01025390625,-0.97802734375,0.005859375,-0.5182926654815674,0.24390244483947754,0.4878048896789551,-12.899999618530273,-7.5,-8.550000190734863,36.814537048339844,0,
 203348,-0.01513671875,-0.972900390625,-0.001708984375,-1.6463414430618286,0.060975611209869385,1.6158536672592163,-11.550000190734863,-8.100000381469727,-8.699999809265137,37.006229400634766,0,
 203358,-0.010986328125,-0.9775390625,-0.001953125,-1.1585365533828735,0.21341463923454285,1.9512195587158203,-11.550000190734863,-8.100000381469727,-8.699999809265137,36.86246109008789,0,
 203368,-0.0126953125,-0.969970703125,-0.000244140625,-1.2804877758026123,0.6402438879013062,2.7134146690368652,-11.699999809265137,-7.800000190734863,-9.0,37.006229400634766,0,
 203378,-0.013916015625,-0.982421875,0.00390625,-1.8597561120986938,0.3353658616542816,3.3841464519500732,-12.149999618530273,-7.050000190734863,-9.0,37.006229400634766,0,
 203388,-0.020751953125,-0.98681640625,0.001708984375,-2.408536672592163,0.3353658616542816,3.5975611209869385,-13.050000190734863,-6.900000095367432,-9.449999809265137,36.91038513183594,0,
 203398,-0.03076171875,-0.98291015625,-0.0078125,-2.0731706619262695,0.27439025044441223,2.591463565826416,-12.300000190734863,-6.900000095367432,-9.149999618530273,37.006229400634766,0,
 203408,-0.04248046875,-0.97998046875,-0.01806640625,-1.4634146690368652,0.09146341681480408,0.24390244483947754,-12.300000190734863,-6.900000095367432,-9.149999618530273,37.05415344238281,0,
 203418,-0.02685546875,-0.97216796875,-0.0166015625,2.865853786468506,0.27439025044441223,-3.8719513416290283,-12.899999618530273,-8.699999809265137,-9.0,37.006229400634766,0,
 203428,-0.0244140625,-0.99072265625,-0.00439453125,4.115853786468506,0.27439025044441223,-6.8597564697265625,-11.550000190734863,-8.850000381469727,-6.900000095367432,37.19792175292969,0,
 203438,-0.026123046875,-1.02001953125,-0.015869140625,7.713414669036865,0.6707317233085632,-13.536585807800293,-12.0,-6.900000095367432,-9.149999618530273,37.006229400634766,0,
 203448,-0.03076171875,-1.041748046875,-0.017822265625,9.45121955871582,0.4268292784690857,-20.2439022064209,-13.350000381469727,-9.0,-10.800000190734863,36.814537048339844,0,
 203458,-0.045166015625,-1.07421875,0.00341796875,11.493903160095215,0.12195122241973877,-28.079269409179688,-13.350000381469727,-9.0,-10.800000190734863,36.86246109008789,0,
 203468,-0.05712890625,-1.1298828125,-0.012451171875,14.115854263305664,-0.6707317233085632,-38.628047943115234,-14.25,-5.699999809265137,-7.650000095367432,36.814537048339844,0,
 203488,-0.0517578125,-1.147216796875,0.01220703125,19.390243530273438,-2.7134146690368652,-57.34756088256836,-14.399999618530273,-7.050000190734863,-9.0,37.10207748413086,0,
 203498,-0.021484375,-1.1416015625,0.0263671875,23.140243530273438,-4.603658676147461,-65.06097412109375,-14.399999618530273,-7.050000190734863,-9.0,37.006229400634766,0,
 203518,0.016357421875,-1.1357421875,0.053955078125,24.512195587158203,-7.408536911010742,-73.96341705322266,-13.800000190734863,-8.399999618530273,-8.699999809265137,36.814537048339844,0,
 203528,0.0,-1.100341796875,0.037109375,19.542682647705078,-6.920732021331787,-75.57926940917969,-11.550000190734863,-8.100000381469727,-10.649999618530273,37.10207748413086,0,
 203548,0.06689453125,-0.997314453125,0.03125,11.09756088256836,-5.152439117431641,-75.3963394165039,-13.050000190734863,-9.300000190734863,-7.949999809265137,37.006229400634766,0,
 203558,0.088134765625,-0.97607421875,0.03173828125,10.396341323852539,-4.5731706619262695,-74.7256088256836,-15.600000381469727,-9.449999809265137,-10.5,36.814537048339844,0,
 203568,0.10302734375,-0.970947265625,0.032470703125,10.091464042663574,-4.146341323852539,-73.93292999267578,-14.25,-9.600000381469727,-9.899999618530273,36.86246109008789,0,
 203578,0.135986328125,-0.93115234375,0.02880859375,9.45121955871582,-3.1402440071105957,-71.55487823486328,-13.800000190734863,-10.050000190734863,-9.449999809265137,36.91038513183594,0,
 203588,0.14697265625,-0.90869140625,0.02490234375,10.060976028442383,-2.804877996444702,-69.11585235595703,-15.149999618530273,-10.949999809265137,-9.300000190734863,37.006229400634766,0,
 203598,0.162109375,-0.87939453125,0.027099609375,10.15243911743164,-3.0182926654815674,-65.57926940917969,-15.149999618530273,-10.949999809265137,-9.300000190734863,37.19792175292969,0,
 203608,0.185791015625,-0.890625,0.036865234375,9.542683601379395,-2.3475611209869385,-60.73170852661133,-15.600000381469727,-10.649999618530273,-10.050000190734863,37.006229400634766,0,
 203618,0.17724609375,-0.879638671875,0.025390625,11.12804889678955,-2.103658676147461,-57.34756088256836,-15.0,-11.25,-10.199999809265137,36.718692779541016,0,
 203648,0.195556640625,-0.910888671875,0.029296875,11.189024925231934,0.0,-48.567073822021484,-15.449999809265137,-12.0,-10.649999618530273,36.86246109008789,0,
 203658,0.219970703125,-0.904541015625,0.036865234375,10.884146690368652,1.0670732259750366,-45.82317352294922,-14.699999809265137,-13.199999809265137,-9.149999618530273,37.10207748413086,0,
 203688,0.2138671875,-0.965576171875,0.064453125,15.945122718811035,0.7621951103210449,-45.0,-15.149999618530273,-11.850000381469727,-9.75,37.05415344238281,0,
 203728,0.27392578125,-0.82177734375,0.08349609375,10.914634704589844,0.8231707215309143,-33.44512176513672,-14.699999809265137,-14.399999618530273,-9.449999809265137,36.814537048339844,0,
 203738,0.2958984375,-0.81494140625,0.096923828125,9.085366249084473,0.4878048896789551,-27.865854263305664,-14.699999809265137,-14.399999618530273,-9.449999809265137,37.006229400634766,0,
 203748,0.298095703125,-0.814453125,0.10498046875,8.04878044128418,-0.792682945728302,-21.95121955871582,-14.399999618530273,-13.050000190734863,-12.75,37.10207748413086,0,
 203758,0.2998046875,-0.822998046875,0.106201171875,7.652439117431641,-1.8597561120986938,-16.707317352294922,-16.5,-14.399999618530273,-10.199999809265137,36.91038513183594,0,
 203788,0.31396484375,-0.703857421875,0.090087890625,7.103658676147461,-6.554878234863281,6.280488014221191,-15.449999809265137,-11.550000190734863,-9.899999618530273,37.006229400634766,0,
 203798,0.327880859375,-0.6806640625,0.06689453125,1.920731782913208,-6.402439117431641,19.176830291748047,-16.350000381469727,-15.0,-10.5,37.006229400634766,0,
 203808,0.325439453125,-0.670166015625,0.070556640625,-9.115854263305664,-3.4146342277526855,35.3658561706543,-15.0,-12.0,-10.199999809265137,37.10207748413086,0,
 203818,0.30322265625,-0.5185546875,0.043212890625,-20.457317352294922,0.27439025044441223,52.408538818359375,-14.699999809265137,-13.199999809265137,-8.699999809265137,37.006229400634766,0,
 203829,0.332275390625,-0.27734375,0.021240234375,-38.90243911743164,5.152439117431641,81.5243911743164,-14.699999809265137,-13.199999809265137,-8.699999809265137,37.05415344238281,0,
 203839,0.36083984375,-0.018310546875,0.02880859375,-71.31097412109375,13.59756088256836,126.95122528076172,-15.149999618530273,-13.350000381469727,-9.300000190734863,37.006229400634766,0,
 203849,0.448486328125,0.094970703125,0.124267578125,-107.59146881103516,22.34756088256836,182.31707763671875,-14.850000381469727,-11.399999618530273,-10.800000190734863,36.86246109008789,0,
 203859,0.52880859375,-0.0078125,0.19482421875,-121.82926940917969,16.859756469726562,275.6707458496094,-14.100000381469727,-11.399999618530273,-11.25,36.86246109008789,0,
 203869,0.438720703125,-0.074462890625,0.181884765625,-94.96951293945312,-0.5182926654815674,320.4268493652344,-12.300000190734863,-10.800000190734863,-10.199999809265137,37.19792175292969,0,
 203879,0.236572265625,-0.349853515625,0.007568359375,-65.03048706054688,-22.865854263305664,375.45733642578125,-12.300000190734863,-10.800000190734863,-10.199999809265137,37.05415344238281,0,
 203889,0.889404296875,-5.9873046875,-2.14501953125,-52.92683029174805,39.57317352294922,288.506103515625,-11.399999618530273,-7.5,-9.75,37.19792175292969,0,
 203899,-0.147216796875,-1.94140625,0.69482421875,-7.5,13.567073822021484,-48.932926177978516,-11.699999809265137,-7.050000190734863,-8.550000190734863,37.006229400634766,0,
 203909,-1.505615234375,-0.44482421875,-0.363525390625,-28.75,-2.987804889678955,31.40243911743164,-12.600000381469727,-7.5,-6.75,36.86246109008789,0,
 203919,-0.982177734375,-0.904541015625,-0.1376953125,-24.329269409179688,-4.1768293380737305,34.085365295410156,-11.399999618530273,-8.25,-8.25,37.10207748413086,0,
 203929,-0.40625,-0.798583984375,-0.25048828125,-1.0670732259750366,7.286585330963135,13.292683601379395,-11.399999618530273,-8.25,-8.25,37.19792175292969,0,
 203939,-0.0078125,-0.771484375,-0.17236328125,12.286585807800293,5.091463565826416,23.414634704589844,-11.399999618530273,-7.5,-7.050000190734863,36.86246109008789,0,
 203949,0.16845703125,-1.009765625,-0.01953125,10.609756469726562,-5.396341800689697,23.292682647705078,-10.800000190734863,-6.449999809265137,-9.149999618530273,37.05415344238281,0,
 203959,-0.008544921875,-0.992431640625,-0.005126953125,5.182927131652832,-11.52439022064209,20.2439022064209,-13.050000190734863,-6.900000095367432,-7.949999809265137,37.006229400634766,0,
 203969,-0.159423828125,-1.000732421875,-0.033203125,3.567073345184326,-10.243902206420898,9.786585807800293,-13.050000190734863,-6.900000095367432,-7.949999809265137,36.814537048339844,0,
 203979,-0.209716796875,-0.952392578125,-0.051025390625,5.487804889678955,-5.121951103210449,0.12195122241973877,-10.5,-8.100000381469727,-7.949999809265137,37.245845794677734,0,
 203989,-0.16162109375,-0.954345703125,-0.03857421875,6.6768293380737305,-1.9817073345184326,-7.195122241973877,-12.149999618530273,-5.849999904632568,-8.550000190734863,37.05415344238281,0,
 203999,-0.120361328125,-0.97119140625,-0.025634765625,5.152439117431641,-0.9756097793579102,-14.054878234863281,-10.050000190734863,-6.0,-6.900000095367432,36.91038513183594,0,
 204009,-0.132080078125,-0.96728515625,-0.0341796875,5.213414669036865,-0.8536585569381714,-22.34756088256836,-10.800000190734863,-7.199999809265137,-8.699999809265137,36.86246109008789,0,
 204019,-0.12548828125,-0.946044921875,-0.0576171875,7.77439022064209,-0.24390244483947754,-30.762195587158203,-10.800000190734863,-7.199999809265137,-8.699999809265137,37.006229400634766,0,
 204029,-0.08203125,-0.9736328125,-0.0400390625,10.640244483947754,-1.097561001777649,-38.628047943115234,-12.149999618530273,-7.5,-8.550000190734863,37.006229400634766,0,
 204039,-0.03125,-1.00390625,-0.0341796875,13.445122718811035,-2.3475611209869385,-42.164634704589844,-11.550000190734863,-8.850000381469727,-7.949999809265137,36.91038513183594,0,
 204049,0.031982421875,-1.009033203125,-0.0234375,14.72560977935791,-2.591463565826416,-37.34756088256836,-12.899999618530273,-7.5,-7.5,37.245845794677734,0,
 204059,0.05126953125,-1.007568359375,0.01025390625,13.90243911743164,-0.24390244483947754,-22.439023971557617,-10.199999809265137,-7.050000190734863,-12.300000190734863,36.86246109008789,0,
 204069,0.030029296875,-1.0166015625,0.020751953125,9.02439022064209,0.4878048896789551,-5.762195110321045,-10.199999809265137,-7.050000190734863,-12.300000190734863,37.10207748413086,0,
 204079,-0.038818359375,-0.99853515625,-0.00634765625,2.5304877758026123,0.8231707215309143,4.481707572937012,-12.0,-7.650000095367432,-7.949999809265137,37.10207748413086,0,
 204089,-0.05859375,-0.97314453125,-0.025146484375,0.030487805604934692,0.4268292784690857,5.945122241973877,-12.0,-7.199999809265137,-7.199999809265137,37.19792175292969,0,
 204109,-0.064697265625,-0.970703125,-0.023681640625,1.8597561120986938,0.3353658616542816,1.1280487775802612,-12.0,-8.399999618530273,-7.650000095367432,36.814537048339844,0,
 204119,-0.05029296875,-0.97900390625,-0.02001953125,2.195122003555298,0.8231707215309143,-1.5548781156539917,-10.649999618530273,-7.050000190734863,-6.300000190734863,37.006229400634766,0,
 204129,-0.04931640625,-0.980224609375,-0.020263671875,1.7682926654815674,0.6097561120986938,-2.682926893234253,-12.75,-8.100000381469727,-7.199999809265137,37.245845794677734,0,
 204139,-0.04443359375,-0.97607421875,-0.018798828125,1.7073171138763428,0.8231707215309143,-3.0487804412841797,-12.300000190734863,-8.399999618530273,-7.949999809265137,37.006229400634766,0,
 204149,-0.03564453125,-0.981689453125,-0.018310546875,1.737804889678955,1.1585365533828735,-2.6524391174316406,-14.25,-6.900000095367432,-7.199999809265137,37.006229400634766,0,
 204159,-0.035400390625,-0.97705078125,-0.023193359375,1.737804889678955,0.8231707215309143,-2.195122003555298,-14.25,-6.900000095367432,-7.199999809265137,36.718692779541016,0,
 204179,-0.04150390625,-0.977783203125,-0.017578125,1.0670732259750366,0.21341463923454285,-0.3048780560493469,-11.699999809265137,-5.849999904632568,-7.050000190734863,36.86246109008789,0,
 204199,-0.04833984375,-0.97802734375,-0.010498046875,1.1585365533828735,0.12195122241973877,-0.12195122241973877,-12.75,-6.900000095367432,-8.399999618530273,37.05415344238281,0,
 204209,-0.0439453125,-0.984619140625,-0.016357421875,0.5487805008888245,0.060975611209869385,-0.6707317233085632,-12.75,-6.900000095367432,-8.399999618530273,36.814537048339844,0,
 204219,-0.041015625,-0.9794921875,-0.009765625,0.18292683362960815,0.030487805604934692,-0.5182926654815674,-11.550000190734863,-7.199999809265137,-7.949999809265137,37.19792175292969,0,
 204229,-0.039794921875,-0.9765625,-0.018310546875,-0.24390244483947754,0.24390244483947754,-0.6097561120986938,-12.149999618530273,-7.050000190734863,-6.75,37.006229400634766,0,
 204239,-0.0419921875,-0.981201171875,-0.01806640625,0.030487805604934692,0.24390244483947754,-0.5487805008888245,-12.899999618530273,-7.050000190734863,-9.0,36.86246109008789,0,
 204259,-0.0390625,-0.974853515625,-0.0185546875,0.060975611209869385,0.24390244483947754,-0.5182926654815674,-13.050000190734863,-6.900000095367432,-7.949999809265137,36.91038513183594,0,
 204269,-0.04296875,-0.972412109375,-0.015625,-0.09146341681480408,0.21341463923454285,-0.3048780560493469,-9.300000190734863,-10.350000381469727,-8.699999809265137,37.05415344238281,0,
 204279,-0.041748046875,-0.97314453125,-0.0126953125,0.15243902802467346,-0.15243902802467346,-0.396341472864151,-13.350000381469727,-7.050000190734863,-7.5,36.86246109008789,0,
 204289,-0.045654296875,-0.978515625,-0.01416015625,0.3658536672592163,0.12195122241973877,-0.21341463923454285,-11.699999809265137,-8.25,-8.25,36.67076873779297,0,
 204299,-0.044189453125,-0.982177734375,-0.018310546875,0.21341463923454285,0.3048780560493469,-0.3658536672592163,-11.699999809265137,-8.25,-8.25,36.86246109008789,0,
 204309,-0.044677734375,-0.98095703125,-0.016357421875,-0.24390244483947754,0.09146341681480408,-0.21341463923454285,-11.25,-7.650000095367432,-7.949999809265137,36.67076873779297,0,
 204319,-0.046875,-0.978271484375,-0.013671875,-0.6707317233085632,0.15243902802467346,-0.15243902802467346,-11.550000190734863,-8.100000381469727,-7.650000095367432,37.006229400634766,0,
 204329,-0.0380859375,-0.982421875,-0.01318359375,-0.7621951103210449,0.6707317233085632,0.09146341681480408,-11.699999809265137,-7.800000190734863,-7.5,37.006229400634766,0,
 204339,-0.04296875,-0.97509765625,-0.020751953125,-1.2804877758026123,0.21341463923454285,0.030487805604934692,-13.350000381469727,-7.5,-8.550000190734863,37.05415344238281,0,
 204349,-0.038330078125,-0.9775390625,-0.011474609375,-1.0365853309631348,0.6097561120986938,0.030487805604934692,-13.350000381469727,-7.5,-8.550000190734863,36.57492446899414,0,
 204359,-0.04052734375,-0.97509765625,-0.017333984375,-0.792682945728302,0.5487805008888245,0.09146341681480408,-11.699999809265137,-7.5,-10.050000190734863,37.19792175292969,0,
 204369,-0.0390625,-0.9794921875,-0.01611328125,-0.7317073345184326,-0.060975611209869385,0.18292683362960815,-11.399999618530273,-7.5,-8.25,36.91038513183594,0,
 204379,-0.04541015625,-0.979736328125,-0.01171875,-0.8231707215309143,0.4878048896789551,0.6402438879013062,-11.550000190734863,-7.650000095367432,-9.449999809265137,37.006229400634766,0,
 204389,-0.044921875,-0.97900390625,-0.017822265625,-0.7621951103210449,0.3658536672592163,-0.18292683362960815,-11.550000190734863,-7.650000095367432,-9.449999809265137,37.10207748413086,0,
 204399,-0.0419921875,-0.971923828125,-0.017578125,-0.396341472864151,0.18292683362960815,0.4268292784690857,-11.699999809265137,-5.849999904632568,-7.050000190734863,36.814537048339844,0,
 204409,-0.041015625,-0.978515625,-0.017333984375,-0.15243902802467346,0.18292683362960815,0.396341472864151,-12.300000190734863,-8.100000381469727,-9.149999618530273,36.814537048339844,0,
 204419,-0.04052734375,-0.972900390625,-0.016845703125,-0.6097561120986938,0.09146341681480408,0.24390244483947754,-13.350000381469727,-7.050000190734863,-7.5,37.245845794677734,0,
 204429,-0.044189453125,-0.979736328125,-0.015625,-0.3353658616542816,0.09146341681480408,0.4878048896789551,-12.75,-6.900000095367432,-9.149999618530273,37.006229400634766,0,
 204439,-0.038330078125,-0.98046875,-0.015625,-0.4573170840740204,0.060975611209869385,0.09146341681480408,-12.75,-6.900000095367432,-9.149999618530273,36.91038513183594,0,
 204449,-0.041259765625,-0.98046875,-0.015869140625,-0.5792682766914368,0.030487805604934692,0.3048780560493469,-11.399999618530273,-7.800000190734863,-9.0,36.86246109008789,0,
 204459,-0.036865234375,-0.981689453125,-0.017822265625,-0.5182926654815674,0.24390244483947754,0.0,-12.300000190734863,-8.100000381469727,-8.399999618530273,36.86246109008789,0,
 204469,-0.043701171875,-0.977294921875,-0.013671875,-0.7012194991111755,0.030487805604934692,0.24390244483947754,-10.199999809265137,-8.25,-9.0,37.006229400634766,0,
 204479,-0.045166015625,-0.9755859375,-0.01708984375,-0.27439025044441223,0.12195122241973877,0.5487805008888245,-12.300000190734863,-6.900000095367432,-6.150000095367432,37.006229400634766,0,
 204489,-0.039306640625,-0.975830078125,-0.015380859375,-0.4573170840740204,0.12195122241973877,0.5182926654815674,-12.300000190734863,-6.900000095367432,-6.150000095367432,37.006229400634766,0,
 204499,-0.035888671875,-0.975830078125,-0.0166015625,-0.396341472864151,0.27439025044441223,0.15243902802467346,-12.75,-7.199999809265137,-6.449999809265137,36.67076873779297,0,
 204509,-0.04443359375,-0.976806640625,-0.0166015625,-0.5487805008888245,0.21341463923454285,0.12195122241973877,-12.300000190734863,-7.199999809265137,-8.699999809265137,37.006229400634766,0,
 204519,-0.044189453125,-0.982421875,-0.01513671875,-0.18292683362960815,0.3353658616542816,0.4573170840740204,-11.699999809265137,-7.5,-9.0,37.10207748413086,0,
 204529,-0.044189453125,-0.98291015625,-0.019287109375,-0.3353658616542816,0.27439025044441223,0.3048780560493469,-11.699999809265137,-7.5,-9.0,37.10207748413086,0,
 204539,-0.040771484375,-0.979736328125,-0.01416015625,-0.3353658616542816,0.3353658616542816,0.09146341681480408,-13.649999618530273,-7.050000190734863,-6.300000190734863,37.10207748413086,0,
 204549,-0.0400390625,-0.981201171875,-0.0126953125,-0.24390244483947754,0.4268292784690857,0.3658536672592163,-12.600000381469727,-6.599999904632568,-7.800000190734863,36.718692779541016,0,
 204559,-0.049072265625,-0.97900390625,-0.012939453125,-0.4268292784690857,0.24390244483947754,0.3658536672592163,-12.149999618530273,-7.800000190734863,-8.25,37.006229400634766,0,
 204569,-0.03955078125,-0.98193359375,-0.017333984375,-0.4268292784690857,0.3658536672592163,0.5487805008888245,-12.0,-4.5,-9.149999618530273,36.814537048339844,0,
 204580,-0.043212890625,-0.982177734375,-0.016357421875,-0.4573170840740204,0.27439025044441223,0.0,-12.0,-4.5,-9.149999618530273,37.006229400634766,0,
 204590,-0.04296875,-0.9794921875,-0.0146484375,-0.4268292784690857,0.21341463923454285,0.09146341681480408,-10.949999809265137,-7.5,-7.5,37.05415344238281,0,
 204600,-0.040283203125,-0.977783203125,-0.009765625,-0.5487805008888245,0.3048780560493469,0.3353658616542816,-11.399999618530273,-8.699999809265137,-9.300000190734863,36.86246109008789,0,
 204610,-0.044189453125,-0.9814453125,-0.010986328125,-0.4573170840740204,-0.030487805604934692,0.6097561120986938,-12.75,-8.100000381469727,-7.199999809265137,37.05415344238281,0,
 204620,-0.04638671875,-0.976806640625,-0.013671875,-0.18292683362960815,0.24390244483947754,0.21341463923454285,-12.149999618530273,-8.699999809265137,-9.0,36.91038513183594,0,
 204630,-0.04150390625,-0.983154296875,-0.020751953125,-0.5182926654815674,0.060975611209869385,0.6707317233085632,-12.149999618530273,-8.699999809265137,-9.0,36.91038513183594,0,
 204640,-0.042724609375,-0.982177734375,-0.014892578125,-0.24390244483947754,0.18292683362960815,0.3048780560493469,-12.300000190734863,-7.650000095367432,-7.199999809265137,37.19792175292969,0,
 204650,-0.0419921875,-0.97607421875,-0.015380859375,-0.4878048896789551,0.3048780560493469,-0.15243902802467346,-11.25,-6.0,-7.650000095367432,36.57492446899414,0,
 204660,-0.04248046875,-0.97802734375,-0.01611328125,-0.030487805604934692,0.5182926654815674,0.030487805604934692,-11.399999618530273,-9.0,-8.550000190734863,37.006229400634766,0,
 204670,-0.042236328125,-0.975341796875,-0.018798828125,-0.8536585569381714,0.4878048896789551,0.060975611209869385,-12.0,-5.699999809265137,-8.399999618530273,36.814537048339844,0,
 204680,-0.03759765625,-0.979736328125,-0.018798828125,-0.5182926654815674,0.396341472864151,0.24390244483947754,-12.0,-5.699999809265137,-8.399999618530273,37.006229400634766,0,
 204690,-0.044189453125,-0.98193359375,-0.011962890625,-0.6402438879013062,0.3658536672592163,0.18292683362960815,-11.550000190734863,-6.449999809265137,-8.699999809265137,37.245845794677734,0,
 204700,-0.04736328125,-0.981689453125,-0.013916015625,-0.5182926654815674,0.5792682766914368,0.060975611209869385,-12.149999618530273,-7.5,-9.0,36.814537048339844,0,
 204710,-0.047119140625,-0.97705078125,-0.01513671875,-0.7012194991111755,0.4573170840740204,-0.12195122241973877,-12.149999618530273,-5.849999904632568,-7.5,37.006229400634766,0,
 204720,-0.0439453125,-0.9833984375,-0.01513671875,-0.5487805008888245,0.12195122241973877,-0.24390244483947754,-12.149999618530273,-5.849999904632568,-7.5,36.91038513183594,0,
 204730,-0.052978515625,-0.975830078125,-0.016845703125,-0.7621951103210449,0.3658536672592163,-0.9146341681480408,-12.0,-7.199999809265137,-9.899999618530273,36.814537048339844,0,
 204740,-0.050537109375,-0.975341796875,-0.019287109375,-0.18292683362960815,0.27439025044441223,-1.5548781156539917,-12.600000381469727,-7.5,-8.550000190734863,37.10207748413086,0,
 204750,-0.053955078125,-0.97412109375,-0.024169921875,0.792682945728302,0.6707317233085632,-3.2926828861236572,-11.399999618530273,-5.099999904632568,-9.0,37.10207748413086,0,
 204760,-0.0576171875,-0.982666015625,-0.028076171875,2.012195110321045,1.0060975551605225,-5.853658676147461,-12.149999618530273,-5.400000095367432,-9.0,37.006229400634766,0,
 204770,-0.052001953125,-0.986328125,-0.018310546875,4.45121955871582,1.097561001777649,-11.310976028442383,-12.149999618530273,-5.400000095367432,-9.0,37.245845794677734,0,
 204780,-0.041259765625,-0.999755859375,-0.01513671875,5.060975551605225,1.097561001777649,-15.243903160095215,-14.399999618530273,-6.599999904632568,-9.300000190734863,37.006229400634766,0,
 204790,-0.0517578125,-1.017578125,-0.025390625,7.469512462615967,1.2195122241973877,-23.170732498168945,-13.350000381469727,-6.599999904632568,-6.300000190734863,36.814537048339844,0,
 204800,-0.05078125,-1.0126953125,-0.031982421875,10.914634704589844,0.8536585569381714,-29.78658676147461,-11.699999809265137,-6.300000190734863,-9.0,37.19792175292969,0,
 204810,-0.037841796875,-1.0107421875,-0.015380859375,12.896341323852539,0.9756097793579102,-35.09146499633789,-12.75,-6.900000095367432,-8.399999618530273,36.91038513183594,0,
 204820,-0.044921875,-1.0283203125,-0.0078125,13.993903160095215,1.3109756708145142,-36.95122146606445,-12.75,-6.900000095367432,-8.399999618530273,37.006229400634766,0,
 204830,-0.06103515625,-1.07666015625,0.005126953125,11.920731544494629,0.6402438879013062,-39.17683029174805,-12.899999618530273,-7.5,-7.800000190734863,37.19792175292969,0,
 204840,-0.06103515625,-1.126953125,0.013916015625,12.042683601379395,-0.27439025044441223,-45.88414764404297,-13.5,-8.399999618530273,-8.399999618530273,36.718692779541016,0,
 204850,-0.058349609375,-1.177001953125,0.002685546875,13.932927131652832,-1.1890244483947754,-56.585365295410156,-14.399999618530273,-6.599999904632568,-8.550000190734863,36.814537048339844,0,
 204860,-0.07373046875,-1.21826171875,0.013916015625,17.164634704589844,-3.262195110321045,-70.64024353027344,-14.399999618530273,-6.599999904632568,-8.550000190734863,37.006229400634766,0,
 204870,-0.06591796875,-1.206787109375,0.016357421875,17.865854263305664,-4.481707572937012,-80.79268646240234,-12.600000381469727,-7.5,-9.300000190734863,37.006229400634766,0,
 204880,-0.028564453125,-1.157958984375,0.0361328125,13.109756469726562,-4.2682929039001465,-83.29268646240234,-12.149999618530273,-9.899999618530273,-9.300000190734863,37.10207748413086,0,
 204890,0.014892578125,-1.061279296875,0.036865234375,7.987804889678955,-3.567073345184326,-80.67073059082031,-13.800000190734863,-8.399999618530273,-9.899999618530273,36.814537048339844,0,
 204900,0.067138671875,-0.97509765625,0.023681640625,4.72560977935791,-3.1402440071105957,-76.37195587158203,-11.699999809265137,-9.449999809265137,-9.75,37.006229400634766,0,
 204920,0.1220703125,-0.855712890625,-0.023193359375,6.067073345184326,-1.7073171138763428,-67.13414764404297,-15.0,-8.100000381469727,-8.399999618530273,37.05415344238281,0,
 204930,0.13623046875,-0.884521484375,-0.015869140625,6.463414669036865,-0.792682945728302,-61.6158561706543,-13.800000190734863,-9.600000381469727,-9.149999618530273,37.006229400634766,0,
 204940,0.121826171875,-0.902587890625,-0.025634765625,9.268292427062988,0.9146341681480408,-58.414634704589844,-14.25,-9.600000381469727,-9.449999809265137,36.814537048339844,0,
 204950,0.128173828125,-0.941650390625,-0.020751953125,10.853658676147461,2.408536672592163,-55.57926940917969,-14.100000381469727,-10.199999809265137,-9.75,36.86246109008789,0,
 204960,0.123291015625,-0.97216796875,-0.009765625,13.079268455505371,3.658536672592163,-55.121952056884766,-14.100000381469727,-10.199999809265137,-9.75,37.245845794677734,0,
 204970,0.135009765625,-0.98388671875,-0.0078125,14.29878044128418,4.420732021331787,-55.0,-15.149999618530273,-13.050000190734863,-11.550000190734863,36.814537048339844,0,
 204980,0.151611328125,-0.9619140625,0.018310546875,13.47560977935791,5.9146342277526855,-53.810977935791016,-13.350000381469727,-10.199999809265137,-11.25,37.006229400634766,0,
 204990,0.168212890625,-0.964111328125,0.025634765625,12.804878234863281,6.493902683258057,-52.92683029174805,-15.75,-12.0,-9.449999809265137,36.57492446899414,0,
 205000,0.18212890625,-0.93115234375,0.04296875,11.280488014221191,6.829268455505371,-51.25,-15.75,-12.0,-9.449999809265137,37.006229400634766,0,
 205010,0.20361328125,-0.917236328125,0.052978515625,10.030488014221191,6.432927131652832,-49.05487823486328,-14.699999809265137,-10.350000381469727,-9.149999618530273,37.006229400634766,0,
 205020,0.2138671875,-0.894775390625,0.068115234375,10.182927131652832,5.030488014221191,-46.7378044128418,-14.100000381469727,-12.600000381469727,-10.800000190734863,37.006229400634766,0,
 205030,0.22509765625,-0.890380859375,0.06982421875,10.243902206420898,3.7804877758026123,-43.99390411376953,-15.0,-13.199999809265137,-10.199999809265137,37.006229400634766,0,
 205040,0.231201171875,-0.899169921875,0.073486328125,11.036585807800293,1.9512195587158203,-41.79878234863281,-15.149999618530273,-12.600000381469727,-10.5,37.006229400634766,0,
 205050,0.226318359375,-0.903564453125,0.066162109375,12.804878234863281,0.396341472864151,-40.39634323120117,-15.149999618530273,-12.600000381469727,-10.5,36.86246109008789,0,
 205060,0.228271484375,-0.912109375,0.06298828125,13.079268455505371,-0.9451219439506531,-38.44512176513672,-15.449999809265137,-12.449999809265137,-9.149999618530273,37.05415344238281,0,
 205070,0.236328125,-0.920166015625,0.0517578125,13.262195587158203,-1.3414634466171265,-36.82926940917969,-14.699999809265137,-12.0,-10.199999809265137,37.006229400634766,0,
 205080,0.234130859375,-0.910400390625,0.056396484375,14.420732498168945,-2.0731706619262695,-35.79268264770508,-15.75,-14.399999618530273,-9.149999618530273,36.91038513183594,0,
 205090,0.246826171875,-0.927734375,0.048828125,14.84756088256836,-2.6219513416290283,-34.085365295410156,-15.75,-12.75,-9.149999618530273,36.67076873779297,0,
 205100,0.23876953125,-0.9287109375,0.039794921875,15.609756469726562,-2.5,-34.1158561706543,-15.75,-12.75,-9.149999618530273,37.006229400634766,0,
 205110,0.243408203125,-0.948974609375,0.038330078125,16.981708526611328,-2.0731706619262695,-33.53658676147461,-17.549999237060547,-14.550000190734863,-9.75,36.91038513183594,0,
 205120,0.242431640625,-0.9501953125,0.03076171875,16.676830291748047,-1.737804889678955,-32.774391174316406,-15.899999618530273,-12.149999618530273,-10.5,37.006229400634766,0,
 205130,0.258544921875,-0.92626953125,0.038818359375,14.57317066192627,0.09146341681480408,-32.19512176513672,-17.100000381469727,-11.850000381469727,-11.25,37.10207748413086,0,
 205140,0.267822265625,-0.90087890625,0.050537109375,12.560976028442383,1.7682926654815674,-30.609756469726562,-17.100000381469727,-11.850000381469727,-11.25,36.86246109008789,0,
 205150,0.2900390625,-0.86083984375,0.065185546875,11.158536911010742,2.5609755516052246,-28.018293380737305,-16.799999237060547,-13.350000381469727,-9.300000190734863,36.718692779541016,0,
 205160,0.3037109375,-0.856689453125,0.0810546875,9.29878044128418,2.378048896789551,-24.817073822021484,-16.350000381469727,-12.600000381469727,-9.75,37.006229400634766,0,
 205170,0.304443359375,-0.843017578125,0.099609375,8.140244483947754,1.8902438879013062,-20.670732498168945,-16.799999237060547,-13.800000190734863,-11.25,37.006229400634766,0,
 205180,0.309326171875,-0.81640625,0.10595703125,6.981707572937012,1.0365853309631348,-16.280488967895508,-15.75,-13.649999618530273,-9.899999618530273,36.86246109008789,0,
 205191,0.322509765625,-0.784912109375,0.107421875,5.762195110321045,0.030487805604934692,-10.884146690368652,-15.75,-13.649999618530273,-9.899999618530273,37.05415344238281,0,
 205201,0.328857421875,-0.745849609375,0.102294921875,4.908536911010742,-1.6463414430618286,-2.6524391174316406,-15.449999809265137,-13.649999618530273,-9.899999618530273,36.67076873779297,0,
 205211,0.330322265625,-0.669921875,0.0771484375,-8.079268455505371,-1.3414634466171265,22.560976028442383,-16.799999237060547,-15.300000190734863,-10.5,36.814537048339844,0,
 205221,0.3583984375,-0.6455078125,0.087646484375,-16.067073822021484,0.9756097793579102,37.469512939453125,-14.850000381469727,-14.550000190734863,-11.25,36.91038513183594,0,
 205231,0.310302734375,-0.635986328125,0.04736328125,-30.64024543762207,4.1768293380737305,57.713417053222656,-15.449999809265137,-13.949999809265137,-9.899999618530273,36.814537048339844,0,
 205241,0.318359375,-0.481689453125,0.013916015625,-59.20731735229492,11.40243911743164,93.38414764404297,-15.449999809265137,-13.949999809265137,-9.899999618530273,37.006229400634766,0,
 205251,0.3212890625,-0.1591796875,-0.003662109375,-101.4024429321289,21.0060977935791,147.256103515625,-15.0,-14.399999618530273,-9.449999809265137,36.814537048339844,0,
 205261,0.332275390625,0.095458984375,0.0537109375,-135.3353729248047,28.323171615600586,207.77439880371094,-15.0,-12.0,-10.649999618530273,37.006229400634766,0,
 205271,0.522216796875,0.143310546875,0.187744140625,-144.51219177246094,24.14634132385254,260.2134094238281,-16.350000381469727,-10.949999809265137,-9.0,37.05415344238281,0,
 205281,0.6240234375,0.05078125,0.287841796875,-127.71341705322266,7.865853786468506,305.9146423339844,-16.350000381469727,-10.949999809265137,-9.0,36.57492446899414,0,
 205301,0.275146484375,-0.701171875,-0.09814453125,-52.22561264038086,-41.89024353027344,407.31707763671875,-14.100000381469727,-9.899999618530273,-8.25,37.006229400634766,0,
 205311,-1.525146484375,-7.999755859375,-1.64306640625,-27.317073822021484,18.475610733032227,107.83536529541016,-12.899999618530273,-9.0,-8.25,37.006229400634766,0,
 205321,0.43994140625,-2.1162109375,0.0693359375,8.75,21.4939022064209,-26.4939022064209,-10.649999618530273,-8.25,-8.550000190734863,37.19792175292969,0,
 205331,-1.159423828125,-0.656494140625,-0.0732421875,-27.89634132385254,-16.64634132385254,63.567073822021484,-10.649999618530273,-8.25,-8.550000190734863,36.814537048339844,0,
 205341,-0.056884765625,-1.3408203125,0.062255859375,-30.70121955871582,-10.030488014221191,32.103660583496094,-11.699999809265137,-7.800000190734863,-7.5,37.006229400634766,0,
 205351,-0.258544921875,-0.730224609375,-0.19921875,-7.195122241973877,0.6402438879013062,26.95121955871582,-10.800000190734863,-7.199999809265137,-7.199999809265137,37.05415344238281,0,
 205371,0.138916015625,-0.951416015625,-0.047607421875,8.353658676147461,-10.884146690368652,42.80487823486328,-11.699999809265137,-8.25,-7.5,36.86246109008789,0,
 205391,-0.23388671875,-0.948974609375,-0.061279296875,3.8719513416290283,-15.15243911743164,29.878049850463867,-10.199999809265137,-5.849999904632568,-8.550000190734863,36.814537048339844,0,
 205401,-0.22705078125,-0.931640625,-0.050048828125,5.5182929039001465,-10.945121765136719,18.59756088256836,-12.0,-7.650000095367432,-8.699999809265137,36.91038513183594,0,
 205411,-0.210693359375,-0.9365234375,-0.0478515625,6.219512462615967,-6.463414669036865,7.560975551605225,-10.199999809265137,-6.599999904632568,-7.050000190734863,36.814537048339844,0,
 205421,-0.194091796875,-0.940185546875,-0.050537109375,6.79878044128418,-2.6219513416290283,-3.5975611209869385,-10.199999809265137,-6.599999904632568,-7.050000190734863,37.05415344238281,0,
 205431,-0.198486328125,-0.92919921875,-0.0595703125,7.682927131652832,-0.7621951103210449,-15.640244483947754,-10.800000190734863,-6.449999809265137,-5.699999809265137,37.05415344238281,0,
 205441,-0.18994140625,-0.93212890625,-0.06640625,10.030488014221191,0.12195122241973877,-28.68902587890625,-10.949999809265137,-5.400000095367432,-6.0,36.86246109008789,0,
 205451,-0.18017578125,-0.9384765625,-0.068359375,13.109756469726562,0.8841463327407837,-41.89024353027344,-10.800000190734863,-6.449999809265137,-7.650000095367432,37.05415344238281,0,
 205461,-0.16357421875,-0.963134765625,-0.0546875,16.43292808532715,1.6463414430618286,-54.54268264770508,-12.0,-7.199999809265137,-6.150000095367432,36.86246109008789,0,
 205471,-0.13330078125,-0.982666015625,-0.045166015625,18.658536911010742,2.5,-65.51829528808594,-12.0,-7.199999809265137,-6.150000095367432,36.86246109008789,0,
 205481,-0.0751953125,-1.018310546875,-0.05126953125,19.359756469726562,3.3841464519500732,-73.68902587890625,-12.149999618530273,-7.050000190734863,-6.75,36.718692779541016,0,
 205491,0.131103515625,-1.042236328125,-0.032958984375,21.0060977935791,2.5304877758026123,-73.53659057617188,-12.899999618530273,-6.599999904632568,-7.5,36.814537048339844,0,
 205501,0.194580078125,-0.957763671875,-0.0107421875,21.341463088989258,1.0670732259750366,-47.65243911743164,-12.149999618530273,-9.899999618530273,-10.800000190734863,37.05415344238281,0,
 205511,0.126953125,-0.99560546875,0.024658203125,17.560976028442383,1.7987805604934692,-10.914634704589844,-12.149999618530273,-7.800000190734863,-5.550000190734863,36.91038513183594,0,
 205521,-0.01708984375,-1.038818359375,0.01806640625,9.390244483947754,2.3475611209869385,12.317073822021484,-12.149999618530273,-7.800000190734863,-5.550000190734863,37.006229400634766,0,
 205531,-0.085205078125,-1.014404296875,-0.00537109375,2.804877996444702,0.6402438879013062,14.02439022064209,-12.149999618530273,-7.800000190734863,-8.550000190734863,36.814537048339844,0,
 205541,-0.072021484375,-0.978515625,-0.0244140625,0.18292683362960815,-0.5182926654815674,7.77439022064209,-12.149999618530273,-8.699999809265137,-7.800000190734863,37.006229400634766,0,
 205551,-0.067138671875,-0.97021484375,-0.025390625,0.3353658616542816,-0.3658536672592163,2.804877996444702,-12.149999618530273,-7.800000190734863,-7.5,37.006229400634766,0,
 205561,-0.055908203125,-0.9873046875,-0.010009765625,0.5487805008888245,0.396341472864151,0.3353658616542816,-12.149999618530273,-7.800000190734863,-7.5,36.86246109008789,0,
 205571,-0.0498046875,-0.987060546875,-0.011474609375,-0.9146341681480408,0.6097561120986938,-1.8597561120986938,-11.550000190734863,-7.199999809265137,-8.699999809265137,37.10207748413086,0,
 205581,-0.043212890625,-0.967529296875,-0.03759765625,-1.8292683362960815,0.3048780560493469,-2.804877996444702,-12.600000381469727,-6.599999904632568,-8.550000190734863,36.67076873779297,0,
 205591,-0.032958984375,-0.964599609375,-0.0283203125,-1.0670732259750366,0.5487805008888245,-3.0182926654815674,-13.350000381469727,-7.5,-8.25,36.91038513183594,0,
 205611,-0.0283203125,-0.98486328125,-0.01513671875,0.396341472864151,0.060975611209869385,-0.9451219439506531,-14.100000381469727,-7.800000190734863,-9.0,36.86246109008789,0,
 205621,-0.04150390625,-0.98291015625,-0.023681640625,0.18292683362960815,-0.3048780560493469,-0.6402438879013062,-12.0,-8.100000381469727,-8.699999809265137,37.05415344238281,0,
 205631,-0.044921875,-0.981201171875,-0.02490234375,-0.396341472864151,0.15243902802467346,0.24390244483947754,-11.699999809265137,-7.800000190734863,-8.550000190734863,37.19792175292969,0,
 205641,-0.043701171875,-0.98095703125,-0.023681640625,-0.18292683362960815,-0.12195122241973877,0.3048780560493469,-13.649999618530273,-7.5,-8.25,37.05415344238281,0,
 205651,-0.045166015625,-0.97607421875,-0.02197265625,-0.12195122241973877,-0.060975611209869385,-0.12195122241973877,-13.649999618530273,-6.599999904632568,-7.800000190734863,36.91038513183594,0,
 205661,-0.0419921875,-0.982177734375,-0.019775390625,-0.4268292784690857,-0.060975611209869385,-0.24390244483947754,-13.649999618530273,-6.599999904632568,-7.800000190734863,37.006229400634766,0,
 205671,-0.03955078125,-0.97998046875,-0.0224609375,-0.396341472864151,-0.09146341681480408,-0.5487805008888245,-12.75,-6.900000095367432,-8.699999809265137,36.57492446899414,0,
 205691,-0.046630859375,-0.974365234375,-0.02294921875,-0.5792682766914368,0.030487805604934692,0.0,-12.149999618530273,-7.050000190734863,-9.75,37.10207748413086,0,
 205701,-0.0361328125,-0.97900390625,-0.019287109375,-0.7317073345184326,0.24390244483947754,-0.12195122241973877,-12.149999618530273,-7.050000190734863,-9.75,36.91038513183594,0,
